theta,intensity
5.0000,2.315
5.0400,2.365
5.0800,2.378
5.1200,2.327
5.1600,2.436
5.2000,2.368
5.2400,2.316
5.2800,2.218
5.3200,2.229
5.3600,2.256
5.4000,2.229
5.4400,2.183
5.4800,2.215
5.5200,2.192
5.5600,2.213
5.6000,2.147
5.6400,2.109
5.6800,2.019
5.7200,2.097
5.7600,2.058
5.8000,2.034
5.8400,2.001
5.8800,2.010
5.9200,2.034
5.9600,1.998
6.0000,2.003
6.0400,1.949
6.0800,1.929
6.1200,1.949
6.1600,1.905
6.2000,1.861
6.2400,1.883
6.2800,1.878
6.3200,1.789
6.3600,1.721
6.4000,1.796
6.4400,1.728
6.4800,1.762
6.5200,1.761
6.5600,1.738
6.6000,1.752
6.6400,1.714
6.6800,1.635
6.7200,1.563
6.7600,1.626
6.8000,1.661
6.8400,1.564
6.8800,1.597
6.9200,1.610
6.9600,1.533
7.0000,1.581
7.0400,1.518
7.0800,1.512
7.1200,1.545
7.1600,1.491
7.2000,1.505
7.2400,1.523
7.2800,1.489
7.3200,1.483
7.3600,1.467
7.4000,1.435
7.4400,1.447
7.4800,1.444
7.5200,1.510
7.5600,1.444
7.6000,1.493
7.6400,1.461
7.6800,1.481
7.7200,1.446
7.7600,1.477
7.8000,1.419
7.8400,1.485
7.8800,1.458
7.9200,1.444
7.9600,1.374
8.0000,1.371
8.0400,1.449
8.0800,1.458
8.1200,1.473
8.1600,1.449
8.2000,1.427
8.2400,1.427
8.2800,1.458
8.3200,1.404
8.3600,1.449
8.4000,1.409
8.4400,1.441
8.4800,1.440
8.5200,1.433
8.5600,1.442
8.6000,1.461
8.6400,1.416
8.6800,1.393
8.7200,1.408
8.7600,1.420
8.8000,1.452
8.8400,1.377
8.8800,1.395
8.9200,1.431
8.9600,1.437
9.0000,1.418
9.0400,1.334
9.0800,1.391
9.1200,1.371
9.1600,1.444
9.2000,1.374
9.2400,1.372
9.2800,1.376
9.3200,1.396
9.3600,1.430
9.4000,1.426
9.4400,1.416
9.4800,1.443
9.5200,1.421
9.5600,1.413
9.6000,1.390
9.6400,1.339
9.6800,1.412
9.7200,1.434
9.7600,1.380
9.8000,1.381
9.8400,1.341
9.8800,1.366
9.9200,1.407
9.9600,1.409
10.0000,1.377
10.0400,1.430
10.0800,1.331
10.1200,1.386
10.1600,1.387
10.2000,1.339
10.2400,1.370
10.2800,1.338
10.3200,1.418
10.3600,1.379
10.4000,1.438
10.4400,1.402
10.4800,1.374
10.5200,1.327
10.5600,1.353
10.6000,1.373
10.6400,1.338
10.6800,1.340
10.7200,1.312
10.7600,1.347
10.8000,1.376
10.8400,1.310
10.8800,1.332
10.9200,1.371
10.9600,1.307
11.0000,1.399
11.0400,1.322
11.0800,1.368
11.1200,1.337
11.1600,1.380
11.2000,1.346
11.2400,1.362
11.2800,1.316
11.3200,1.342
11.3600,1.364
11.4000,1.321
11.4400,1.361
11.4800,1.355
11.5200,1.367
11.5600,1.345
11.6000,1.351
11.6400,1.378
11.6800,1.288
11.7200,1.305
11.7600,1.311
11.8000,1.333
11.8400,1.350
11.8800,1.323
11.9200,1.345
11.9600,1.287
12.0000,1.315
12.0400,1.290
12.0800,1.311
12.1200,1.320
12.1600,1.356
12.2000,1.333
12.2400,1.282
12.2800,1.307
12.3200,1.310
12.3600,1.288
12.4000,1.308
12.4400,1.296
12.4800,1.293
12.5200,1.260
12.5600,1.279
12.6000,1.312
12.6400,1.285
12.6800,1.320
12.7200,1.237
12.7600,1.223
12.8000,1.322
12.8400,1.280
12.8800,1.284
12.9200,1.279
12.9600,1.246
13.0000,1.254
13.0400,1.334
13.0800,1.233
13.1200,1.263
13.1600,1.286
13.2000,1.233
13.2400,1.256
13.2800,1.224
13.3200,1.217
13.3600,1.258
13.4000,1.289
13.4400,1.311
13.4800,1.349
13.5200,1.262
13.5600,1.255
13.6000,1.279
13.6400,1.239
13.6800,1.282
13.7200,1.292
13.7600,1.291
13.8000,1.256
13.8400,1.299
13.8800,1.248
13.9200,1.253
13.9600,1.247
14.0000,1.266
14.0400,1.242
14.0800,1.227
14.1200,1.249
14.1600,1.214
14.2000,1.250
14.2400,1.240
14.2800,1.253
14.3200,1.242
14.3600,1.236
14.4000,1.235
14.4400,1.203
14.4800,1.233
14.5200,1.264
14.5600,1.249
14.6000,1.255
14.6400,1.237
14.6800,1.249
14.7200,1.188
14.7600,1.204
14.8000,1.211
14.8400,1.192
14.8800,1.168
14.9200,1.199
14.9600,1.206
15.0000,1.253
15.0400,1.243
15.0800,1.212
15.1200,1.222
15.1600,1.186
15.2000,1.265
15.2400,1.258
15.2800,1.192
15.3200,1.237
15.3600,1.172
15.4000,1.232
15.4400,1.231
15.4800,1.217
15.5200,1.156
15.5600,1.218
15.6000,1.198
15.6400,1.218
15.6800,1.208
15.7200,1.153
15.7600,1.218
15.8000,1.220
15.8400,1.202
15.8800,1.203
15.9200,1.202
15.9600,1.186
16.0000,1.134
16.0400,1.197
16.0800,1.264
16.1200,1.213
16.1600,1.194
16.2000,1.150
16.2400,1.202
16.2800,1.207
16.3200,1.207
16.3600,1.189
16.4000,1.216
16.4400,1.174
16.4800,1.194
16.5200,1.183
16.5600,1.195
16.6000,1.187
16.6400,1.182
16.6800,1.163
16.7200,1.181
16.7600,1.179
16.8000,1.190
16.8400,1.123
16.8800,1.148
16.9200,1.227
16.9600,1.195
17.0000,1.181
17.0400,1.133
17.0800,1.155
17.1200,1.169
17.1600,1.146
17.2000,1.147
17.2400,1.171
17.2800,1.181
17.3200,1.219
17.3600,1.160
17.4000,1.134
17.4400,1.132
17.4800,1.160
17.5200,1.191
17.5600,1.143
17.6000,1.127
17.6400,1.154
17.6800,1.162
17.7200,1.198
17.7600,1.109
17.8000,1.122
17.8400,1.149
17.8800,1.140
17.9200,1.146
17.9600,1.171
18.0000,1.209
18.0400,1.108
18.0800,1.142
18.1200,1.176
18.1600,1.130
18.2000,1.155
18.2400,1.149
18.2800,1.131
18.3200,1.157
18.3600,1.161
18.4000,1.134
18.4400,1.132
18.4800,1.169
18.5200,1.144
18.5600,1.156
18.6000,1.146
18.6400,1.169
18.6800,1.189
18.7200,1.161
18.7600,1.152
18.8000,1.129
18.8400,1.145
18.8800,1.152
18.9200,1.131
18.9600,1.113
19.0000,1.107
19.0400,1.100
19.0800,1.097
19.1200,1.138
19.1600,1.165
19.2000,1.129
19.2400,1.164
19.2800,1.107
19.3200,1.130
19.3600,1.107
19.4000,1.162
19.4400,1.104
19.4800,1.127
19.5200,1.146
19.5600,1.167
19.6000,1.153
19.6400,1.141
19.6800,1.131
19.7200,1.134
19.7600,1.120
19.8000,1.119
19.8400,1.095
19.8800,1.157
19.9200,1.089
19.9600,1.095
20.0000,1.150
20.0400,1.135
20.0800,1.125
20.1200,1.121
20.1600,1.125
20.2000,1.102
20.2400,1.131
20.2800,1.119
20.3200,1.088
20.3600,1.078
20.4000,1.076
20.4400,1.095
20.4800,1.097
20.5200,1.100
20.5600,1.128
20.6000,1.108
20.6400,1.091
20.6800,1.124
20.7200,1.099
20.7600,1.068
20.8000,1.101
20.8400,1.074
20.8800,1.112
20.9200,1.127
20.9600,1.093
21.0000,1.095
21.0400,1.100
21.0800,1.093
21.1200,1.064
21.1600,1.064
21.2000,1.109
21.2400,1.072
21.2800,1.100
21.3200,1.082
21.3600,1.069
21.4000,1.063
21.4400,1.060
21.4800,1.071
21.5200,1.070
21.5600,1.042
21.6000,1.041
21.6400,1.065
21.6800,1.082
21.7200,1.101
21.7600,1.087
21.8000,1.060
21.8400,1.064
21.8800,1.069
21.9200,1.040
21.9600,1.066
22.0000,1.044
22.0400,1.031
22.0800,1.054
22.1200,1.025
22.1600,1.016
22.2000,1.011
22.2400,1.046
22.2800,1.050
22.3200,1.045
22.3600,1.029
22.4000,1.003
22.4400,1.022
22.4800,1.020
22.5200,1.062
22.5600,1.018
22.6000,1.020
22.6400,1.011
22.6800,1.044
22.7200,1.003
22.7600,1.024
22.8000,1.003
22.8400,0.988
22.8800,0.985
22.9200,1.008
22.9600,0.972
23.0000,0.998
23.0400,0.985
23.0800,0.968
23.1200,0.960
23.1600,1.025
23.2000,0.975
23.2400,1.007
23.2800,1.008
23.3200,0.995
23.3600,0.982
23.4000,0.970
23.4400,0.958
23.4800,0.988
23.5200,0.909
23.5600,0.972
23.6000,0.955
23.6400,0.962
23.6800,0.951
23.7200,0.960
23.7600,0.936
23.8000,0.941
23.8400,0.913
23.8800,0.904
23.9200,0.934
23.9600,0.893
24.0000,0.966
24.0400,0.909
24.0800,0.964
24.1200,0.964
24.1600,0.902
24.2000,0.915
24.2400,0.946
24.2800,0.988
24.3200,0.947
24.3600,0.936
24.4000,0.904
24.4400,0.925
24.4800,0.897
24.5200,0.923
24.5600,0.914
24.6000,0.936
24.6400,0.898
24.6800,0.866
24.7200,0.908
24.7600,0.911
24.8000,0.891
24.8400,0.919
24.8800,0.876
24.9200,0.883
24.9600,0.898
25.0000,0.887
25.0400,0.867
25.0800,0.866
25.1200,0.870
25.1600,0.856
25.2000,0.872
25.2400,0.874
25.2800,0.851
25.3200,0.813
25.3600,0.851
25.4000,0.805
25.4400,0.854
25.4800,0.909
25.5200,0.820
25.5600,0.880
25.6000,0.808
25.6400,0.861
25.6800,0.861
25.7200,0.859
25.7600,0.833
25.8000,0.810
25.8400,0.808
25.8800,0.844
25.9200,0.848
25.9600,0.826
26.0000,0.848
26.0400,0.841
26.0800,0.833
26.1200,0.813
26.1600,0.816
26.2000,0.816
26.2400,0.834
26.2800,0.772
26.3200,0.784
26.3600,0.810
26.4000,0.809
26.4400,0.781
26.4800,0.812
26.5200,0.777
26.5600,0.775
26.6000,0.813
26.6400,0.801
26.6800,0.815
26.7200,0.778
26.7600,0.814
26.8000,0.764
26.8400,0.823
26.8800,0.773
26.9200,0.838
26.9600,0.775
27.0000,0.755
27.0400,0.811
27.0800,0.798
27.1200,0.782
27.1600,0.779
27.2000,0.799
27.2400,0.768
27.2800,0.767
27.3200,0.764
27.3600,0.752
27.4000,0.782
27.4400,0.772
27.4800,0.754
27.5200,0.795
27.5600,0.794
27.6000,0.765
27.6400,0.824
27.6800,0.869
27.7200,1.056
27.7600,1.732
27.8000,3.619
27.8400,5.408
27.8800,5.061
27.9200,3.645
27.9600,2.137
28.0000,1.148
28.0400,0.891
28.0800,0.853
28.1200,0.782
28.1600,0.761
28.2000,0.776
28.2400,0.761
28.2800,0.735
28.3200,0.754
28.3600,0.690
28.4000,0.715
28.4400,0.749
28.4800,0.732
28.5200,0.724
28.5600,0.701
28.6000,0.702
28.6400,0.719
28.6800,0.722
28.7200,0.733
28.7600,0.751
28.8000,0.703
28.8400,0.716
28.8800,0.714
28.9200,0.665
28.9600,0.739
29.0000,0.724
29.0400,0.713
29.0800,0.676
29.1200,0.702
29.1600,0.695
29.2000,0.688
29.2400,0.684
29.2800,0.697
29.3200,0.663
29.3600,0.688
29.4000,0.691
29.4400,0.690
29.4800,0.673
29.5200,0.698
29.5600,0.690
29.6000,0.716
29.6400,0.726
29.6800,0.668
29.7200,0.669
29.7600,0.698
29.8000,0.710
29.8400,0.676
29.8800,0.706
29.9200,0.668
29.9600,0.680
30.0000,0.682
30.0400,0.673
30.0800,0.657
30.1200,0.642
30.1600,0.662
30.2000,0.694
30.2400,0.699
30.2800,0.733
30.3200,0.847
30.3600,1.342
30.4000,2.440
30.4400,3.016
30.4800,2.664
30.5200,2.038
30.5600,1.395
30.6000,0.878
30.6400,0.716
30.6800,0.667
30.7200,0.648
30.7600,0.690
30.8000,0.657
30.8400,0.616
30.8800,0.624
30.9200,0.663
30.9600,0.655
31.0000,0.641
31.0400,0.620
31.0800,0.662
31.1200,0.668
31.1600,0.637
31.2000,0.615
31.2400,0.665
31.2800,0.630
31.3200,0.652
31.3600,0.658
31.4000,0.667
31.4400,0.656
31.4800,0.798
31.5200,1.269
31.5600,2.152
31.6000,2.570
31.6400,2.243
31.6800,1.698
31.7200,1.170
31.7600,0.797
31.8000,0.699
31.8400,0.625
31.8800,0.606
31.9200,0.619
31.9600,0.629
32.0000,0.636
32.0400,0.640
32.0800,0.627
32.1200,0.591
32.1600,0.624
32.2000,0.594
32.2400,0.633
32.2800,0.591
32.3200,0.632
32.3600,0.643
32.4000,0.622
32.4400,0.571
32.4800,0.599
32.5200,0.607
32.5600,0.562
32.6000,0.610
32.6400,0.617
32.6800,0.591
32.7200,0.612
32.7600,0.608
32.8000,0.612
32.8400,0.613
32.8800,0.586
32.9200,0.573
32.9600,0.616
33.0000,0.596
33.0400,0.571
33.0800,0.589
33.1200,0.599
33.1600,0.573
33.2000,0.578
33.2400,0.562
33.2800,0.577
33.3200,0.563
33.3600,0.574
33.4000,0.588
33.4400,0.557
33.4800,0.597
33.5200,0.568
33.5600,0.559
33.6000,0.589
33.6400,0.727
33.6800,0.759
33.7200,0.727
33.7600,0.703
33.8000,0.626
33.8400,0.627
33.8800,0.576
33.9200,0.584
33.9600,0.573
34.0000,0.562
34.0400,0.551
34.0800,0.567
34.1200,0.617
34.1600,0.580
34.2000,0.640
34.2400,0.682
34.2800,0.828
34.3200,1.553
34.3600,3.007
34.4000,3.650
34.4400,3.304
34.4800,2.708
34.5200,1.780
34.5600,1.135
34.6000,0.823
34.6400,0.756
34.6800,0.745
34.7200,0.685
34.7600,0.659
34.8000,0.610
34.8400,0.567
34.8800,0.533
34.9200,0.550
34.9600,0.516
35.0000,0.572
35.0400,0.517
35.0800,0.559
35.1200,0.553
35.1600,0.550
35.2000,0.526
35.2400,0.523
35.2800,0.542
35.3200,0.552
35.3600,0.531
35.4000,0.514
35.4400,0.515
35.4800,0.518
35.5200,0.514
35.5600,0.535
35.6000,0.514
35.6400,0.536
35.6800,0.507
35.7200,0.531
35.7600,0.506
35.8000,0.532
35.8400,0.509
35.8800,0.523
35.9200,0.507
35.9600,0.514
36.0000,0.518
36.0400,0.538
36.0800,0.515
36.1200,0.541
36.1600,0.524
36.2000,0.493
36.2400,0.528
36.2800,0.534
36.3200,0.476
36.3600,0.529
36.4000,0.473
36.4400,0.512
36.4800,0.508
36.5200,0.511
36.5600,0.471
36.6000,0.472
36.6400,0.507
36.6800,0.518
36.7200,0.501
36.7600,0.477
36.8000,0.529
36.8400,0.502
36.8800,0.491
36.9200,0.514
36.9600,0.482
37.0000,0.540
37.0400,0.506
37.0800,0.505
37.1200,0.499
37.1600,0.506
37.2000,0.506
37.2400,0.486
37.2800,0.501
37.3200,0.495
37.3600,0.465
37.4000,0.504
37.4400,0.473
37.4800,0.560
37.5200,0.636
37.5600,0.642
37.6000,0.667
37.6400,0.643
37.6800,0.608
37.7200,0.562
37.7600,0.510
37.8000,0.511
37.8400,0.505
37.8800,0.557
37.9200,0.523
37.9600,0.545
38.0000,0.557
38.0400,0.612
38.0800,0.743
38.1200,1.258
38.1600,2.583
38.2000,3.475
38.2400,3.269
38.2800,2.720
38.3200,2.139
38.3600,1.438
38.4000,0.834
38.4400,0.633
38.4800,0.547
38.5200,0.562
38.5600,0.537
38.6000,0.554
38.6400,0.521
38.6800,0.526
38.7200,0.528
38.7600,0.528
38.8000,0.546
38.8400,0.547
38.8800,0.551
38.9200,0.566
38.9600,0.569
39.0000,0.573
39.0400,0.616
39.0800,0.615
39.1200,0.762
39.1600,0.841
39.2000,1.014
39.2400,1.482
39.2800,4.004
39.3200,10.188
39.3600,15.141
39.4000,14.420
39.4400,11.903
39.4800,9.129
39.5200,5.544
39.5600,2.545
39.6000,1.144
39.6400,0.859
39.6800,0.737
39.7200,0.698
39.7600,0.620
39.8000,0.657
39.8400,0.619
39.8800,0.663
39.9200,0.649
39.9600,0.730
40.0000,0.787
40.0400,0.941
40.0800,1.567
40.1200,4.396
40.1600,9.935
40.2000,13.259
40.2400,11.688
40.2800,9.432
40.3200,7.193
40.3600,4.347
40.4000,1.954
40.4400,0.935
40.4800,0.712
40.5200,0.652
40.5600,0.584
40.6000,0.535
40.6400,0.558
40.6800,0.554
40.7200,0.483
40.7600,0.496
40.8000,0.462
40.8400,0.466
40.8800,0.488
40.9200,0.469
40.9600,0.449
41.0000,0.458
41.0400,0.486
41.0800,0.446
41.1200,0.478
41.1600,0.462
41.2000,0.423
41.2400,0.434
41.2800,0.437
41.3200,0.398
41.3600,0.459
41.4000,0.427
41.4400,0.418
41.4800,0.426
41.5200,0.391
41.5600,0.428
41.6000,0.407
41.6400,0.415
41.6800,0.409
41.7200,0.404
41.7600,0.389
41.8000,0.400
41.8400,0.436
41.8800,0.414
41.9200,0.430
41.9600,0.457
42.0000,0.418
42.0400,0.443
42.0800,0.390
42.1200,0.391
42.1600,0.409
42.2000,0.373
42.2400,0.373
42.2800,0.391
42.3200,0.361
42.3600,0.415
42.4000,0.351
42.4400,0.380
42.4800,0.359
42.5200,0.396
42.5600,0.379
42.6000,0.380
42.6400,0.355
42.6800,0.392
42.7200,0.393
42.7600,0.390
42.8000,0.376
42.8400,0.358
42.8800,0.364
42.9200,0.398
42.9600,0.375
43.0000,0.354
43.0400,0.376
43.0800,0.357
43.1200,0.376
43.1600,0.348
43.2000,0.372
43.2400,0.385
43.2800,0.367
43.3200,0.365
43.3600,0.377
43.4000,0.385
43.4400,0.379
43.4800,0.341
43.5200,0.354
43.5600,0.345
43.6000,0.368
43.6400,0.347
43.6800,0.332
43.7200,0.386
43.7600,0.382
43.8000,0.380
43.8400,0.364
43.8800,0.360
43.9200,0.355
43.9600,0.348
44.0000,0.353
44.0400,0.336
44.0800,0.363
44.1200,0.350
44.1600,0.356
44.2000,0.364
44.2400,0.388
44.2800,0.373
44.3200,0.387
44.3600,0.579
44.4000,0.763
44.4400,0.852
44.4800,0.810
44.5200,0.690
44.5600,0.613
44.6000,0.523
44.6400,0.428
44.6800,0.391
44.7200,0.352
44.7600,0.360
44.8000,0.367
44.8400,0.364
44.8800,0.415
44.9200,0.528
44.9600,0.811
45.0000,1.010
45.0400,0.945
45.0800,0.787
45.1200,0.704
45.1600,0.627
45.2000,0.491
45.2400,0.378
45.2800,0.342
45.3200,0.340
45.3600,0.339
45.4000,0.353
45.4400,0.339
45.4800,0.311
45.5200,0.327
45.5600,0.340
45.6000,0.314
45.6400,0.330
45.6800,0.335
45.7200,0.321
45.7600,0.319
45.8000,0.327
45.8400,0.329
45.8800,0.334
45.9200,0.328
45.9600,0.317
46.0000,0.306
46.0400,0.335
46.0800,0.324
46.1200,0.323
46.1600,0.328
46.2000,0.329
46.2400,0.333
46.2800,0.313
46.3200,0.328
46.3600,0.300
46.4000,0.291
46.4400,0.328
46.4800,0.304
46.5200,0.312
46.5600,0.299
46.6000,0.321
46.6400,0.332
46.6800,0.352
46.7200,0.382
46.7600,0.369
46.8000,0.339
46.8400,0.347
46.8800,0.351
46.9200,0.344
46.9600,0.318
47.0000,0.288
47.0400,0.305
47.0800,0.297
47.1200,0.296
47.1600,0.312
47.2000,0.342
47.2400,0.327
47.2800,0.304
47.3200,0.318
47.3600,0.317
47.4000,0.334
47.4400,0.324
47.4800,0.404
47.5200,0.497
47.5600,0.630
47.6000,0.602
47.6400,0.529
47.6800,0.474
47.7200,0.441
47.7600,0.398
47.8000,0.330
47.8400,0.306
47.8800,0.319
47.9200,0.313
47.9600,0.299
48.0000,0.311
48.0400,0.302
48.0800,0.301
48.1200,0.306
48.1600,0.306
48.2000,0.296
48.2400,0.297
48.2800,0.322
48.3200,0.293
48.3600,0.271
48.4000,0.298
48.4400,0.297
48.4800,0.288
48.5200,0.291
48.5600,0.280
48.6000,0.301
48.6400,0.297
48.6800,0.276
48.7200,0.300
48.7600,0.262
48.8000,0.296
48.8400,0.295
48.8800,0.277
48.9200,0.284
48.9600,0.272
49.0000,0.263
49.0400,0.278
49.0800,0.283
49.1200,0.298
49.1600,0.297
49.2000,0.289
49.2400,0.288
49.2800,0.293
49.3200,0.277
49.3600,0.278
49.4000,0.295
49.4400,0.283
49.4800,0.328
49.5200,0.355
49.5600,0.544
49.6000,0.613
49.6400,0.582
49.6800,0.499
49.7200,0.471
49.7600,0.455
49.8000,0.389
49.8400,0.330
49.8800,0.320
49.9200,0.283
49.9600,0.282
50.0000,0.286
50.0400,0.285
50.0800,0.272
50.1200,0.263
50.1600,0.284
50.2000,0.270
50.2400,0.262
50.2800,0.267
50.3200,0.280
50.3600,0.278
50.4000,0.271
50.4400,0.271
50.4800,0.290
50.5200,0.270
50.5600,0.252
50.6000,0.282
50.6400,0.284
50.6800,0.271
50.7200,0.263
50.7600,0.251
50.8000,0.259
50.8400,0.238
50.8800,0.242
50.9200,0.282
50.9600,0.268
51.0000,0.250
51.0400,0.264
51.0800,0.276
51.1200,0.278
51.1600,0.331
51.2000,0.375
51.2400,0.377
51.2800,0.360
51.3200,0.372
51.3600,0.351
51.4000,0.328
51.4400,0.304
51.4800,0.280
51.5200,0.280
51.5600,0.275
51.6000,0.254
51.6400,0.261
51.6800,0.272
51.7200,0.244
51.7600,0.279
51.8000,0.292
51.8400,0.310
51.8800,0.348
51.9200,0.544
51.9600,0.945
52.0000,1.125
52.0400,0.947
52.0800,0.799
52.1200,0.738
52.1600,0.705
52.2000,0.530
52.2400,0.337
52.2800,0.284
52.3200,0.307
52.3600,0.296
52.4000,0.279
52.4400,0.266
52.4800,0.261
52.5200,0.256
52.5600,0.257
52.6000,0.258
52.6400,0.241
52.6800,0.262
52.7200,0.253
52.7600,0.258
52.8000,0.260
52.8400,0.241
52.8800,0.252
52.9200,0.258
52.9600,0.241
53.0000,0.259
53.0400,0.252
53.0800,0.271
53.1200,0.244
53.1600,0.261
53.2000,0.255
53.2400,0.263
53.2800,0.262
53.3200,0.296
53.3600,0.388
53.4000,0.471
53.4400,0.479
53.4800,0.406
53.5200,0.410
53.5600,0.390
53.6000,0.386
53.6400,0.320
53.6800,0.276
53.7200,0.290
53.7600,0.267
53.8000,0.317
53.8400,0.403
53.8800,0.617
53.9200,0.811
53.9600,0.924
54.0000,0.934
54.0400,0.821
54.0800,0.726
54.1200,0.669
54.1600,0.537
54.2000,0.425
54.2400,0.338
54.2800,0.266
54.3200,0.245
54.3600,0.244
54.4000,0.260
54.4400,0.246
54.4800,0.258
54.5200,0.234
54.5600,0.238
54.6000,0.251
54.6400,0.258
54.6800,0.238
54.7200,0.244
54.7600,0.238
54.8000,0.245
54.8400,0.239
54.8800,0.241
54.9200,0.235
54.9600,0.242
55.0000,0.230
55.0400,0.235
55.0800,0.259
55.1200,0.252
55.1600,0.242
55.2000,0.231
55.2400,0.262
55.2800,0.215
55.3200,0.235
55.3600,0.247
55.4000,0.230
55.4400,0.233
55.4800,0.227
55.5200,0.218
55.5600,0.219
55.6000,0.232
55.6400,0.239
55.6800,0.249
55.7200,0.235
55.7600,0.224
55.8000,0.234
55.8400,0.245
55.8800,0.238
55.9200,0.214
55.9600,0.238
56.0000,0.219
56.0400,0.254
56.0800,0.249
56.1200,0.257
56.1600,0.248
56.2000,0.245
56.2400,0.242
56.2800,0.234
56.3200,0.248
56.3600,0.233
56.4000,0.270
56.4400,0.256
56.4800,0.276
56.5200,0.307
56.5600,0.406
56.6000,0.733
56.6400,1.074
56.6800,0.991
56.7200,0.806
56.7600,0.656
56.8000,0.672
56.8400,0.620
56.8800,0.495
56.9200,0.319
56.9600,0.300
57.0000,0.280
57.0400,0.261
57.0800,0.270
57.1200,0.246
57.1600,0.261
57.2000,0.266
57.2400,0.288
57.2800,0.319
57.3200,0.313
57.3600,0.340
57.4000,0.469
57.4400,1.017
57.4800,2.166
57.5200,2.845
57.5600,2.420
57.6000,1.720
57.6400,1.591
57.6800,1.661
57.7200,1.352
57.7600,0.839
57.8000,0.457
57.8400,0.273
57.8800,0.329
57.9200,0.298
57.9600,0.329
58.0000,0.436
58.0400,0.618
58.0800,0.659
58.1200,0.588
58.1600,0.469
58.2000,0.476
58.2400,0.470
58.2800,0.380
58.3200,0.305
58.3600,0.232
58.4000,0.226
58.4400,0.244
58.4800,0.246
58.5200,0.238
58.5600,0.226
58.6000,0.257
58.6400,0.253
58.6800,0.240
58.7200,0.224
58.7600,0.232
58.8000,0.230
58.8400,0.206
58.8800,0.231
58.9200,0.234
58.9600,0.235
59.0000,0.244
59.0400,0.226
59.0800,0.220
59.1200,0.245
59.1600,0.236
59.2000,0.232
59.2400,0.211
59.2800,0.228
59.3200,0.236
59.3600,0.277
59.4000,0.371
59.4400,0.547
59.4800,0.594
59.5200,0.504
59.5600,0.424
59.6000,0.421
59.6400,0.414
59.6800,0.361
59.7200,0.313
59.7600,0.226
59.8000,0.243
59.8400,0.231
59.8800,0.234
59.9200,0.205
59.9600,0.211
60.0000,0.222
60.0400,0.230
60.0800,0.212
60.1200,0.221
60.1600,0.227
60.2000,0.217
60.2400,0.245
60.2800,0.233
60.3200,0.231
60.3600,0.227
60.4000,0.226
60.4400,0.224
60.4800,0.243
60.5200,0.265
60.5600,0.282
60.6000,0.338
60.6400,0.596
60.6800,0.722
60.7200,0.679
60.7600,0.524
60.8000,0.473
60.8400,0.489
60.8800,0.477
60.9200,0.371
60.9600,0.286
61.0000,0.262
61.0400,0.238
61.0800,0.229
61.1200,0.255
61.1600,0.248
61.2000,0.235
61.2400,0.248
61.2800,0.251
61.3200,0.241
61.3600,0.337
61.4000,0.496
61.4400,0.588
61.4800,0.562
61.5200,0.432
61.5600,0.385
61.6000,0.415
61.6400,0.406
61.6800,0.359
61.7200,0.282
61.7600,0.248
61.8000,0.276
61.8400,0.387
61.8800,0.492
61.9200,0.507
61.9600,0.441
62.0000,0.450
62.0400,0.528
62.0800,0.543
62.1200,0.446
62.1600,0.354
62.2000,0.323
62.2400,0.319
62.2800,0.282
62.3200,0.252
62.3600,0.221
62.4000,0.233
62.4400,0.222
62.4800,0.225
62.5200,0.210
62.5600,0.226
62.6000,0.230
62.6400,0.227
62.6800,0.239
62.7200,0.217
62.7600,0.231
62.8000,0.216
62.8400,0.222
62.8800,0.209
62.9200,0.204
62.9600,0.215
63.0000,0.211
63.0400,0.223
63.0800,0.215
63.1200,0.214
63.1600,0.211
63.2000,0.230
63.2400,0.217
63.2800,0.224
63.3200,0.232
63.3600,0.244
63.4000,0.235
63.4400,0.215
63.4800,0.262
63.5200,0.234
63.5600,0.223
63.6000,0.214
63.6400,0.212
63.6800,0.220
63.7200,0.221
63.7600,0.201
63.8000,0.227
63.8400,0.244
63.8800,0.220
63.9200,0.223
63.9600,0.201
64.0000,0.239
64.0400,0.226
64.0800,0.240
64.1200,0.230
64.1600,0.209
64.2000,0.231
64.2400,0.226
64.2800,0.225
64.3200,0.208
64.3600,0.223
64.4000,0.220
64.4400,0.246
64.4800,0.220
64.5200,0.227
64.5600,0.240
64.6000,0.238
64.6400,0.231
64.6800,0.213
64.7200,0.231
64.7600,0.251
64.8000,0.229
64.8400,0.228
64.8800,0.231
64.9200,0.240
64.9600,0.234
65.0000,0.222
65.0400,0.239
65.0800,0.262
65.1200,0.241
65.1600,0.234
65.2000,0.253
65.2400,0.246
65.2800,0.236
65.3200,0.248
65.3600,0.234
65.4000,0.257
65.4400,0.271
65.4800,0.257
65.5200,0.286
65.5600,0.274
65.6000,0.279
65.6400,0.300
65.6800,0.361
65.7200,0.410
65.7600,0.413
65.8000,0.389
65.8400,0.411
65.8800,0.632
65.9200,1.001
65.9600,1.106
66.0000,0.989
66.0400,0.693
66.0800,0.585
66.1200,0.645
66.1600,0.705
66.2000,0.579
66.2400,0.421
66.2800,0.325
66.3200,0.318
66.3600,0.306
66.4000,0.304
66.4400,0.292
66.4800,0.294
66.5200,0.291
66.5600,0.295
66.6000,0.329
66.6400,0.293
66.6800,0.319
66.7200,0.334
66.7600,0.342
66.8000,0.308
66.8400,0.331
66.8800,0.332
66.9200,0.296
66.9600,0.308
67.0000,0.320
67.0400,0.312
67.0800,0.324
67.1200,0.324
67.1600,0.346
67.2000,0.352
67.2400,0.353
67.2800,0.347
67.3200,0.343
67.3600,0.372
67.4000,0.371
67.4400,0.393
67.4800,0.367
67.5200,0.371
67.5600,0.361
67.6000,0.400
67.6400,0.406
67.6800,0.354
67.7200,0.406
67.7600,0.411
67.8000,0.411
67.8400,0.422
67.8800,0.373
67.9200,0.452
67.9600,0.443
68.0000,0.450
68.0400,0.462
68.0800,0.453
68.1200,0.460
68.1600,0.464
68.2000,0.473
68.2400,0.473
68.2800,0.490
68.3200,0.531
68.3600,0.514
68.4000,0.550
68.4400,0.556
68.4800,0.575
68.5200,0.611
68.5600,0.636
68.6000,0.647
68.6400,0.763
68.6800,0.808
68.7200,0.989
68.7600,1.138
68.8000,1.345
68.8400,1.523
68.8800,1.735
68.9200,1.969
68.9600,2.403
69.0000,3.837
69.0400,11.163
69.0800,36.816
69.1200,58.822
69.1600,57.211
69.2000,42.427
69.2400,20.671
69.2800,22.980
69.3200,31.976
69.3600,30.927
69.4000,21.904
69.4400,8.531
69.4800,3.248
69.5200,2.223
69.5600,1.788
69.6000,1.482
69.6400,1.141
69.6800,0.964
69.7200,0.869
69.7600,0.842
69.8000,0.739
69.8400,0.731
69.8800,0.689
69.9200,0.674
69.9600,0.662
70.0000,0.575
70.0400,0.597
70.0800,0.562
70.1200,0.542
70.1600,0.559
70.2000,0.547
70.2400,0.537
70.2800,0.520
70.3200,0.498
70.3600,0.474
70.4000,0.491
70.4400,0.459
70.4800,0.455
70.5200,0.430
70.5600,0.451
70.6000,0.429
70.6400,0.418
70.6800,0.436
70.7200,0.430
70.7600,0.392
70.8000,0.417
70.8400,0.390
70.8800,0.396
70.9200,0.381
70.9600,0.358
71.0000,0.382
71.0400,0.348
71.0800,0.373
71.1200,0.365
71.1600,0.359
71.2000,0.381
71.2400,0.387
71.2800,0.447
71.3200,0.427
71.3600,0.410
71.4000,0.373
71.4400,0.358
71.4800,0.362
71.5200,0.393
71.5600,0.362
71.6000,0.353
71.6400,0.322
71.6800,0.327
71.7200,0.284
71.7600,0.290
71.8000,0.307
71.8400,0.299
71.8800,0.308
71.9200,0.271
71.9600,0.295
72.0000,0.299
72.0400,0.292
72.0800,0.321
72.1200,0.331
72.1600,0.327
72.2000,0.345
72.2400,0.318
72.2800,0.351
72.3200,0.362
72.3600,0.446
72.4000,0.836
72.4400,1.660
72.4800,2.397
72.5200,2.339
72.5600,1.656
72.6000,1.002
72.6400,1.017
72.6800,1.335
72.7200,1.378
72.7600,1.096
72.8000,0.652
72.8400,0.407
72.8800,0.389
72.9200,0.400
72.9600,0.562
73.0000,0.847
73.0400,1.112
73.0800,1.000
73.1200,0.768
73.1600,0.534
73.2000,0.550
73.2400,0.659
73.2800,0.684
73.3200,0.542
73.3600,0.361
73.4000,0.302
73.4400,0.271
73.4800,0.252
73.5200,0.249
73.5600,0.235
73.6000,0.231
73.6400,0.249
73.6800,0.242
73.7200,0.240
73.7600,0.235
73.8000,0.242
73.8400,0.251
73.8800,0.234
73.9200,0.222
73.9600,0.233
74.0000,0.217
74.0400,0.228
74.0800,0.223
74.1200,0.253
74.1600,0.271
74.2000,0.319
74.2400,0.354
74.2800,0.363
74.3200,0.369
74.3600,0.396
74.4000,0.382
74.4400,0.351
74.4800,0.310
74.5200,0.291
74.5600,0.293
74.6000,0.296
74.6400,0.265
74.6800,0.232
74.7200,0.209
74.7600,0.227
74.8000,0.223
74.8400,0.212
74.8800,0.226
74.9200,0.215
74.9600,0.209
75.0000,0.232
75.0400,0.191
75.0800,0.213
75.1200,0.232
75.1600,0.233
75.2000,0.239
75.2400,0.322
75.2800,0.428
75.3200,0.467
75.3600,0.476
75.4000,0.316
75.4400,0.300
75.4800,0.305
75.5200,0.335
75.5600,0.334
75.6000,0.289
75.6400,0.250
75.6800,0.207
75.7200,0.226
75.7600,0.212
75.8000,0.224
75.8400,0.211
75.8800,0.190
75.9200,0.190
75.9600,0.203
76.0000,0.226
76.0400,0.227
76.0800,0.202
76.1200,0.201
76.1600,0.207
76.2000,0.204
76.2400,0.219
76.2800,0.220
76.3200,0.240
76.3600,0.344
76.4000,0.447
76.4400,0.393
76.4800,0.353
76.5200,0.285
76.5600,0.264
76.6000,0.320
76.6400,0.330
76.6800,0.295
76.7200,0.282
76.7600,0.234
76.8000,0.221
76.8400,0.190
76.8800,0.205
76.9200,0.200
76.9600,0.207
77.0000,0.171
77.0400,0.172
77.0800,0.177
77.1200,0.172
77.1600,0.193
77.2000,0.164
77.2400,0.176
77.2800,0.186
77.3200,0.186
77.3600,0.178
77.4000,0.156
77.4400,0.185
77.4800,0.194
77.5200,0.201
77.5600,0.183
77.6000,0.196
77.6400,0.181
77.6800,0.162
77.7200,0.199
77.7600,0.177
77.8000,0.184
77.8400,0.175
77.8800,0.189
77.9200,0.185
77.9600,0.183
78.0000,0.167
78.0400,0.177
78.0800,0.188
78.1200,0.172
78.1600,0.177
78.2000,0.176
78.2400,0.184
78.2800,0.197
78.3200,0.178
78.3600,0.178
78.4000,0.202
78.4400,0.200
78.4800,0.190
78.5200,0.212
78.5600,0.223
78.6000,0.230
78.6400,0.371
78.6800,0.622
78.7200,0.868
78.7600,0.842
78.8000,0.611
78.8400,0.381
78.8800,0.322
78.9200,0.449
78.9600,0.543
79.0000,0.538
79.0400,0.402
79.0800,0.271
79.1200,0.239
79.1600,0.218
79.2000,0.206
79.2400,0.186
79.2800,0.187
79.3200,0.188
79.3600,0.185
79.4000,0.184
79.4400,0.179
79.4800,0.177
79.5200,0.188
79.5600,0.201
79.6000,0.195
79.6400,0.198
79.6800,0.192
79.7200,0.196
79.7600,0.193
79.8000,0.192
79.8400,0.229
79.8800,0.269
79.9200,0.309
79.9600,0.326
80.0000,0.379
