theta,intensity
5.0000,13.835
5.0400,13.619
5.0800,13.405
5.1200,13.525
5.1600,13.460
5.2000,13.603
5.2400,13.412
5.2800,13.264
5.3200,12.871
5.3600,12.884
5.4000,12.614
5.4400,12.474
5.4800,12.023
5.5200,11.767
5.5600,11.913
5.6000,11.815
5.6400,11.571
5.6800,11.264
5.7200,11.158
5.7600,11.097
5.8000,10.722
5.8400,10.844
5.8800,10.722
5.9200,10.274
5.9600,10.207
6.0000,10.015
6.0400,10.134
6.0800,9.657
6.1200,9.393
6.1600,9.523
6.2000,9.331
6.2400,9.045
6.2800,9.195
6.3200,9.016
6.3600,8.695
6.4000,8.731
6.4400,8.553
6.4800,8.565
6.5200,8.353
6.5600,8.290
6.6000,7.888
6.6400,7.963
6.6800,7.903
6.7200,7.832
6.7600,7.656
6.8000,7.888
6.8400,7.516
6.8800,7.523
6.9200,7.607
6.9600,7.006
7.0000,6.904
7.0400,7.028
7.0800,7.158
7.1200,6.706
7.1600,6.817
7.2000,6.603
7.2400,6.619
7.2800,6.438
7.3200,6.178
7.3600,6.102
7.4000,6.200
7.4400,6.104
7.4800,6.067
7.5200,5.875
7.5600,5.946
7.6000,5.760
7.6400,5.801
7.6800,5.585
7.7200,5.463
7.7600,5.693
7.8000,5.534
7.8400,5.530
7.8800,5.505
7.9200,5.323
7.9600,5.397
8.0000,5.108
8.0400,5.282
8.0800,5.198
8.1200,5.037
8.1600,5.238
8.2000,4.757
8.2400,4.996
8.2800,5.016
8.3200,5.164
8.3600,4.877
8.4000,4.948
8.4400,4.888
8.4800,4.750
8.5200,4.787
8.5600,4.661
8.6000,4.510
8.6400,4.549
8.6800,4.654
8.7200,4.625
8.7600,4.366
8.8000,4.476
8.8400,4.395
8.8800,4.530
8.9200,4.269
8.9600,4.221
9.0000,4.222
9.0400,4.363
9.0800,4.237
9.1200,4.151
9.1600,4.173
9.2000,4.110
9.2400,4.108
9.2800,4.146
9.3200,4.155
9.3600,4.095
9.4000,4.203
9.4400,4.016
9.4800,4.004
9.5200,3.978
9.5600,3.886
9.6000,3.983
9.6400,3.810
9.6800,3.912
9.7200,3.996
9.7600,3.918
9.8000,3.901
9.8400,3.843
9.8800,3.961
9.9200,3.737
9.9600,3.759
10.0000,3.932
10.0400,3.894
10.0800,3.728
10.1200,3.941
10.1600,3.794
10.2000,3.728
10.2400,3.833
10.2800,3.804
10.3200,3.816
10.3600,3.845
10.4000,3.742
10.4400,3.724
10.4800,3.719
10.5200,3.846
10.5600,3.675
10.6000,3.808
10.6400,3.888
10.6800,3.609
10.7200,3.703
10.7600,3.643
10.8000,3.774
10.8400,3.782
10.8800,3.696
10.9200,3.684
10.9600,3.566
11.0000,3.716
11.0400,3.695
11.0800,3.635
11.1200,3.844
11.1600,3.581
11.2000,3.693
11.2400,3.693
11.2800,3.662
11.3200,3.501
11.3600,3.534
11.4000,3.568
11.4400,3.726
11.4800,3.477
11.5200,3.730
11.5600,3.649
11.6000,3.674
11.6400,3.451
11.6800,3.549
11.7200,3.592
11.7600,3.523
11.8000,3.581
11.8400,3.509
11.8800,3.497
11.9200,3.651
11.9600,3.536
12.0000,3.566
12.0400,3.582
12.0800,3.508
12.1200,3.382
12.1600,3.530
12.2000,3.565
12.2400,3.606
12.2800,3.525
12.3200,3.630
12.3600,3.479
12.4000,3.382
12.4400,3.495
12.4800,3.324
12.5200,3.522
12.5600,3.449
12.6000,3.628
12.6400,3.519
12.6800,3.470
12.7200,3.369
12.7600,3.387
12.8000,3.392
12.8400,3.469
12.8800,3.455
12.9200,3.454
12.9600,3.513
13.0000,3.431
13.0400,3.390
13.0800,3.264
13.1200,3.378
13.1600,3.472
13.2000,3.522
13.2400,3.548
13.2800,3.385
13.3200,3.334
13.3600,3.451
13.4000,3.281
13.4400,3.371
13.4800,3.206
13.5200,3.415
13.5600,3.334
13.6000,3.385
13.6400,3.375
13.6800,3.468
13.7200,3.376
13.7600,3.511
13.8000,3.359
13.8400,3.286
13.8800,3.273
13.9200,3.441
13.9600,3.510
14.0000,3.395
14.0400,3.379
14.0800,3.378
14.1200,3.207
14.1600,3.357
14.2000,3.286
14.2400,3.312
14.2800,3.322
14.3200,3.306
14.3600,3.201
14.4000,3.313
14.4400,3.316
14.4800,3.339
14.5200,3.307
14.5600,3.198
14.6000,3.281
14.6400,3.270
14.6800,3.379
14.7200,3.307
14.7600,3.307
14.8000,3.220
14.8400,3.253
14.8800,3.306
14.9200,3.310
14.9600,3.268
15.0000,3.239
15.0400,3.241
15.0800,3.122
15.1200,3.199
15.1600,3.274
15.2000,3.099
15.2400,3.335
15.2800,3.245
15.3200,3.280
15.3600,3.095
15.4000,3.248
15.4400,3.185
15.4800,3.091
15.5200,3.119
15.5600,3.201
15.6000,3.204
15.6400,3.146
15.6800,3.199
15.7200,3.252
15.7600,3.269
15.8000,3.207
15.8400,3.150
15.8800,3.211
15.9200,3.310
15.9600,3.072
16.0000,3.243
16.0400,3.154
16.0800,3.071
16.1200,3.121
16.1600,3.173
16.2000,3.148
16.2400,3.149
16.2800,3.149
16.3200,3.174
16.3600,3.183
16.4000,3.116
16.4400,3.211
16.4800,3.154
16.5200,3.015
16.5600,3.180
16.6000,3.099
16.6400,3.013
16.6800,2.934
16.7200,3.135
16.7600,3.054
16.8000,3.095
16.8400,3.124
16.8800,2.960
16.9200,3.047
16.9600,3.260
17.0000,3.054
17.0400,3.048
17.0800,3.123
17.1200,3.110
17.1600,3.088
17.2000,2.981
17.2400,3.173
17.2800,3.051
17.3200,3.095
17.3600,3.067
17.4000,2.950
17.4400,3.011
17.4800,3.075
17.5200,3.166
17.5600,2.940
17.6000,2.907
17.6400,3.051
17.6800,3.034
17.7200,2.976
17.7600,3.079
17.8000,3.083
17.8400,2.977
17.8800,3.000
17.9200,3.090
17.9600,2.902
18.0000,3.024
18.0400,2.971
18.0800,2.892
18.1200,2.920
18.1600,2.915
18.2000,3.009
18.2400,2.921
18.2800,2.998
18.3200,2.959
18.3600,3.037
18.4000,2.924
18.4400,2.860
18.4800,2.986
18.5200,3.008
18.5600,2.937
18.6000,2.980
18.6400,2.889
18.6800,2.922
18.7200,2.856
18.7600,2.856
18.8000,2.804
18.8400,2.827
18.8800,2.945
18.9200,2.903
18.9600,2.911
19.0000,2.821
19.0400,2.713
19.0800,2.860
19.1200,2.841
19.1600,2.763
19.2000,2.932
19.2400,2.848
19.2800,2.805
19.3200,2.750
19.3600,2.767
19.4000,2.735
19.4400,2.817
19.4800,2.913
19.5200,2.941
19.5600,2.831
19.6000,2.752
19.6400,2.697
19.6800,2.770
19.7200,2.759
19.7600,2.783
19.8000,2.758
19.8400,2.860
19.8800,2.899
19.9200,2.867
19.9600,2.718
20.0000,2.765
20.0400,2.817
20.0800,2.815
20.1200,2.800
20.1600,2.752
20.2000,2.764
20.2400,2.707
20.2800,2.821
20.3200,2.622
20.3600,2.699
20.4000,2.721
20.4400,2.730
20.4800,2.862
20.5200,2.784
20.5600,2.785
20.6000,2.804
20.6400,2.757
20.6800,2.743
20.7200,2.744
20.7600,2.819
20.8000,2.888
20.8400,2.799
20.8800,2.763
20.9200,2.717
20.9600,2.636
21.0000,2.758
21.0400,2.733
21.0800,2.689
21.1200,2.728
21.1600,2.811
21.2000,2.653
21.2400,2.711
21.2800,2.651
21.3200,2.615
21.3600,2.678
21.4000,2.558
21.4400,2.680
21.4800,2.605
21.5200,2.561
21.5600,2.657
21.6000,2.690
21.6400,2.648
21.6800,2.509
21.7200,2.559
21.7600,2.542
21.8000,2.595
21.8400,2.534
21.8800,2.676
21.9200,2.617
21.9600,2.562
22.0000,2.709
22.0400,2.569
22.0800,2.551
22.1200,2.554
22.1600,2.614
22.2000,2.552
22.2400,2.590
22.2800,2.524
22.3200,2.558
22.3600,2.605
22.4000,2.617
22.4400,2.699
22.4800,2.601
22.5200,2.416
22.5600,2.517
22.6000,2.668
22.6400,2.709
22.6800,2.603
22.7200,2.640
22.7600,2.588
22.8000,2.513
22.8400,2.453
22.8800,2.622
22.9200,2.460
22.9600,2.571
23.0000,2.493
23.0400,2.562
23.0800,2.477
23.1200,2.643
23.1600,2.595
23.2000,2.589
23.2400,2.413
23.2800,2.508
23.3200,2.401
23.3600,2.421
23.4000,2.536
23.4400,2.619
23.4800,2.571
23.5200,2.524
23.5600,2.526
23.6000,2.444
23.6400,2.572
23.6800,2.491
23.7200,2.418
23.7600,2.607
23.8000,2.438
23.8400,2.457
23.8800,2.660
23.9200,2.517
23.9600,2.515
24.0000,2.464
24.0400,2.503
24.0800,2.420
24.1200,2.504
24.1600,2.536
24.2000,2.612
24.2400,2.555
24.2800,2.492
24.3200,2.442
24.3600,2.567
24.4000,2.598
24.4400,2.623
24.4800,2.553
24.5200,2.428
24.5600,2.457
24.6000,2.487
24.6400,2.480
24.6800,2.586
24.7200,2.522
24.7600,2.565
24.8000,2.660
24.8400,2.476
24.8800,2.420
24.9200,2.525
24.9600,2.482
25.0000,2.581
25.0400,2.507
25.0800,2.374
25.1200,2.418
25.1600,2.295
25.2000,2.520
25.2400,2.497
25.2800,2.433
25.3200,2.419
25.3600,2.520
25.4000,2.459
25.4400,2.432
25.4800,2.354
25.5200,2.346
25.5600,2.536
25.6000,2.503
25.6400,2.371
25.6800,2.339
25.7200,2.361
25.7600,2.415
25.8000,2.474
25.8400,2.396
25.8800,2.378
25.9200,2.372
25.9600,2.320
26.0000,2.359
26.0400,2.274
26.0800,2.446
26.1200,2.253
26.1600,2.396
26.2000,2.456
26.2400,2.267
26.2800,2.224
26.3200,2.388
26.3600,2.396
26.4000,2.270
26.4400,2.332
26.4800,2.340
26.5200,2.341
26.5600,2.326
26.6000,2.311
26.6400,2.362
26.6800,2.383
26.7200,2.209
26.7600,2.292
26.8000,2.390
26.8400,2.379
26.8800,2.320
26.9200,2.244
26.9600,2.320
27.0000,2.325
27.0400,2.317
27.0800,2.279
27.1200,2.247
27.1600,2.250
27.2000,2.288
27.2400,2.268
27.2800,2.428
27.3200,2.346
27.3600,2.182
27.4000,2.307
27.4400,2.275
27.4800,2.237
27.5200,2.376
27.5600,2.319
27.6000,2.207
27.6400,2.235
27.6800,2.257
27.7200,2.343
27.7600,2.396
27.8000,2.398
27.8400,2.408
27.8800,2.285
27.9200,2.216
27.9600,2.270
28.0000,2.352
28.0400,2.319
28.0800,2.304
28.1200,2.282
28.1600,2.441
28.2000,2.369
28.2400,2.267
28.2800,2.430
28.3200,2.296
28.3600,2.388
28.4000,2.406
28.4400,2.298
28.4800,2.382
28.5200,2.318
28.5600,2.192
28.6000,2.340
28.6400,2.266
28.6800,2.200
28.7200,2.309
28.7600,2.334
28.8000,2.286
28.8400,2.362
28.8800,2.327
28.9200,2.298
28.9600,2.349
29.0000,2.200
29.0400,2.226
29.0800,2.262
29.1200,2.337
29.1600,2.305
29.2000,2.224
29.2400,2.341
29.2800,2.296
29.3200,2.318
29.3600,2.330
29.4000,2.456
29.4400,2.336
29.4800,2.367
29.5200,2.510
29.5600,2.315
29.6000,2.334
29.6400,2.279
29.6800,2.286
29.7200,2.369
29.7600,2.304
29.8000,2.187
29.8400,2.249
29.8800,2.299
29.9200,2.205
29.9600,2.153
30.0000,2.178
30.0400,2.363
30.0800,2.155
30.1200,2.195
30.1600,2.232
30.2000,2.165
30.2400,2.102
30.2800,2.090
30.3200,2.057
30.3600,2.083
30.4000,1.993
30.4400,1.993
30.4800,2.031
30.5200,1.906
30.5600,1.928
30.6000,1.858
30.6400,2.058
30.6800,2.038
30.7200,2.017
30.7600,1.956
30.8000,1.923
30.8400,1.971
30.8800,1.967
30.9200,1.912
30.9600,1.947
31.0000,1.848
31.0400,1.896
31.0800,1.926
31.1200,1.937
31.1600,1.850
31.2000,1.925
31.2400,1.832
31.2800,1.866
31.3200,1.871
31.3600,1.896
31.4000,1.955
31.4400,1.934
31.4800,1.854
31.5200,1.752
31.5600,1.886
31.6000,2.005
31.6400,1.781
31.6800,1.957
31.7200,1.943
31.7600,1.828
31.8000,1.805
31.8400,1.905
31.8800,1.827
31.9200,1.824
31.9600,1.849
32.0000,1.812
32.0400,1.842
32.0800,1.738
32.1200,1.730
32.1600,1.678
32.2000,1.707
32.2400,1.856
32.2800,1.825
32.3200,1.732
32.3600,1.829
32.4000,1.765
32.4400,1.832
32.4800,1.744
32.5200,1.860
32.5600,1.774
32.6000,1.814
32.6400,1.776
32.6800,1.767
32.7200,1.732
32.7600,1.805
32.8000,1.768
32.8400,1.883
32.8800,1.760
32.9200,1.811
32.9600,1.707
33.0000,1.813
33.0400,1.718
33.0800,1.771
33.1200,1.697
33.1600,1.668
33.2000,1.778
33.2400,1.774
33.2800,1.683
33.3200,1.685
33.3600,1.810
33.4000,1.700
33.4400,1.795
33.4800,1.613
33.5200,1.578
33.5600,1.647
33.6000,1.741
33.6400,1.755
33.6800,1.709
33.7200,1.680
33.7600,1.856
33.8000,1.748
33.8400,1.751
33.8800,1.740
33.9200,1.654
33.9600,1.647
34.0000,1.726
34.0400,1.739
34.0800,1.724
34.1200,1.766
34.1600,1.703
34.2000,1.619
34.2400,1.687
34.2800,1.664
34.3200,1.681
34.3600,1.632
34.4000,1.750
34.4400,1.625
34.4800,1.688
34.5200,1.655
34.5600,1.824
34.6000,1.733
34.6400,1.557
34.6800,1.630
34.7200,1.675
34.7600,1.727
34.8000,1.667
34.8400,1.527
34.8800,1.668
34.9200,1.617
34.9600,1.689
35.0000,1.600
35.0400,1.691
35.0800,1.571
35.1200,1.566
35.1600,1.544
35.2000,1.636
35.2400,1.664
35.2800,1.689
35.3200,1.668
35.3600,1.629
35.4000,1.599
35.4400,1.662
35.4800,1.622
35.5200,1.605
35.5600,1.553
35.6000,1.610
35.6400,1.643
35.6800,1.627
35.7200,1.559
35.7600,1.525
35.8000,1.640
35.8400,1.403
35.8800,1.596
35.9200,1.514
35.9600,1.553
36.0000,1.560
36.0400,1.502
36.0800,1.536
36.1200,1.538
36.1600,1.501
36.2000,1.674
36.2400,1.638
36.2800,1.576
36.3200,1.517
36.3600,1.661
36.4000,1.534
36.4400,1.600
36.4800,1.553
36.5200,1.493
36.5600,1.476
36.6000,1.500
36.6400,1.567
36.6800,1.483
36.7200,1.567
36.7600,1.555
36.8000,1.584
36.8400,1.655
36.8800,1.472
36.9200,1.543
36.9600,1.609
37.0000,1.564
37.0400,1.580
37.0800,1.585
37.1200,1.575
37.1600,1.500
37.2000,1.528
37.2400,1.585
37.2800,1.493
37.3200,1.524
37.3600,1.511
37.4000,1.526
37.4400,1.517
37.4800,1.555
37.5200,1.526
37.5600,1.555
37.6000,1.524
37.6400,1.575
37.6800,1.486
37.7200,1.580
37.7600,1.574
37.8000,1.670
37.8400,1.531
37.8800,1.634
37.9200,1.596
37.9600,1.635
38.0000,1.790
38.0400,1.719
38.0800,1.798
38.1200,1.760
38.1600,1.889
38.2000,2.006
38.2400,1.967
38.2800,2.097
38.3200,2.262
38.3600,2.368
38.4000,2.690
38.4400,2.807
38.4800,2.933
38.5200,2.856
38.5600,3.141
38.6000,3.212
38.6400,3.230
38.6800,3.423
38.7200,3.746
38.7600,3.869
38.8000,3.898
38.8400,4.248
38.8800,4.227
38.9200,4.343
38.9600,4.356
39.0000,4.511
39.0400,4.441
39.0800,4.506
39.1200,4.528
39.1600,4.391
39.2000,4.243
39.2400,4.348
39.2800,4.132
39.3200,4.028
39.3600,3.897
39.4000,3.744
39.4400,3.641
39.4800,3.647
39.5200,3.446
39.5600,3.447
39.6000,3.215
39.6400,3.270
39.6800,3.128
39.7200,3.109
39.7600,3.020
39.8000,2.974
39.8400,3.006
39.8800,2.937
39.9200,2.973
39.9600,2.893
40.0000,2.896
40.0400,2.873
40.0800,2.818
40.1200,2.919
40.1600,2.681
40.2000,2.799
40.2400,2.797
40.2800,2.858
40.3200,2.881
40.3600,2.822
40.4000,3.001
40.4400,2.871
40.4800,3.024
40.5200,2.980
40.5600,3.273
40.6000,3.480
40.6400,3.516
40.6800,3.435
40.7200,3.561
40.7600,3.733
40.8000,3.845
40.8400,4.173
40.8800,4.560
40.9200,4.782
40.9600,4.992
41.0000,5.176
41.0400,5.341
41.0800,5.971
41.1200,6.228
41.1600,6.465
41.2000,6.731
41.2400,6.768
41.2800,7.028
41.3200,6.946
41.3600,6.881
41.4000,6.669
41.4400,6.630
41.4800,6.323
41.5200,6.147
41.5600,5.935
41.6000,5.633
41.6400,5.405
41.6800,5.020
41.7200,4.883
41.7600,4.687
41.8000,4.480
41.8400,4.485
41.8800,4.278
41.9200,4.074
41.9600,3.989
42.0000,3.992
42.0400,3.866
42.0800,3.962
42.1200,3.943
42.1600,4.044
42.2000,4.020
42.2400,4.102
42.2800,4.106
42.3200,4.008
42.3600,3.774
42.4000,3.896
42.4400,3.848
42.4800,3.541
42.5200,3.407
42.5600,3.181
42.6000,3.016
42.6400,2.980
42.6800,2.925
42.7200,2.741
42.7600,2.688
42.8000,2.898
42.8400,2.794
42.8800,2.886
42.9200,3.036
42.9600,3.099
43.0000,3.134
43.0400,3.348
43.0800,3.605
43.1200,3.399
43.1600,2.933
43.2000,2.861
43.2400,2.266
43.2800,1.985
43.3200,1.735
43.3600,1.533
43.4000,1.422
43.4400,1.373
43.4800,1.419
43.5200,1.316
43.5600,1.308
43.6000,1.203
43.6400,1.216
43.6800,1.255
43.7200,1.122
43.7600,1.172
43.8000,1.164
43.8400,1.132
43.8800,1.150
43.9200,1.151
43.9600,1.268
44.0000,1.137
44.0400,1.038
44.0800,1.131
44.1200,1.203
44.1600,1.016
44.2000,1.204
44.2400,1.139
44.2800,1.186
44.3200,1.120
44.3600,1.122
44.4000,1.070
44.4400,1.132
44.4800,1.074
44.5200,1.122
44.5600,1.165
44.6000,1.133
44.6400,1.046
44.6800,1.134
44.7200,1.119
44.7600,0.993
44.8000,1.096
44.8400,1.114
44.8800,1.067
44.9200,1.098
44.9600,1.105
45.0000,1.076
45.0400,1.075
45.0800,1.065
45.1200,1.017
45.1600,1.079
45.2000,1.056
45.2400,1.073
45.2800,1.019
45.3200,1.058
45.3600,1.043
45.4000,1.008
45.4400,1.065
45.4800,0.980
45.5200,1.045
45.5600,1.042
45.6000,1.075
45.6400,1.054
45.6800,0.928
45.7200,0.991
45.7600,1.006
45.8000,1.061
45.8400,1.052
45.8800,1.012
45.9200,1.077
45.9600,0.992
46.0000,1.092
46.0400,1.003
46.0800,0.995
46.1200,1.071
46.1600,1.022
46.2000,1.048
46.2400,0.990
46.2800,1.014
46.3200,0.954
46.3600,1.015
46.4000,0.989
46.4400,0.948
46.4800,1.021
46.5200,0.972
46.5600,1.004
46.6000,0.994
46.6400,1.015
46.6800,1.040
46.7200,0.927
46.7600,1.013
46.8000,0.982
46.8400,0.849
46.8800,0.934
46.9200,0.930
46.9600,1.001
47.0000,0.972
47.0400,0.957
47.0800,0.836
47.1200,0.961
47.1600,1.049
47.2000,1.040
47.2400,0.874
47.2800,0.998
47.3200,1.016
47.3600,0.913
47.4000,0.977
47.4400,0.981
47.4800,0.948
47.5200,1.006
47.5600,0.912
47.6000,0.919
47.6400,0.956
47.6800,0.891
47.7200,0.846
47.7600,0.976
47.8000,0.926
47.8400,0.907
47.8800,0.938
47.9200,1.016
47.9600,0.952
48.0000,0.875
48.0400,0.909
48.0800,0.944
48.1200,0.882
48.1600,0.861
48.2000,0.949
48.2400,0.927
48.2800,0.908
48.3200,0.888
48.3600,0.925
48.4000,0.907
48.4400,0.977
48.4800,0.945
48.5200,0.939
48.5600,0.897
48.6000,0.909
48.6400,0.919
48.6800,0.874
48.7200,0.891
48.7600,0.912
48.8000,0.884
48.8400,0.927
48.8800,0.946
48.9200,0.912
48.9600,0.991
49.0000,0.958
49.0400,0.999
49.0800,0.942
49.1200,0.973
49.1600,0.935
49.2000,0.974
49.2400,1.031
49.2800,0.930
49.3200,0.973
49.3600,0.998
49.4000,1.050
49.4400,1.036
49.4800,0.983
49.5200,0.963
49.5600,0.990
49.6000,1.019
49.6400,0.983
49.6800,1.016
49.7200,0.893
49.7600,0.867
49.8000,0.960
49.8400,1.033
49.8800,1.041
49.9200,1.017
49.9600,1.013
50.0000,0.973
50.0400,0.964
50.0800,0.992
50.1200,0.905
50.1600,0.944
50.2000,1.009
50.2400,0.898
50.2800,0.938
50.3200,1.005
50.3600,0.935
50.4000,1.055
50.4400,0.922
50.4800,0.949
50.5200,0.917
50.5600,0.933
50.6000,0.926
50.6400,0.913
50.6800,0.920
50.7200,0.970
50.7600,0.864
50.8000,0.933
50.8400,0.915
50.8800,0.874
50.9200,0.944
50.9600,0.988
51.0000,0.859
51.0400,0.819
51.0800,0.825
51.1200,0.923
51.1600,0.842
51.2000,0.849
51.2400,0.912
51.2800,0.779
51.3200,0.932
51.3600,0.952
51.4000,0.867
51.4400,0.854
51.4800,0.898
51.5200,0.883
51.5600,0.871
51.6000,0.969
51.6400,0.857
51.6800,0.846
51.7200,0.860
51.7600,0.809
51.8000,0.954
51.8400,0.884
51.8800,0.833
51.9200,0.766
51.9600,0.866
52.0000,0.830
52.0400,0.844
52.0800,0.896
52.1200,0.872
52.1600,0.850
52.2000,0.781
52.2400,0.833
52.2800,0.906
52.3200,0.823
52.3600,0.843
52.4000,0.875
52.4400,0.818
52.4800,0.878
52.5200,0.773
52.5600,0.740
52.6000,0.828
52.6400,0.810
52.6800,0.729
52.7200,0.859
52.7600,0.778
52.8000,0.761
52.8400,0.731
52.8800,0.820
52.9200,0.739
52.9600,0.712
53.0000,0.787
53.0400,0.843
53.0800,0.835
53.1200,0.755
53.1600,0.788
53.2000,0.732
53.2400,0.699
53.2800,0.814
53.3200,0.840
53.3600,0.842
53.4000,0.822
53.4400,0.866
53.4800,0.808
53.5200,0.752
53.5600,0.798
53.6000,0.826
53.6400,0.760
53.6800,0.821
53.7200,0.728
53.7600,0.757
53.8000,0.733
53.8400,0.769
53.8800,0.715
53.9200,0.775
53.9600,0.814
54.0000,0.691
54.0400,0.768
54.0800,0.709
54.1200,0.757
54.1600,0.777
54.2000,0.702
54.2400,0.765
54.2800,0.747
54.3200,0.715
54.3600,0.766
54.4000,0.776
54.4400,0.730
54.4800,0.775
54.5200,0.754
54.5600,0.740
54.6000,0.732
54.6400,0.754
54.6800,0.741
54.7200,0.786
54.7600,0.718
54.8000,0.759
54.8400,0.746
54.8800,0.730
54.9200,0.713
54.9600,0.704
55.0000,0.717
55.0400,0.732
55.0800,0.710
55.1200,0.722
55.1600,0.697
55.2000,0.672
55.2400,0.674
55.2800,0.715
55.3200,0.648
55.3600,0.708
55.4000,0.731
55.4400,0.718
55.4800,0.689
55.5200,0.710
55.5600,0.688
55.6000,0.770
55.6400,0.691
55.6800,0.653
55.7200,0.722
55.7600,0.749
55.8000,0.708
55.8400,0.693
55.8800,0.656
55.9200,0.690
55.9600,0.741
56.0000,0.672
56.0400,0.685
56.0800,0.701
56.1200,0.653
56.1600,0.669
56.2000,0.685
56.2400,0.710
56.2800,0.661
56.3200,0.668
56.3600,0.709
56.4000,0.672
56.4400,0.644
56.4800,0.709
56.5200,0.691
56.5600,0.642
56.6000,0.694
56.6400,0.709
56.6800,0.671
56.7200,0.664
56.7600,0.705
56.8000,0.679
56.8400,0.721
56.8800,0.665
56.9200,0.687
56.9600,0.699
57.0000,0.648
57.0400,0.699
57.0800,0.689
57.1200,0.699
57.1600,0.737
57.2000,0.682
57.2400,0.598
57.2800,0.662
57.3200,0.665
57.3600,0.665
57.4000,0.735
57.4400,0.717
57.4800,0.698
57.5200,0.658
57.5600,0.672
57.6000,0.647
57.6400,0.745
57.6800,0.697
57.7200,0.660
57.7600,0.673
57.8000,0.610
57.8400,0.780
57.8800,0.675
57.9200,0.673
57.9600,0.663
58.0000,0.637
58.0400,0.707
58.0800,0.638
58.1200,0.678
58.1600,0.716
58.2000,0.663
58.2400,0.669
58.2800,0.705
58.3200,0.665
58.3600,0.708
58.4000,0.654
58.4400,0.644
58.4800,0.709
58.5200,0.779
58.5600,0.648
58.6000,0.656
58.6400,0.726
58.6800,0.731
58.7200,0.657
58.7600,0.671
58.8000,0.756
58.8400,0.789
58.8800,0.769
58.9200,0.688
58.9600,0.746
59.0000,0.736
59.0400,0.782
59.0800,0.809
59.1200,0.823
59.1600,0.905
59.2000,0.741
59.2400,0.802
59.2800,0.882
59.3200,0.852
59.3600,0.817
59.4000,0.853
59.4400,0.874
59.4800,0.906
59.5200,0.961
59.5600,0.980
59.6000,0.958
59.6400,0.981
59.6800,0.964
59.7200,0.998
59.7600,0.983
59.8000,1.049
59.8400,1.055
59.8800,1.080
59.9200,1.056
59.9600,1.097
60.0000,1.075
60.0400,1.031
60.0800,1.057
60.1200,0.994
60.1600,0.979
60.2000,0.983
60.2400,1.009
60.2800,1.041
60.3200,1.083
60.3600,1.037
60.4000,1.034
60.4400,1.003
60.4800,1.000
60.5200,0.953
60.5600,0.941
60.6000,0.954
60.6400,0.997
60.6800,0.929
60.7200,0.902
60.7600,0.899
60.8000,0.883
60.8400,0.798
60.8800,0.911
60.9200,0.966
60.9600,0.868
61.0000,0.954
61.0400,0.887
61.0800,0.963
61.1200,0.949
61.1600,0.936
61.2000,0.951
61.2400,0.889
61.2800,1.011
61.3200,0.945
61.3600,0.937
61.4000,0.924
61.4400,0.917
61.4800,1.008
61.5200,0.971
61.5600,0.967
61.6000,0.914
61.6400,0.887
61.6800,0.827
61.7200,0.879
61.7600,0.842
61.8000,0.818
61.8400,0.835
61.8800,0.789
61.9200,0.744
61.9600,0.677
62.0000,0.754
62.0400,0.726
62.0800,0.632
62.1200,0.719
62.1600,0.686
62.2000,0.706
62.2400,0.666
62.2800,0.669
62.3200,0.726
62.3600,0.675
62.4000,0.706
62.4400,0.704
62.4800,0.708
62.5200,0.749
62.5600,0.707
62.6000,0.704
62.6400,0.699
62.6800,0.656
62.7200,0.693
62.7600,0.680
62.8000,0.696
62.8400,0.594
62.8800,0.594
62.9200,0.578
62.9600,0.587
63.0000,0.596
63.0400,0.599
63.0800,0.527
63.1200,0.520
63.1600,0.545
63.2000,0.507
63.2400,0.498
63.2800,0.509
63.3200,0.526
63.3600,0.501
63.4000,0.550
63.4400,0.503
63.4800,0.533
63.5200,0.571
63.5600,0.475
63.6000,0.541
63.6400,0.505
63.6800,0.567
63.7200,0.563
63.7600,0.498
63.8000,0.478
63.8400,0.465
63.8800,0.526
63.9200,0.484
63.9600,0.576
64.0000,0.554
64.0400,0.468
64.0800,0.527
64.1200,0.537
64.1600,0.499
64.2000,0.478
64.2400,0.524
64.2800,0.488
64.3200,0.529
64.3600,0.477
64.4000,0.456
64.4400,0.485
64.4800,0.528
64.5200,0.486
64.5600,0.543
64.6000,0.495
64.6400,0.524
64.6800,0.490
64.7200,0.491
64.7600,0.527
64.8000,0.484
64.8400,0.511
64.8800,0.519
64.9200,0.493
64.9600,0.511
65.0000,0.516
65.0400,0.477
65.0800,0.453
65.1200,0.434
65.1600,0.494
65.2000,0.498
65.2400,0.466
65.2800,0.470
65.3200,0.444
65.3600,0.475
65.4000,0.524
65.4400,0.526
65.4800,0.546
65.5200,0.521
65.5600,0.484
65.6000,0.459
65.6400,0.486
65.6800,0.492
65.7200,0.432
65.7600,0.433
65.8000,0.488
65.8400,0.489
65.8800,0.469
65.9200,0.526
65.9600,0.437
66.0000,0.521
66.0400,0.461
66.0800,0.476
66.1200,0.514
66.1600,0.494
66.2000,0.408
66.2400,0.505
66.2800,0.493
66.3200,0.471
66.3600,0.454
66.4000,0.471
66.4400,0.451
66.4800,0.512
66.5200,0.442
66.5600,0.472
66.6000,0.510
66.6400,0.572
66.6800,0.544
66.7200,0.533
66.7600,0.468
66.8000,0.517
66.8400,0.514
66.8800,0.497
66.9200,0.501
66.9600,0.636
67.0000,0.543
67.0400,0.492
67.0800,0.551
67.1200,0.514
67.1600,0.554
67.2000,0.598
67.2400,0.585
67.2800,0.599
67.3200,0.617
67.3600,0.572
67.4000,0.579
67.4400,0.595
67.4800,0.540
67.5200,0.567
67.5600,0.572
67.6000,0.619
67.6400,0.571
67.6800,0.567
67.7200,0.544
67.7600,0.556
67.8000,0.608
67.8400,0.620
67.8800,0.583
67.9200,0.552
67.9600,0.597
68.0000,0.588
68.0400,0.607
68.0800,0.619
68.1200,0.584
68.1600,0.555
68.2000,0.630
68.2400,0.637
68.2800,0.631
68.3200,0.577
68.3600,0.596
68.4000,0.565
68.4400,0.597
68.4800,0.631
68.5200,0.552
68.5600,0.619
68.6000,0.661
68.6400,0.598
68.6800,0.573
68.7200,0.597
68.7600,0.598
68.8000,0.548
68.8400,0.587
68.8800,0.635
68.9200,0.624
68.9600,0.571
69.0000,0.539
69.0400,0.532
69.0800,0.586
69.1200,0.554
69.1600,0.568
69.2000,0.569
69.2400,0.547
69.2800,0.555
69.3200,0.456
69.3600,0.533
69.4000,0.541
69.4400,0.578
69.4800,0.537
69.5200,0.555
69.5600,0.519
69.6000,0.531
69.6400,0.538
69.6800,0.558
69.7200,0.534
69.7600,0.524
69.8000,0.550
69.8400,0.542
69.8800,0.510
69.9200,0.506
69.9600,0.553
70.0000,0.479
70.0400,0.518
70.0800,0.531
70.1200,0.477
70.1600,0.494
70.2000,0.534
70.2400,0.496
70.2800,0.528
70.3200,0.552
70.3600,0.493
70.4000,0.541
70.4400,0.438
70.4800,0.459
70.5200,0.493
70.5600,0.549
70.6000,0.534
70.6400,0.369
70.6800,0.480
70.7200,0.412
70.7600,0.481
70.8000,0.481
70.8400,0.478
70.8800,0.500
70.9200,0.516
70.9600,0.458
71.0000,0.474
71.0400,0.451
71.0800,0.465
71.1200,0.491
71.1600,0.455
71.2000,0.500
71.2400,0.490
71.2800,0.529
71.3200,0.479
71.3600,0.438
71.4000,0.479
71.4400,0.418
71.4800,0.487
71.5200,0.479
71.5600,0.457
71.6000,0.452
71.6400,0.408
71.6800,0.474
71.7200,0.456
71.7600,0.437
71.8000,0.500
71.8400,0.470
71.8800,0.448
71.9200,0.472
71.9600,0.486
72.0000,0.475
72.0400,0.488
72.0800,0.438
72.1200,0.486
72.1600,0.468
72.2000,0.479
72.2400,0.487
72.2800,0.443
72.3200,0.413
72.3600,0.463
72.4000,0.445
72.4400,0.438
72.4800,0.460
72.5200,0.427
72.5600,0.420
72.6000,0.495
72.6400,0.428
72.6800,0.464
72.7200,0.473
72.7600,0.448
72.8000,0.496
72.8400,0.490
72.8800,0.438
72.9200,0.415
72.9600,0.445
73.0000,0.500
73.0400,0.487
73.0800,0.463
73.1200,0.489
73.1600,0.413
73.2000,0.435
73.2400,0.409
73.2800,0.502
73.3200,0.538
73.3600,0.474
73.4000,0.490
73.4400,0.502
73.4800,0.527
73.5200,0.525
73.5600,0.517
73.6000,0.490
73.6400,0.447
73.6800,0.504
73.7200,0.481
73.7600,0.457
73.8000,0.465
73.8400,0.511
73.8800,0.517
73.9200,0.611
73.9600,0.514
74.0000,0.577
74.0400,0.552
74.0800,0.540
74.1200,0.604
74.1600,0.618
74.2000,0.673
74.2400,0.659
74.2800,0.694
74.3200,0.720
74.3600,0.743
74.4000,0.721
74.4400,0.810
74.4800,0.833
74.5200,0.776
74.5600,0.824
74.6000,0.956
74.6400,0.859
74.6800,1.028
74.7200,1.021
74.7600,1.085
74.8000,1.154
74.8400,1.037
74.8800,1.161
74.9200,1.223
74.9600,1.228
75.0000,1.244
75.0400,1.429
75.0800,1.408
75.1200,1.434
75.1600,1.502
75.2000,1.538
75.2400,1.557
75.2800,1.481
75.3200,1.504
75.3600,1.487
75.4000,1.544
75.4400,1.548
75.4800,1.474
75.5200,1.401
75.5600,1.499
75.6000,1.393
75.6400,1.311
75.6800,1.339
75.7200,1.227
75.7600,1.161
75.8000,1.056
75.8400,1.009
75.8800,0.989
75.9200,0.958
75.9600,0.903
76.0000,0.864
76.0400,0.870
76.0800,0.800
76.1200,0.844
76.1600,0.770
76.2000,0.706
76.2400,0.770
76.2800,0.737
76.3200,0.675
76.3600,0.663
76.4000,0.667
76.4400,0.719
76.4800,0.620
76.5200,0.602
76.5600,0.582
76.6000,0.624
76.6400,0.553
76.6800,0.576
76.7200,0.569
76.7600,0.561
76.8000,0.582
76.8400,0.489
76.8800,0.518
76.9200,0.531
76.9600,0.525
77.0000,0.486
77.0400,0.493
77.0800,0.485
77.1200,0.457
77.1600,0.454
77.2000,0.495
77.2400,0.447
77.2800,0.466
77.3200,0.451
77.3600,0.464
77.4000,0.439
77.4400,0.433
77.4800,0.412
77.5200,0.407
77.5600,0.405
77.6000,0.410
77.6400,0.487
77.6800,0.439
77.7200,0.401
77.7600,0.414
77.8000,0.426
77.8400,0.381
77.8800,0.428
77.9200,0.437
77.9600,0.452
78.0000,0.482
78.0400,0.463
78.0800,0.409
78.1200,0.501
78.1600,0.483
78.2000,0.433
78.2400,0.420
78.2800,0.429
78.3200,0.444
78.3600,0.472
78.4000,0.433
78.4400,0.463
78.4800,0.441
78.5200,0.463
78.5600,0.468
78.6000,0.529
78.6400,0.500
78.6800,0.473
78.7200,0.469
78.7600,0.475
78.8000,0.507
78.8400,0.535
78.8800,0.518
78.9200,0.509
78.9600,0.581
79.0000,0.545
79.0400,0.527
79.0800,0.632
79.1200,0.570
79.1600,0.550
79.2000,0.484
79.2400,0.546
79.2800,0.458
79.3200,0.459
79.3600,0.437
79.4000,0.447
79.4400,0.383
79.4800,0.409
79.5200,0.413
79.5600,0.394
79.6000,0.372
79.6400,0.400
79.6800,0.343
79.7200,0.330
79.7600,0.356
79.8000,0.320
79.8400,0.333
79.8800,0.368
79.9200,0.348
79.9600,0.369
80.0000,0.272
