theta,intensity
5.0000,2.969
5.0400,2.656
5.0800,2.567
5.1200,2.706
5.1600,2.747
5.2000,2.673
5.2400,2.621
5.2800,2.700
5.3200,2.545
5.3600,2.541
5.4000,2.512
5.4400,2.508
5.4800,2.610
5.5200,2.529
5.5600,2.412
5.6000,2.495
5.6400,2.469
5.6800,2.459
5.7200,2.488
5.7600,2.380
5.8000,2.406
5.8400,2.424
5.8800,2.380
5.9200,2.336
5.9600,2.295
6.0000,2.293
6.0400,2.221
6.0800,2.294
6.1200,2.244
6.1600,2.152
6.2000,2.097
6.2400,2.220
6.2800,2.186
6.3200,2.148
6.3600,2.057
6.4000,2.061
6.4400,2.081
6.4800,2.017
6.5200,1.952
6.5600,1.970
6.6000,1.967
6.6400,1.914
6.6800,1.865
6.7200,1.847
6.7600,1.799
6.8000,1.879
6.8400,1.796
6.8800,1.779
6.9200,1.785
6.9600,1.692
7.0000,1.722
7.0400,1.686
7.0800,1.715
7.1200,1.672
7.1600,1.675
7.2000,1.685
7.2400,1.610
7.2800,1.572
7.3200,1.606
7.3600,1.624
7.4000,1.580
7.4400,1.576
7.4800,1.578
7.5200,1.496
7.5600,1.492
7.6000,1.530
7.6400,1.513
7.6800,1.472
7.7200,1.530
7.7600,1.475
7.8000,1.432
7.8400,1.506
7.8800,1.495
7.9200,1.476
7.9600,1.483
8.0000,1.478
8.0400,1.527
8.0800,1.495
8.1200,1.483
8.1600,1.457
8.2000,1.490
8.2400,1.461
8.2800,1.429
8.3200,1.469
8.3600,1.494
8.4000,1.423
8.4400,1.481
8.4800,1.438
8.5200,1.423
8.5600,1.436
8.6000,1.459
8.6400,1.441
8.6800,1.427
8.7200,1.423
8.7600,1.459
8.8000,1.449
8.8400,1.391
8.8800,1.458
8.9200,1.486
8.9600,1.489
9.0000,1.463
9.0400,1.424
9.0800,1.494
9.1200,1.437
9.1600,1.393
9.2000,1.425
9.2400,1.449
9.2800,1.416
9.3200,1.398
9.3600,1.402
9.4000,1.404
9.4400,1.440
9.4800,1.464
9.5200,1.435
9.5600,1.484
9.6000,1.438
9.6400,1.455
9.6800,1.340
9.7200,1.412
9.7600,1.382
9.8000,1.365
9.8400,1.494
9.8800,1.418
9.9200,1.390
9.9600,1.366
10.0000,1.401
10.0400,1.417
10.0800,1.411
10.1200,1.400
10.1600,1.379
10.2000,1.358
10.2400,1.403
10.2800,1.385
10.3200,1.374
10.3600,1.382
10.4000,1.333
10.4400,1.365
10.4800,1.353
10.5200,1.374
10.5600,1.385
10.6000,1.399
10.6400,1.360
10.6800,1.318
10.7200,1.405
10.7600,1.319
10.8000,1.409
10.8400,1.408
10.8800,1.399
10.9200,1.321
10.9600,1.336
11.0000,1.318
11.0400,1.364
11.0800,1.323
11.1200,1.339
11.1600,1.383
11.2000,1.373
11.2400,1.308
11.2800,1.329
11.3200,1.374
11.3600,1.372
11.4000,1.305
11.4400,1.314
11.4800,1.341
11.5200,1.354
11.5600,1.375
11.6000,1.311
11.6400,1.359
11.6800,1.336
11.7200,1.313
11.7600,1.283
11.8000,1.306
11.8400,1.307
11.8800,1.348
11.9200,1.283
11.9600,1.320
12.0000,1.338
12.0400,1.363
12.0800,1.320
12.1200,1.354
12.1600,1.366
12.2000,1.336
12.2400,1.355
12.2800,1.432
12.3200,1.310
12.3600,1.311
12.4000,1.364
12.4400,1.264
12.4800,1.303
12.5200,1.323
12.5600,1.342
12.6000,1.307
12.6400,1.288
12.6800,1.283
12.7200,1.319
12.7600,1.303
12.8000,1.327
12.8400,1.307
12.8800,1.294
12.9200,1.311
12.9600,1.303
13.0000,1.299
13.0400,1.327
13.0800,1.278
13.1200,1.295
13.1600,1.296
13.2000,1.301
13.2400,1.248
13.2800,1.298
13.3200,1.320
13.3600,1.360
13.4000,1.297
13.4400,1.255
13.4800,1.294
13.5200,1.306
13.5600,1.298
13.6000,1.277
13.6400,1.267
13.6800,1.341
13.7200,1.305
13.7600,1.246
13.8000,1.234
13.8400,1.287
13.8800,1.329
13.9200,1.307
13.9600,1.334
14.0000,1.270
14.0400,1.306
14.0800,1.277
14.1200,1.248
14.1600,1.232
14.2000,1.329
14.2400,1.289
14.2800,1.264
14.3200,1.266
14.3600,1.288
14.4000,1.284
14.4400,1.268
14.4800,1.238
14.5200,1.290
14.5600,1.221
14.6000,1.321
14.6400,1.276
14.6800,1.266
14.7200,1.268
14.7600,1.245
14.8000,1.250
14.8400,1.242
14.8800,1.279
14.9200,1.274
14.9600,1.243
15.0000,1.275
15.0400,1.272
15.0800,1.287
15.1200,1.276
15.1600,1.315
15.2000,1.277
15.2400,1.233
15.2800,1.272
15.3200,1.222
15.3600,1.279
15.4000,1.268
15.4400,1.260
15.4800,1.295
15.5200,1.305
15.5600,1.243
15.6000,1.269
15.6400,1.268
15.6800,1.298
15.7200,1.338
15.7600,1.301
15.8000,1.243
15.8400,1.308
15.8800,1.289
15.9200,1.281
15.9600,1.333
16.0000,1.265
16.0400,1.274
16.0800,1.253
16.1200,1.287
16.1600,1.251
16.2000,1.273
16.2400,1.299
16.2800,1.271
16.3200,1.235
16.3600,1.321
16.4000,1.326
16.4400,1.269
16.4800,1.302
16.5200,1.249
16.5600,1.266
16.6000,1.281
16.6400,1.296
16.6800,1.238
16.7200,1.211
16.7600,1.260
16.8000,1.250
16.8400,1.215
16.8800,1.323
16.9200,1.256
16.9600,1.286
17.0000,1.230
17.0400,1.300
17.0800,1.282
17.1200,1.251
17.1600,1.235
17.2000,1.227
17.2400,1.242
17.2800,1.203
17.3200,1.236
17.3600,1.267
17.4000,1.250
17.4400,1.176
17.4800,1.228
17.5200,1.245
17.5600,1.199
17.6000,1.243
17.6400,1.194
17.6800,1.216
17.7200,1.214
17.7600,1.258
17.8000,1.257
17.8400,1.222
17.8800,1.237
17.9200,1.204
17.9600,1.185
18.0000,1.213
18.0400,1.266
18.0800,1.235
18.1200,1.252
18.1600,1.210
18.2000,1.289
18.2400,1.224
18.2800,1.249
18.3200,1.188
18.3600,1.212
18.4000,1.171
18.4400,1.218
18.4800,1.208
18.5200,1.213
18.5600,1.206
18.6000,1.238
18.6400,1.213
18.6800,1.250
18.7200,1.272
18.7600,1.164
18.8000,1.254
18.8400,1.182
18.8800,1.184
18.9200,1.198
18.9600,1.211
19.0000,1.229
19.0400,1.182
19.0800,1.235
19.1200,1.157
19.1600,1.194
19.2000,1.176
19.2400,1.221
19.2800,1.210
19.3200,1.177
19.3600,1.158
19.4000,1.139
19.4400,1.194
19.4800,1.188
19.5200,1.221
19.5600,1.213
19.6000,1.224
19.6400,1.222
19.6800,1.161
19.7200,1.195
19.7600,1.226
19.8000,1.210
19.8400,1.178
19.8800,1.184
19.9200,1.139
19.9600,1.160
20.0000,1.185
20.0400,1.178
20.0800,1.234
20.1200,1.223
20.1600,1.216
20.2000,1.169
20.2400,1.180
20.2800,1.229
20.3200,1.190
20.3600,1.150
20.4000,1.169
20.4400,1.197
20.4800,1.239
20.5200,1.209
20.5600,1.216
20.6000,1.176
20.6400,1.216
20.6800,1.180
20.7200,1.196
20.7600,1.213
20.8000,1.153
20.8400,1.166
20.8800,1.168
20.9200,1.140
20.9600,1.261
21.0000,1.134
21.0400,1.168
21.0800,1.104
21.1200,1.213
21.1600,1.200
21.2000,1.166
21.2400,1.160
21.2800,1.204
21.3200,1.154
21.3600,1.221
21.4000,1.170
21.4400,1.148
21.4800,1.151
21.5200,1.174
21.5600,1.153
21.6000,1.181
21.6400,1.119
21.6800,1.179
21.7200,1.187
21.7600,1.137
21.8000,1.145
21.8400,1.184
21.8800,1.139
21.9200,1.115
21.9600,1.155
22.0000,1.163
22.0400,1.105
22.0800,1.115
22.1200,1.105
22.1600,1.135
22.2000,1.155
22.2400,1.175
22.2800,1.124
22.3200,1.142
22.3600,1.151
22.4000,1.116
22.4400,1.103
22.4800,1.086
22.5200,1.118
22.5600,1.164
22.6000,1.152
22.6400,1.119
22.6800,1.142
22.7200,1.148
22.7600,1.108
22.8000,1.131
22.8400,1.071
22.8800,1.107
22.9200,1.079
22.9600,1.091
23.0000,1.134
23.0400,1.109
23.0800,1.083
23.1200,1.166
23.1600,1.134
23.2000,1.190
23.2400,1.127
23.2800,1.149
23.3200,1.172
23.3600,1.205
23.4000,1.210
23.4400,1.341
23.4800,1.393
23.5200,1.408
23.5600,1.383
23.6000,1.306
23.6400,1.208
23.6800,1.180
23.7200,1.173
23.7600,1.087
23.8000,1.103
23.8400,1.105
23.8800,1.132
23.9200,1.111
23.9600,1.040
24.0000,1.029
24.0400,1.093
24.0800,1.043
24.1200,0.972
24.1600,1.045
24.2000,1.073
24.2400,1.088
24.2800,1.024
24.3200,1.027
24.3600,1.016
24.4000,1.038
24.4400,1.012
24.4800,1.031
24.5200,1.013
24.5600,1.032
24.6000,1.022
24.6400,1.011
24.6800,1.034
24.7200,0.991
24.7600,1.012
24.8000,0.977
24.8400,0.983
24.8800,0.980
24.9200,1.019
24.9600,0.980
25.0000,1.034
25.0400,0.997
25.0800,0.966
25.1200,0.957
25.1600,1.002
25.2000,0.977
25.2400,0.976
25.2800,1.005
25.3200,0.976
25.3600,0.957
25.4000,0.996
25.4400,0.979
25.4800,1.003
25.5200,0.955
25.5600,0.975
25.6000,0.982
25.6400,0.939
25.6800,0.965
25.7200,0.974
25.7600,0.920
25.8000,0.939
25.8400,0.978
25.8800,0.948
25.9200,0.936
25.9600,0.942
26.0000,0.921
26.0400,0.928
26.0800,0.916
26.1200,0.885
26.1600,0.945
26.2000,0.890
26.2400,0.918
26.2800,0.958
26.3200,0.918
26.3600,0.908
26.4000,0.943
26.4400,0.935
26.4800,0.871
26.5200,0.899
26.5600,0.895
26.6000,0.908
26.6400,0.915
26.6800,0.915
26.7200,0.913
26.7600,0.912
26.8000,0.912
26.8400,0.887
26.8800,0.900
26.9200,0.893
26.9600,0.901
27.0000,0.918
27.0400,0.879
27.0800,0.885
27.1200,0.886
27.1600,0.881
27.2000,0.861
27.2400,0.856
27.2800,0.888
27.3200,0.893
27.3600,0.857
27.4000,0.884
27.4400,0.881
27.4800,0.901
27.5200,0.864
27.5600,0.892
27.6000,0.854
27.6400,0.867
27.6800,0.874
27.7200,0.831
27.7600,0.875
27.8000,0.889
27.8400,0.855
27.8800,0.857
27.9200,0.819
27.9600,0.893
28.0000,0.861
28.0400,0.851
28.0800,0.831
28.1200,0.873
28.1600,0.880
28.2000,0.819
28.2400,0.828
28.2800,0.846
28.3200,0.800
28.3600,0.860
28.4000,0.814
28.4400,0.831
28.4800,0.801
28.5200,0.888
28.5600,0.858
28.6000,0.839
28.6400,0.857
28.6800,0.858
28.7200,0.802
28.7600,0.822
28.8000,0.835
28.8400,0.873
28.8800,0.840
28.9200,0.856
28.9600,0.821
29.0000,0.826
29.0400,0.851
29.0800,0.844
29.1200,0.821
29.1600,0.842
29.2000,0.825
29.2400,0.848
29.2800,0.836
29.3200,0.854
29.3600,0.828
29.4000,0.780
29.4400,0.832
29.4800,0.853
29.5200,0.838
29.5600,0.846
29.6000,0.829
29.6400,0.815
29.6800,0.847
29.7200,0.879
29.7600,0.813
29.8000,0.809
29.8400,0.877
29.8800,0.865
29.9200,0.888
29.9600,0.908
30.0000,0.840
30.0400,0.905
30.0800,0.929
30.1200,0.923
30.1600,0.977
30.2000,1.021
30.2400,1.145
30.2800,1.217
30.3200,1.201
30.3600,1.187
30.4000,1.098
30.4400,1.050
30.4800,0.980
30.5200,0.964
30.5600,0.921
30.6000,0.946
30.6400,0.899
30.6800,0.930
30.7200,0.871
30.7600,0.879
30.8000,0.927
30.8400,0.928
30.8800,0.923
30.9200,0.894
30.9600,0.944
31.0000,0.953
31.0400,0.926
31.0800,0.947
31.1200,0.920
31.1600,0.945
31.2000,0.961
31.2400,0.885
31.2800,0.912
31.3200,0.910
31.3600,0.894
31.4000,0.887
31.4400,0.913
31.4800,0.932
31.5200,0.917
31.5600,0.909
31.6000,0.922
31.6400,0.950
31.6800,0.949
31.7200,1.149
31.7600,1.617
31.8000,1.910
31.8400,2.104
31.8800,2.107
31.9200,1.722
31.9600,1.473
32.0000,1.183
32.0400,1.044
32.0800,0.996
32.1200,0.948
32.1600,1.009
32.2000,0.972
32.2400,0.961
32.2800,1.035
32.3200,1.051
32.3600,1.050
32.4000,1.102
32.4400,1.095
32.4800,1.133
32.5200,1.127
32.5600,1.123
32.6000,1.078
32.6400,1.072
32.6800,1.027
32.7200,1.039
32.7600,1.017
32.8000,0.956
32.8400,1.022
32.8800,1.018
32.9200,1.078
32.9600,1.135
33.0000,1.287
33.0400,1.323
33.0800,1.262
33.1200,1.136
33.1600,1.052
33.2000,1.041
33.2400,0.934
33.2800,0.936
33.3200,0.937
33.3600,0.973
33.4000,0.940
33.4400,0.974
33.4800,0.936
33.5200,0.923
33.5600,0.901
33.6000,0.939
33.6400,0.871
33.6800,0.907
33.7200,0.866
33.7600,0.871
33.8000,0.832
33.8400,0.833
33.8800,0.849
33.9200,0.813
33.9600,0.787
34.0000,0.824
34.0400,0.790
34.0800,0.792
34.1200,0.731
34.1600,0.768
34.2000,0.745
34.2400,0.747
34.2800,0.728
34.3200,0.697
34.3600,0.662
34.4000,0.712
34.4400,0.643
34.4800,0.689
34.5200,0.707
34.5600,0.712
34.6000,0.704
34.6400,0.761
34.6800,0.932
34.7200,1.038
34.7600,1.292
34.8000,1.218
34.8400,1.069
34.8800,0.936
34.9200,0.734
34.9600,0.629
35.0000,0.659
35.0400,0.637
35.0800,0.609
35.1200,0.559
35.1600,0.615
35.2000,0.617
35.2400,0.613
35.2800,0.596
35.3200,0.597
35.3600,0.576
35.4000,0.578
35.4400,0.565
35.4800,0.575
35.5200,0.591
35.5600,0.639
35.6000,0.593
35.6400,0.569
35.6800,0.571
35.7200,0.593
35.7600,0.559
35.8000,0.605
35.8400,0.546
35.8800,0.555
35.9200,0.553
35.9600,0.579
36.0000,0.630
36.0400,0.579
36.0800,0.587
36.1200,0.588
36.1600,0.609
36.2000,0.620
36.2400,0.571
36.2800,0.627
36.3200,0.588
36.3600,0.631
36.4000,0.604
36.4400,0.674
36.4800,0.663
36.5200,0.626
36.5600,0.610
36.6000,0.596
36.6400,0.596
36.6800,0.547
36.7200,0.537
36.7600,0.569
36.8000,0.535
36.8400,0.556
36.8800,0.523
36.9200,0.528
36.9600,0.523
37.0000,0.506
37.0400,0.562
37.0800,0.567
37.1200,0.513
37.1600,0.522
37.2000,0.522
37.2400,0.515
37.2800,0.508
37.3200,0.542
37.3600,0.582
37.4000,0.518
37.4400,0.514
37.4800,0.506
37.5200,0.521
37.5600,0.539
37.6000,0.551
37.6400,0.516
37.6800,0.516
37.7200,0.555
37.7600,0.545
37.8000,0.551
37.8400,0.554
37.8800,0.540
37.9200,0.549
37.9600,0.555
38.0000,0.552
38.0400,0.525
38.0800,0.527
38.1200,0.587
38.1600,0.648
38.2000,0.625
38.2400,0.826
38.2800,1.374
38.3200,2.255
38.3600,2.845
38.4000,2.984
38.4400,2.513
38.4800,1.859
38.5200,1.517
38.5600,0.900
38.6000,0.731
38.6400,0.669
38.6800,0.662
38.7200,0.614
38.7600,0.623
38.8000,0.611
38.8400,0.619
38.8800,0.664
38.9200,0.601
38.9600,0.612
39.0000,0.625
39.0400,0.583
39.0800,0.584
39.1200,0.570
39.1600,0.551
39.2000,0.601
39.2400,0.546
39.2800,0.566
39.3200,0.538
39.3600,0.510
39.4000,0.496
39.4400,0.508
39.4800,0.507
39.5200,0.544
39.5600,0.501
39.6000,0.503
39.6400,0.512
39.6800,0.489
39.7200,0.490
39.7600,0.487
39.8000,0.500
39.8400,0.479
39.8800,0.495
39.9200,0.486
39.9600,0.453
40.0000,0.484
40.0400,0.470
40.0800,0.488
40.1200,0.471
40.1600,0.448
40.2000,0.463
40.2400,0.424
40.2800,0.460
40.3200,0.458
40.3600,0.444
40.4000,0.481
40.4400,0.432
40.4800,0.437
40.5200,0.438
40.5600,0.455
40.6000,0.409
40.6400,0.432
40.6800,0.435
40.7200,0.430
40.7600,0.431
40.8000,0.458
40.8400,0.404
40.8800,0.415
40.9200,0.477
40.9600,0.422
41.0000,0.433
41.0400,0.417
41.0800,0.441
41.1200,0.406
41.1600,0.428
41.2000,0.392
41.2400,0.411
41.2800,0.430
41.3200,0.421
41.3600,0.425
41.4000,0.404
41.4400,0.428
41.4800,0.389
41.5200,0.395
41.5600,0.396
41.6000,0.394
41.6400,0.366
41.6800,0.421
41.7200,0.416
41.7600,0.416
41.8000,0.409
41.8400,0.399
41.8800,0.397
41.9200,0.410
41.9600,0.398
42.0000,0.406
42.0400,0.400
42.0800,0.401
42.1200,0.411
42.1600,0.423
42.2000,0.408
42.2400,0.351
42.2800,0.399
42.3200,0.391
42.3600,0.390
42.4000,0.412
42.4400,0.369
42.4800,0.406
42.5200,0.365
42.5600,0.435
42.6000,0.381
42.6400,0.395
42.6800,0.391
42.7200,0.408
42.7600,0.416
42.8000,0.385
42.8400,0.409
42.8800,0.403
42.9200,0.358
42.9600,0.377
43.0000,0.387
43.0400,0.383
43.0800,0.368
43.1200,0.421
43.1600,0.389
43.2000,0.438
43.2400,0.428
43.2800,0.400
43.3200,0.381
43.3600,0.374
43.4000,0.388
43.4400,0.387
43.4800,0.390
43.5200,0.408
43.5600,0.414
43.6000,0.433
43.6400,0.430
43.6800,0.449
43.7200,0.415
43.7600,0.445
43.8000,0.466
43.8400,0.455
43.8800,0.460
43.9200,0.423
43.9600,0.440
44.0000,0.417
44.0400,0.400
44.0800,0.400
44.1200,0.408
44.1600,0.404
44.2000,0.413
44.2400,0.388
44.2800,0.372
44.3200,0.329
44.3600,0.344
44.4000,0.382
44.4400,0.383
44.4800,0.370
44.5200,0.373
44.5600,0.390
44.6000,0.385
44.6400,0.368
44.6800,0.375
44.7200,0.352
44.7600,0.386
44.8000,0.381
44.8400,0.375
44.8800,0.406
44.9200,0.377
44.9600,0.397
45.0000,0.358
45.0400,0.351
45.0800,0.387
45.1200,0.353
45.1600,0.383
45.2000,0.381
45.2400,0.360
45.2800,0.365
45.3200,0.376
45.3600,0.358
45.4000,0.361
45.4400,0.358
45.4800,0.377
45.5200,0.396
45.5600,0.396
45.6000,0.362
45.6400,0.387
45.6800,0.386
45.7200,0.436
45.7600,0.395
45.8000,0.352
45.8400,0.376
45.8800,0.359
45.9200,0.368
45.9600,0.368
46.0000,0.364
46.0400,0.355
46.0800,0.387
46.1200,0.360
46.1600,0.372
46.2000,0.345
46.2400,0.370
46.2800,0.382
46.3200,0.349
46.3600,0.352
46.4000,0.327
46.4400,0.335
46.4800,0.363
46.5200,0.343
46.5600,0.328
46.6000,0.355
46.6400,0.329
46.6800,0.347
46.7200,0.338
46.7600,0.336
46.8000,0.329
46.8400,0.333
46.8800,0.324
46.9200,0.331
46.9600,0.324
47.0000,0.315
47.0400,0.308
47.0800,0.330
47.1200,0.318
47.1600,0.312
47.2000,0.322
47.2400,0.335
47.2800,0.334
47.3200,0.316
47.3600,0.300
47.4000,0.333
47.4400,0.353
47.4800,0.322
47.5200,0.339
47.5600,0.340
47.6000,0.369
47.6400,0.322
47.6800,0.338
47.7200,0.433
47.7600,0.548
47.8000,0.667
47.8400,0.731
47.8800,0.670
47.9200,0.544
47.9600,0.534
48.0000,0.496
48.0400,0.404
48.0800,0.369
48.1200,0.371
48.1600,0.344
48.2000,0.364
48.2400,0.358
48.2800,0.368
48.3200,0.347
48.3600,0.349
48.4000,0.332
48.4400,0.337
48.4800,0.345
48.5200,0.304
48.5600,0.336
48.6000,0.344
48.6400,0.322
48.6800,0.328
48.7200,0.336
48.7600,0.339
48.8000,0.300
48.8400,0.348
48.8800,0.367
48.9200,0.351
48.9600,0.330
49.0000,0.327
49.0400,0.351
49.0800,0.315
49.1200,0.331
49.1600,0.336
49.2000,0.345
49.2400,0.326
49.2800,0.347
49.3200,0.362
49.3600,0.377
49.4000,0.343
49.4400,0.399
49.4800,0.381
49.5200,0.396
49.5600,0.396
49.6000,0.419
49.6400,0.402
49.6800,0.374
49.7200,0.411
49.7600,0.381
49.8000,0.407
49.8400,0.419
49.8800,0.413
49.9200,0.410
49.9600,0.429
50.0000,0.401
50.0400,0.390
50.0800,0.383
50.1200,0.377
50.1600,0.389
50.2000,0.370
50.2400,0.343
50.2800,0.365
50.3200,0.403
50.3600,0.329
50.4000,0.302
50.4400,0.337
50.4800,0.355
50.5200,0.331
50.5600,0.324
50.6000,0.318
50.6400,0.340
50.6800,0.325
50.7200,0.347
50.7600,0.344
50.8000,0.330
50.8400,0.307
50.8800,0.322
50.9200,0.313
50.9600,0.311
51.0000,0.283
51.0400,0.323
51.0800,0.302
51.1200,0.306
51.1600,0.331
51.2000,0.297
51.2400,0.308
51.2800,0.282
51.3200,0.331
51.3600,0.320
51.4000,0.320
51.4400,0.306
51.4800,0.326
51.5200,0.286
51.5600,0.317
51.6000,0.344
51.6400,0.320
51.6800,0.319
51.7200,0.302
51.7600,0.317
51.8000,0.293
51.8400,0.260
51.8800,0.321
51.9200,0.320
51.9600,0.327
52.0000,0.291
52.0400,0.321
52.0800,0.318
52.1200,0.291
52.1600,0.317
52.2000,0.302
52.2400,0.294
52.2800,0.288
52.3200,0.286
52.3600,0.329
52.4000,0.309
52.4400,0.292
52.4800,0.276
52.5200,0.277
52.5600,0.300
52.6000,0.300
52.6400,0.276
52.6800,0.307
52.7200,0.290
52.7600,0.292
52.8000,0.314
52.8400,0.294
52.8800,0.309
52.9200,0.297
52.9600,0.265
53.0000,0.291
53.0400,0.294
53.0800,0.272
53.1200,0.278
53.1600,0.298
53.2000,0.289
53.2400,0.285
53.2800,0.299
53.3200,0.300
53.3600,0.306
53.4000,0.265
53.4400,0.274
53.4800,0.276
53.5200,0.276
53.5600,0.272
53.6000,0.282
53.6400,0.286
53.6800,0.265
53.7200,0.282
53.7600,0.261
53.8000,0.284
53.8400,0.268
53.8800,0.277
53.9200,0.269
53.9600,0.292
54.0000,0.268
54.0400,0.273
54.0800,0.286
54.1200,0.264
54.1600,0.275
54.2000,0.297
54.2400,0.288
54.2800,0.273
54.3200,0.287
54.3600,0.296
54.4000,0.289
54.4400,0.272
54.4800,0.268
54.5200,0.285
54.5600,0.259
54.6000,0.283
54.6400,0.286
54.6800,0.264
54.7200,0.267
54.7600,0.263
54.8000,0.259
54.8400,0.274
54.8800,0.301
54.9200,0.282
54.9600,0.291
55.0000,0.307
55.0400,0.280
55.0800,0.308
55.1200,0.299
55.1600,0.299
55.2000,0.284
55.2400,0.316
55.2800,0.317
55.3200,0.304
55.3600,0.305
55.4000,0.289
55.4400,0.287
55.4800,0.303
55.5200,0.312
55.5600,0.301
55.6000,0.322
55.6400,0.306
55.6800,0.320
55.7200,0.288
55.7600,0.291
55.8000,0.337
55.8400,0.318
55.8800,0.326
55.9200,0.289
55.9600,0.348
56.0000,0.341
56.0400,0.318
56.0800,0.350
56.1200,0.340
56.1600,0.311
56.2000,0.319
56.2400,0.326
56.2800,0.340
56.3200,0.340
56.3600,0.343
56.4000,0.329
56.4400,0.337
56.4800,0.339
56.5200,0.349
56.5600,0.325
56.6000,0.364
56.6400,0.336
56.6800,0.317
56.7200,0.316
56.7600,0.299
56.8000,0.344
56.8400,0.351
56.8800,0.345
56.9200,0.311
56.9600,0.339
57.0000,0.324
57.0400,0.349
57.0800,0.352
57.1200,0.304
57.1600,0.316
57.2000,0.342
57.2400,0.321
57.2800,0.314
57.3200,0.312
57.3600,0.325
57.4000,0.325
57.4400,0.306
57.4800,0.337
57.5200,0.325
57.5600,0.342
57.6000,0.299
57.6400,0.285
57.6800,0.308
57.7200,0.315
57.7600,0.301
57.8000,0.311
57.8400,0.302
57.8800,0.332
57.9200,0.295
57.9600,0.301
58.0000,0.307
58.0400,0.298
58.0800,0.323
58.1200,0.307
58.1600,0.305
58.2000,0.310
58.2400,0.322
58.2800,0.315
58.3200,0.306
58.3600,0.312
58.4000,0.337
58.4400,0.299
58.4800,0.310
58.5200,0.259
58.5600,0.245
58.6000,0.298
58.6400,0.254
58.6800,0.260
58.7200,0.235
58.7600,0.265
58.8000,0.255
58.8400,0.258
58.8800,0.245
58.9200,0.244
58.9600,0.256
59.0000,0.253
59.0400,0.255
59.0800,0.246
59.1200,0.248
59.1600,0.245
59.2000,0.230
59.2400,0.224
59.2800,0.248
59.3200,0.236
59.3600,0.274
59.4000,0.221
59.4400,0.236
59.4800,0.249
59.5200,0.250
59.5600,0.230
59.6000,0.226
59.6400,0.216
59.6800,0.250
59.7200,0.229
59.7600,0.257
59.8000,0.245
59.8400,0.228
59.8800,0.226
59.9200,0.245
59.9600,0.243
60.0000,0.238
60.0400,0.241
60.0800,0.257
60.1200,0.236
60.1600,0.226
60.2000,0.227
60.2400,0.226
60.2800,0.226
60.3200,0.230
60.3600,0.220
60.4000,0.226
60.4400,0.225
60.4800,0.261
60.5200,0.248
60.5600,0.252
60.6000,0.213
60.6400,0.235
60.6800,0.242
60.7200,0.214
60.7600,0.236
60.8000,0.252
60.8400,0.245
60.8800,0.229
60.9200,0.254
60.9600,0.247
61.0000,0.339
61.0400,0.412
61.0800,0.483
61.1200,0.536
61.1600,0.409
61.2000,0.365
61.2400,0.362
61.2800,0.400
61.3200,0.358
61.3600,0.240
61.4000,0.241
61.4400,0.219
61.4800,0.228
61.5200,0.239
61.5600,0.239
61.6000,0.243
61.6400,0.273
61.6800,0.263
61.7200,0.263
61.7600,0.281
61.8000,0.278
61.8400,0.248
61.8800,0.275
61.9200,0.274
61.9600,0.266
62.0000,0.244
62.0400,0.256
62.0800,0.233
62.1200,0.246
62.1600,0.261
62.2000,0.328
62.2400,0.400
62.2800,0.424
62.3200,0.408
62.3600,0.318
62.4000,0.342
62.4400,0.343
62.4800,0.356
62.5200,0.283
62.5600,0.262
62.6000,0.247
62.6400,0.248
62.6800,0.250
62.7200,0.246
62.7600,0.253
62.8000,0.220
62.8400,0.241
62.8800,0.222
62.9200,0.254
62.9600,0.253
63.0000,0.219
63.0400,0.242
63.0800,0.229
63.1200,0.244
63.1600,0.256
63.2000,0.247
63.2400,0.240
63.2800,0.261
63.3200,0.243
63.3600,0.232
63.4000,0.256
63.4400,0.257
63.4800,0.248
63.5200,0.221
63.5600,0.262
63.6000,0.234
63.6400,0.252
63.6800,0.244
63.7200,0.254
63.7600,0.238
63.8000,0.235
63.8400,0.246
63.8800,0.280
63.9200,0.219
63.9600,0.248
64.0000,0.264
64.0400,0.269
64.0800,0.260
64.1200,0.268
64.1600,0.284
64.2000,0.248
64.2400,0.269
64.2800,0.263
64.3200,0.251
64.3600,0.280
64.4000,0.296
64.4400,0.285
64.4800,0.266
64.5200,0.270
64.5600,0.274
64.6000,0.285
64.6400,0.274
64.6800,0.274
64.7200,0.276
64.7600,0.265
64.8000,0.278
64.8400,0.277
64.8800,0.291
64.9200,0.279
64.9600,0.298
65.0000,0.265
65.0400,0.275
65.0800,0.278
65.1200,0.302
65.1600,0.319
65.2000,0.292
65.2400,0.317
65.2800,0.300
65.3200,0.319
65.3600,0.329
65.4000,0.320
65.4400,0.320
65.4800,0.342
65.5200,0.326
65.5600,0.340
65.6000,0.328
65.6400,0.315
65.6800,0.315
65.7200,0.353
65.7600,0.330
65.8000,0.327
65.8400,0.355
65.8800,0.370
65.9200,0.317
65.9600,0.327
66.0000,0.340
66.0400,0.361
66.0800,0.369
66.1200,0.373
66.1600,0.389
66.2000,0.359
66.2400,0.347
66.2800,0.378
66.3200,0.399
66.3600,0.387
66.4000,0.386
66.4400,0.395
66.4800,0.413
66.5200,0.454
66.5600,0.414
66.6000,0.408
66.6400,0.457
66.6800,0.469
66.7200,0.433
66.7600,0.418
66.8000,0.422
66.8400,0.464
66.8800,0.461
66.9200,0.449
66.9600,0.445
67.0000,0.433
67.0400,0.441
67.0800,0.480
67.1200,0.478
67.1600,0.481
67.2000,0.464
67.2400,0.507
67.2800,0.471
67.3200,0.490
67.3600,0.511
67.4000,0.505
67.4400,0.544
67.4800,0.519
67.5200,0.551
67.5600,0.507
67.6000,0.563
67.6400,0.564
67.6800,0.552
67.7200,0.550
67.7600,0.620
67.8000,0.596
67.8400,0.604
67.8800,0.601
67.9200,0.625
67.9600,0.627
68.0000,0.587
68.0400,0.636
68.0800,0.660
68.1200,0.663
68.1600,0.721
68.2000,0.706
68.2400,0.736
68.2800,0.750
68.3200,0.783
68.3600,0.795
68.4000,0.805
68.4400,0.838
68.4800,0.863
68.5200,0.875
68.5600,0.968
68.6000,1.070
68.6400,1.120
68.6800,1.370
68.7200,1.611
68.7600,1.979
68.8000,2.200
68.8400,2.427
68.8800,2.542
68.9200,2.899
68.9600,3.736
69.0000,6.308
69.0400,18.992
69.0800,69.537
69.1200,115.601
69.1600,107.987
69.2000,70.511
69.2400,33.704
69.2800,42.245
69.3200,61.969
69.3600,57.522
69.4000,36.155
69.4400,13.200
69.4800,4.822
69.5200,3.067
69.5600,2.455
69.6000,2.046
69.6400,1.703
69.6800,1.517
69.7200,1.399
69.7600,1.249
69.8000,1.198
69.8400,1.071
69.8800,1.118
69.9200,1.016
69.9600,0.944
70.0000,0.940
70.0400,0.878
70.0800,0.887
70.1200,0.865
70.1600,0.818
70.2000,0.805
70.2400,0.741
70.2800,0.762
70.3200,0.733
70.3600,0.700
70.4000,0.656
70.4400,0.703
70.4800,0.668
70.5200,0.641
70.5600,0.638
70.6000,0.604
70.6400,0.588
70.6800,0.583
70.7200,0.576
70.7600,0.572
70.8000,0.567
70.8400,0.509
70.8800,0.525
70.9200,0.508
70.9600,0.506
71.0000,0.467
71.0400,0.489
71.0800,0.484
71.1200,0.446
71.1600,0.457
71.2000,0.457
71.2400,0.483
71.2800,0.445
71.3200,0.440
71.3600,0.437
71.4000,0.418
71.4400,0.421
71.4800,0.442
71.5200,0.440
71.5600,0.486
71.6000,0.547
71.6400,0.566
71.6800,0.511
71.7200,0.491
71.7600,0.441
71.8000,0.433
71.8400,0.450
71.8800,0.438
71.9200,0.422
71.9600,0.362
72.0000,0.323
72.0400,0.345
72.0800,0.350
72.1200,0.339
72.1600,0.341
72.2000,0.311
72.2400,0.312
72.2800,0.312
72.3200,0.324
72.3600,0.287
72.4000,0.296
72.4400,0.315
72.4800,0.307
72.5200,0.291
72.5600,0.294
72.6000,0.285
72.6400,0.264
72.6800,0.301
72.7200,0.286
72.7600,0.274
72.8000,0.286
72.8400,0.275
72.8800,0.295
72.9200,0.295
72.9600,0.260
73.0000,0.267
73.0400,0.257
73.0800,0.247
73.1200,0.274
73.1600,0.229
73.2000,0.267
73.2400,0.243
73.2800,0.280
73.3200,0.296
73.3600,0.287
73.4000,0.271
73.4400,0.244
73.4800,0.257
73.5200,0.257
73.5600,0.276
73.6000,0.263
73.6400,0.256
73.6800,0.247
73.7200,0.226
73.7600,0.257
73.8000,0.224
73.8400,0.227
73.8800,0.219
73.9200,0.239
73.9600,0.223
74.0000,0.238
74.0400,0.246
74.0800,0.243
74.1200,0.232
74.1600,0.222
74.2000,0.211
74.2400,0.223
74.2800,0.220
74.3200,0.217
74.3600,0.215
74.4000,0.223
74.4400,0.223
74.4800,0.229
74.5200,0.220
74.5600,0.224
74.6000,0.222
74.6400,0.206
74.6800,0.221
74.7200,0.201
74.7600,0.202
74.8000,0.207
74.8400,0.223
74.8800,0.230
74.9200,0.210
74.9600,0.221
75.0000,0.222
75.0400,0.212
75.0800,0.209
75.1200,0.201
75.1600,0.235
75.2000,0.205
75.2400,0.212
75.2800,0.243
75.3200,0.195
75.3600,0.232
75.4000,0.219
75.4400,0.212
75.4800,0.249
75.5200,0.285
75.5600,0.338
75.6000,0.322
75.6400,0.289
75.6800,0.206
75.7200,0.249
75.7600,0.263
75.8000,0.257
75.8400,0.254
75.8800,0.246
75.9200,0.194
75.9600,0.219
76.0000,0.206
76.0400,0.210
76.0800,0.202
76.1200,0.210
76.1600,0.197
76.2000,0.207
76.2400,0.187
76.2800,0.199
76.3200,0.192
76.3600,0.187
76.4000,0.178
76.4400,0.197
76.4800,0.199
76.5200,0.194
76.5600,0.159
76.6000,0.203
76.6400,0.188
76.6800,0.206
76.7200,0.186
76.7600,0.195
76.8000,0.183
76.8400,0.204
76.8800,0.197
76.9200,0.204
76.9600,0.183
77.0000,0.201
77.0400,0.192
77.0800,0.185
77.1200,0.192
77.1600,0.198
77.2000,0.226
77.2400,0.216
77.2800,0.193
77.3200,0.217
77.3600,0.184
77.4000,0.187
77.4400,0.197
77.4800,0.208
77.5200,0.206
77.5600,0.200
77.6000,0.185
77.6400,0.169
77.6800,0.182
77.7200,0.190
77.7600,0.188
77.8000,0.180
77.8400,0.187
77.8800,0.188
77.9200,0.178
77.9600,0.179
78.0000,0.186
78.0400,0.177
78.0800,0.182
78.1200,0.180
78.1600,0.186
78.2000,0.190
78.2400,0.195
78.2800,0.185
78.3200,0.162
78.3600,0.163
78.4000,0.167
78.4400,0.188
78.4800,0.159
78.5200,0.176
78.5600,0.176
78.6000,0.201
78.6400,0.182
78.6800,0.146
78.7200,0.177
78.7600,0.185
78.8000,0.179
78.8400,0.164
78.8800,0.190
78.9200,0.173
78.9600,0.181
79.0000,0.166
79.0400,0.171
79.0800,0.178
79.1200,0.163
79.1600,0.169
79.2000,0.176
79.2400,0.160
79.2800,0.177
79.3200,0.171
79.3600,0.162
79.4000,0.188
79.4400,0.168
79.4800,0.170
79.5200,0.165
79.5600,0.166
79.6000,0.182
79.6400,0.172
79.6800,0.171
79.7200,0.190
79.7600,0.182
79.8000,0.168
79.8400,0.167
79.8800,0.168
79.9200,0.172
79.9600,0.182
80.0000,0.169
