theta,intensity
5.0000,4.460
5.0400,4.383
5.0800,4.403
5.1200,4.393
5.1600,4.264
5.2000,4.214
5.2400,4.369
5.2800,4.241
5.3200,4.408
5.3600,4.440
5.4000,4.235
5.4400,4.322
5.4800,4.210
5.5200,4.367
5.5600,4.243
5.6000,4.304
5.6400,4.196
5.6800,4.240
5.7200,4.210
5.7600,4.244
5.8000,4.110
5.8400,4.236
5.8800,4.099
5.9200,4.126
5.9600,4.214
6.0000,4.266
6.0400,4.258
6.0800,4.171
6.1200,4.070
6.1600,4.227
6.2000,4.160
6.2400,4.223
6.2800,4.101
6.3200,4.190
6.3600,3.977
6.4000,4.114
6.4400,4.067
6.4800,4.016
6.5200,4.025
6.5600,4.052
6.6000,4.047
6.6400,4.007
6.6800,4.061
6.7200,3.983
6.7600,3.989
6.8000,4.079
6.8400,4.112
6.8800,4.080
6.9200,3.995
6.9600,3.965
7.0000,3.918
7.0400,3.970
7.0800,3.943
7.1200,3.907
7.1600,3.894
7.2000,3.972
7.2400,3.913
7.2800,3.998
7.3200,3.825
7.3600,4.035
7.4000,3.979
7.4400,3.852
7.4800,3.922
7.5200,3.909
7.5600,3.841
7.6000,3.912
7.6400,4.006
7.6800,3.901
7.7200,3.870
7.7600,3.879
7.8000,3.899
7.8400,3.913
7.8800,3.869
7.9200,3.722
7.9600,3.961
8.0000,3.973
8.0400,3.856
8.0800,3.909
8.1200,3.912
8.1600,3.856
8.2000,3.793
8.2400,3.805
8.2800,3.906
8.3200,3.876
8.3600,3.855
8.4000,3.814
8.4400,3.790
8.4800,3.756
8.5200,3.783
8.5600,3.813
8.6000,3.744
8.6400,3.739
8.6800,3.853
8.7200,3.764
8.7600,3.778
8.8000,3.662
8.8400,3.677
8.8800,3.687
8.9200,3.718
8.9600,3.770
9.0000,3.815
9.0400,3.675
9.0800,3.714
9.1200,3.700
9.1600,3.657
9.2000,3.601
9.2400,3.800
9.2800,3.696
9.3200,3.671
9.3600,3.755
9.4000,3.628
9.4400,3.659
9.4800,3.541
9.5200,3.722
9.5600,3.796
9.6000,3.853
9.6400,3.704
9.6800,3.671
9.7200,3.797
9.7600,3.626
9.8000,3.703
9.8400,3.683
9.8800,3.699
9.9200,3.698
9.9600,3.722
10.0000,3.631
10.0400,3.653
10.0800,3.638
10.1200,3.581
10.1600,3.661
10.2000,3.724
10.2400,3.592
10.2800,3.698
10.3200,3.648
10.3600,3.657
10.4000,3.522
10.4400,3.512
10.4800,3.538
10.5200,3.638
10.5600,3.598
10.6000,3.631
10.6400,3.661
10.6800,3.629
10.7200,3.480
10.7600,3.548
10.8000,3.601
10.8400,3.528
10.8800,3.536
10.9200,3.431
10.9600,3.585
11.0000,3.612
11.0400,3.577
11.0800,3.488
11.1200,3.463
11.1600,3.494
11.2000,3.620
11.2400,3.588
11.2800,3.542
11.3200,3.612
11.3600,3.553
11.4000,3.608
11.4400,3.496
11.4800,3.601
11.5200,3.430
11.5600,3.577
11.6000,3.457
11.6400,3.501
11.6800,3.390
11.7200,3.489
11.7600,3.457
11.8000,3.382
11.8400,3.441
11.8800,3.530
11.9200,3.494
11.9600,3.536
12.0000,3.446
12.0400,3.452
12.0800,3.420
12.1200,3.437
12.1600,3.366
12.2000,3.522
12.2400,3.441
12.2800,3.389
12.3200,3.406
12.3600,3.451
12.4000,3.411
12.4400,3.320
12.4800,3.425
12.5200,3.486
12.5600,3.214
12.6000,3.414
12.6400,3.421
12.6800,3.371
12.7200,3.316
12.7600,3.334
12.8000,3.275
12.8400,3.405
12.8800,3.272
12.9200,3.304
12.9600,3.348
13.0000,3.345
13.0400,3.397
13.0800,3.336
13.1200,3.379
13.1600,3.424
13.2000,3.354
13.2400,3.320
13.2800,3.344
13.3200,3.294
13.3600,3.359
13.4000,3.325
13.4400,3.365
13.4800,3.322
13.5200,3.301
13.5600,3.268
13.6000,3.154
13.6400,3.298
13.6800,3.132
13.7200,3.342
13.7600,3.357
13.8000,3.225
13.8400,3.417
13.8800,3.275
13.9200,3.226
13.9600,3.282
14.0000,3.329
14.0400,3.225
14.0800,3.271
14.1200,3.314
14.1600,3.172
14.2000,3.264
14.2400,3.202
14.2800,3.181
14.3200,3.237
14.3600,3.187
14.4000,3.196
14.4400,3.222
14.4800,3.242
14.5200,3.285
14.5600,3.245
14.6000,3.170
14.6400,3.159
14.6800,3.229
14.7200,3.256
14.7600,3.100
14.8000,3.123
14.8400,3.231
14.8800,3.208
14.9200,3.253
14.9600,3.196
15.0000,3.144
15.0400,3.165
15.0800,3.149
15.1200,3.142
15.1600,3.199
15.2000,3.074
15.2400,3.142
15.2800,3.163
15.3200,3.159
15.3600,3.092
15.4000,3.170
15.4400,3.123
15.4800,3.093
15.5200,3.179
15.5600,3.184
15.6000,3.194
15.6400,3.048
15.6800,3.214
15.7200,3.149
15.7600,3.106
15.8000,3.240
15.8400,3.164
15.8800,3.072
15.9200,3.065
15.9600,3.049
16.0000,3.098
16.0400,3.162
16.0800,3.081
16.1200,3.005
16.1600,3.072
16.2000,3.274
16.2400,3.122
16.2800,3.105
16.3200,3.100
16.3600,3.138
16.4000,3.046
16.4400,3.001
16.4800,3.050
16.5200,3.144
16.5600,3.042
16.6000,3.092
16.6400,3.034
16.6800,3.051
16.7200,2.988
16.7600,3.067
16.8000,3.095
16.8400,3.002
16.8800,2.992
16.9200,3.022
16.9600,3.042
17.0000,3.117
17.0400,2.989
17.0800,3.054
17.1200,3.084
17.1600,2.993
17.2000,2.943
17.2400,2.965
17.2800,3.015
17.3200,2.914
17.3600,3.064
17.4000,2.914
17.4400,2.986
17.4800,2.926
17.5200,2.949
17.5600,3.040
17.6000,3.023
17.6400,3.012
17.6800,2.998
17.7200,2.967
17.7600,2.920
17.8000,3.041
17.8400,2.899
17.8800,2.906
17.9200,2.979
17.9600,3.032
18.0000,2.957
18.0400,2.888
18.0800,2.816
18.1200,2.906
18.1600,2.940
18.2000,2.898
18.2400,2.897
18.2800,2.894
18.3200,2.857
18.3600,2.837
18.4000,2.921
18.4400,2.870
18.4800,2.997
18.5200,2.692
18.5600,2.864
18.6000,2.860
18.6400,2.961
18.6800,2.934
18.7200,2.925
18.7600,2.885
18.8000,2.786
18.8400,2.779
18.8800,2.815
18.9200,2.874
18.9600,2.861
19.0000,2.808
19.0400,2.859
19.0800,2.921
19.1200,2.781
19.1600,2.790
19.2000,2.856
19.2400,2.822
19.2800,2.718
19.3200,2.863
19.3600,2.902
19.4000,2.837
19.4400,2.780
19.4800,2.780
19.5200,2.719
19.5600,2.718
19.6000,2.815
19.6400,2.760
19.6800,2.631
19.7200,2.717
19.7600,2.729
19.8000,2.809
19.8400,2.677
19.8800,2.742
19.9200,2.634
19.9600,2.755
20.0000,2.777
20.0400,2.732
20.0800,2.683
20.1200,2.701
20.1600,2.720
20.2000,2.711
20.2400,2.734
20.2800,2.684
20.3200,2.599
20.3600,2.643
20.4000,2.708
20.4400,2.722
20.4800,2.792
20.5200,2.728
20.5600,2.700
20.6000,2.668
20.6400,2.734
20.6800,2.693
20.7200,2.685
20.7600,2.651
20.8000,2.602
20.8400,2.671
20.8800,2.752
20.9200,2.716
20.9600,2.629
21.0000,2.699
21.0400,2.642
21.0800,2.595
21.1200,2.743
21.1600,2.705
21.2000,2.701
21.2400,2.551
21.2800,2.667
21.3200,2.558
21.3600,2.688
21.4000,2.643
21.4400,2.676
21.4800,2.647
21.5200,2.580
21.5600,2.599
21.6000,2.621
21.6400,2.694
21.6800,2.639
21.7200,2.688
21.7600,2.548
21.8000,2.537
21.8400,2.517
21.8800,2.576
21.9200,2.610
21.9600,2.561
22.0000,2.614
22.0400,2.527
22.0800,2.522
22.1200,2.577
22.1600,2.593
22.2000,2.633
22.2400,2.549
22.2800,2.550
22.3200,2.490
22.3600,2.553
22.4000,2.549
22.4400,2.439
22.4800,2.638
22.5200,2.626
22.5600,2.542
22.6000,2.502
22.6400,2.595
22.6800,2.504
22.7200,2.540
22.7600,2.527
22.8000,2.436
22.8400,2.571
22.8800,2.524
22.9200,2.587
22.9600,2.470
23.0000,2.562
23.0400,2.548
23.0800,2.510
23.1200,2.568
23.1600,2.568
23.2000,2.468
23.2400,2.400
23.2800,2.457
23.3200,2.461
23.3600,2.472
23.4000,2.491
23.4400,2.579
23.4800,2.423
23.5200,2.419
23.5600,2.464
23.6000,2.576
23.6400,2.551
23.6800,2.423
23.7200,2.455
23.7600,2.449
23.8000,2.503
23.8400,2.417
23.8800,2.471
23.9200,2.385
23.9600,2.471
24.0000,2.451
24.0400,2.367
24.0800,2.407
24.1200,2.413
24.1600,2.486
24.2000,2.370
24.2400,2.374
24.2800,2.438
24.3200,2.310
24.3600,2.426
24.4000,2.340
24.4400,2.433
24.4800,2.434
24.5200,2.416
24.5600,2.443
24.6000,2.385
24.6400,2.407
24.6800,2.401
24.7200,2.459
24.7600,2.368
24.8000,2.343
24.8400,2.292
24.8800,2.394
24.9200,2.346
24.9600,2.343
25.0000,2.405
25.0400,2.261
25.0800,2.359
25.1200,2.295
25.1600,2.341
25.2000,2.309
25.2400,2.389
25.2800,2.260
25.3200,2.307
25.3600,2.342
25.4000,2.359
25.4400,2.352
25.4800,2.292
25.5200,2.277
25.5600,2.401
25.6000,2.314
25.6400,2.387
25.6800,2.218
25.7200,2.344
25.7600,2.269
25.8000,2.345
25.8400,2.317
25.8800,2.307
25.9200,2.298
25.9600,2.366
26.0000,2.310
26.0400,2.281
26.0800,2.169
26.1200,2.292
26.1600,2.379
26.2000,2.474
26.2400,2.446
26.2800,2.525
26.3200,2.456
26.3600,2.289
26.4000,2.429
26.4400,2.301
26.4800,2.327
26.5200,2.195
26.5600,2.237
26.6000,2.312
26.6400,2.313
26.6800,2.246
26.7200,2.249
26.7600,2.278
26.8000,2.210
26.8400,2.388
26.8800,2.463
26.9200,2.448
26.9600,2.272
27.0000,2.355
27.0400,2.310
27.0800,2.239
27.1200,2.255
27.1600,2.211
27.2000,2.239
27.2400,2.162
27.2800,2.248
27.3200,2.159
27.3600,2.160
27.4000,2.202
27.4400,2.186
27.4800,2.158
27.5200,2.126
27.5600,2.064
27.6000,2.110
27.6400,2.219
27.6800,2.191
27.7200,2.245
27.7600,2.166
27.8000,2.172
27.8400,2.101
27.8800,2.163
27.9200,2.194
27.9600,2.210
28.0000,2.142
28.0400,2.128
28.0800,2.104
28.1200,2.245
28.1600,2.213
28.2000,2.226
28.2400,2.219
28.2800,2.228
28.3200,2.251
28.3600,2.252
28.4000,2.254
28.4400,2.306
28.4800,2.255
28.5200,2.121
28.5600,2.198
28.6000,2.156
28.6400,2.165
28.6800,2.180
28.7200,2.213
28.7600,2.181
28.8000,2.165
28.8400,2.162
28.8800,2.129
28.9200,2.086
28.9600,2.106
29.0000,2.081
29.0400,2.128
29.0800,2.099
29.1200,2.107
29.1600,2.088
29.2000,2.166
29.2400,2.070
29.2800,2.143
29.3200,2.181
29.3600,1.993
29.4000,2.002
29.4400,2.024
29.4800,1.994
29.5200,2.025
29.5600,1.997
29.6000,2.022
29.6400,2.096
29.6800,2.015
29.7200,1.970
29.7600,2.030
29.8000,1.973
29.8400,1.972
29.8800,2.049
29.9200,2.003
29.9600,1.967
30.0000,2.027
30.0400,2.024
30.0800,1.973
30.1200,1.822
30.1600,2.042
30.2000,1.906
30.2400,1.958
30.2800,1.966
30.3200,1.956
30.3600,1.926
30.4000,1.992
30.4400,1.984
30.4800,1.893
30.5200,1.917
30.5600,1.871
30.6000,1.934
30.6400,1.904
30.6800,1.863
30.7200,1.839
30.7600,1.838
30.8000,1.953
30.8400,1.924
30.8800,1.918
30.9200,1.899
30.9600,1.839
31.0000,1.870
31.0400,1.905
31.0800,1.849
31.1200,1.867
31.1600,1.870
31.2000,1.832
31.2400,1.764
31.2800,1.776
31.3200,1.756
31.3600,1.819
31.4000,1.811
31.4400,1.846
31.4800,1.774
31.5200,1.730
31.5600,1.827
31.6000,1.847
31.6400,1.770
31.6800,1.811
31.7200,1.761
31.7600,1.878
31.8000,1.665
31.8400,1.743
31.8800,1.732
31.9200,1.762
31.9600,1.792
32.0000,1.827
32.0400,1.812
32.0800,1.790
32.1200,1.792
32.1600,1.708
32.2000,1.800
32.2400,1.837
32.2800,1.868
32.3200,1.847
32.3600,1.827
32.4000,1.864
32.4400,1.783
32.4800,1.785
32.5200,1.788
32.5600,1.775
32.6000,1.794
32.6400,1.884
32.6800,1.828
32.7200,1.876
32.7600,1.967
32.8000,1.963
32.8400,1.947
32.8800,1.936
32.9200,2.026
32.9600,2.107
33.0000,2.129
33.0400,2.091
33.0800,2.200
33.1200,2.172
33.1600,2.072
33.2000,2.110
33.2400,1.998
33.2800,1.941
33.3200,1.856
33.3600,1.913
33.4000,1.851
33.4400,1.798
33.4800,1.818
33.5200,1.848
33.5600,1.822
33.6000,1.764
33.6400,1.776
33.6800,1.767
33.7200,1.703
33.7600,1.763
33.8000,1.663
33.8400,1.778
33.8800,1.919
33.9200,1.964
33.9600,1.888
34.0000,1.964
34.0400,1.848
34.0800,1.833
34.1200,1.681
34.1600,1.730
34.2000,1.682
34.2400,1.698
34.2800,1.743
34.3200,1.660
34.3600,1.824
34.4000,1.692
34.4400,1.621
34.4800,1.645
34.5200,1.614
34.5600,1.647
34.6000,1.738
34.6400,1.673
34.6800,1.576
34.7200,1.616
34.7600,1.702
34.8000,1.673
34.8400,1.599
34.8800,1.603
34.9200,1.568
34.9600,1.611
35.0000,1.622
35.0400,1.578
35.0800,1.642
35.1200,1.538
35.1600,1.705
35.2000,1.593
35.2400,1.549
35.2800,1.664
35.3200,1.698
35.3600,1.659
35.4000,1.674
35.4400,1.738
35.4800,1.706
35.5200,1.881
35.5600,2.089
35.6000,2.067
35.6400,2.097
35.6800,2.078
35.7200,1.920
35.7600,1.905
35.8000,1.781
35.8400,1.679
35.8800,1.793
35.9200,1.701
35.9600,1.700
36.0000,1.747
36.0400,1.784
36.0800,1.720
36.1200,1.734
36.1600,1.755
36.2000,1.647
36.2400,1.675
36.2800,1.622
36.3200,1.658
36.3600,1.672
36.4000,1.653
36.4400,1.714
36.4800,1.670
36.5200,1.665
36.5600,1.726
36.6000,1.684
36.6400,1.613
36.6800,1.821
36.7200,1.715
36.7600,1.760
36.8000,1.719
36.8400,1.849
36.8800,2.001
36.9200,2.045
36.9600,2.456
37.0000,2.517
37.0400,2.572
37.0800,2.653
37.1200,2.510
37.1600,2.295
37.2000,2.284
37.2400,2.305
37.2800,2.285
37.3200,2.359
37.3600,2.564
37.4000,3.006
37.4400,3.574
37.4800,3.975
37.5200,4.412
37.5600,4.980
37.6000,5.944
37.6400,8.117
37.6800,11.223
37.7200,14.769
37.7600,17.384
37.8000,19.472
37.8400,21.133
37.8800,22.297
37.9200,22.951
37.9600,22.108
38.0000,19.747
38.0400,16.904
38.0800,14.010
38.1200,11.078
38.1600,9.147
38.2000,7.514
38.2400,6.168
38.2800,5.378
38.3200,5.534
38.3600,5.388
38.4000,4.989
38.4400,4.728
38.4800,4.554
38.5200,4.500
38.5600,4.149
38.6000,3.694
38.6400,3.458
38.6800,3.144
38.7200,2.762
38.7600,2.651
38.8000,2.632
38.8400,2.731
38.8800,2.952
38.9200,3.592
38.9600,4.371
39.0000,5.300
39.0400,5.356
39.0800,4.748
39.1200,4.123
39.1600,3.493
39.2000,2.765
39.2400,2.477
39.2800,2.416
39.3200,2.213
39.3600,2.238
39.4000,2.256
39.4400,2.228
39.4800,2.032
39.5200,2.026
39.5600,1.955
39.6000,1.949
39.6400,1.819
39.6800,1.789
39.7200,1.849
39.7600,1.850
39.8000,1.815
39.8400,1.767
39.8800,1.846
39.9200,1.784
39.9600,1.760
40.0000,1.854
40.0400,1.755
40.0800,1.751
40.1200,1.765
40.1600,1.881
40.2000,1.863
40.2400,1.953
40.2800,2.092
40.3200,2.138
40.3600,2.239
40.4000,2.107
40.4400,2.119
40.4800,1.950
40.5200,1.921
40.5600,1.786
40.6000,1.750
40.6400,1.679
40.6800,1.649
40.7200,1.637
40.7600,1.642
40.8000,1.614
40.8400,1.631
40.8800,1.602
40.9200,1.625
40.9600,1.541
41.0000,1.593
41.0400,1.557
41.0800,1.570
41.1200,1.595
41.1600,1.474
41.2000,1.478
41.2400,1.460
41.2800,1.436
41.3200,1.539
41.3600,1.462
41.4000,1.429
41.4400,1.400
41.4800,1.430
41.5200,1.497
41.5600,1.505
41.6000,1.551
41.6400,1.614
41.6800,1.729
41.7200,1.737
41.7600,1.755
41.8000,1.711
41.8400,1.575
41.8800,1.499
41.9200,1.571
41.9600,1.453
42.0000,1.393
42.0400,1.434
42.0800,1.364
42.1200,1.369
42.1600,1.266
42.2000,1.320
42.2400,1.284
42.2800,1.403
42.3200,1.414
42.3600,1.340
42.4000,1.323
42.4400,1.384
42.4800,1.369
42.5200,1.376
42.5600,1.404
42.6000,1.343
42.6400,1.414
42.6800,1.327
42.7200,1.299
42.7600,1.331
42.8000,1.342
42.8400,1.431
42.8800,1.404
42.9200,1.376
42.9600,1.413
43.0000,1.411
43.0400,1.410
43.0800,1.501
43.1200,1.508
43.1600,1.510
43.2000,1.528
43.2400,1.498
43.2800,1.636
43.3200,1.642
43.3600,1.746
43.4000,1.873
43.4400,1.969
43.4800,2.090
43.5200,2.123
43.5600,2.236
43.6000,2.408
43.6400,2.522
43.6800,2.778
43.7200,3.060
43.7600,3.708
43.8000,4.326
43.8400,5.108
43.8800,6.111
43.9200,6.845
43.9600,7.678
44.0000,8.216
44.0400,8.426
44.0800,8.370
44.1200,7.870
44.1600,7.316
44.2000,6.629
44.2400,5.760
44.2800,4.990
44.3200,4.169
44.3600,3.591
44.4000,2.895
44.4400,2.359
44.4800,2.105
44.5200,1.851
44.5600,1.698
44.6000,1.453
44.6400,1.464
44.6800,1.384
44.7200,1.400
44.7600,1.293
44.8000,1.306
44.8400,1.331
44.8800,1.339
44.9200,1.238
44.9600,1.245
45.0000,1.257
45.0400,1.175
45.0800,1.128
45.1200,1.161
45.1600,1.164
45.2000,1.142
45.2400,1.139
45.2800,1.169
45.3200,1.091
45.3600,1.086
45.4000,1.104
45.4400,1.159
45.4800,1.089
45.5200,1.076
45.5600,1.078
45.6000,1.071
45.6400,1.094
45.6800,1.077
45.7200,1.035
45.7600,1.104
45.8000,1.009
45.8400,1.045
45.8800,1.077
45.9200,1.103
45.9600,1.011
46.0000,1.109
46.0400,1.028
46.0800,0.988
46.1200,1.077
46.1600,1.030
46.2000,0.990
46.2400,1.069
46.2800,1.010
46.3200,1.069
46.3600,1.101
46.4000,1.108
46.4400,1.019
46.4800,1.109
46.5200,1.058
46.5600,1.003
46.6000,1.123
46.6400,1.071
46.6800,1.042
46.7200,0.983
46.7600,0.970
46.8000,1.039
46.8400,1.025
46.8800,1.020
46.9200,0.949
46.9600,0.966
47.0000,0.991
47.0400,0.948
47.0800,0.967
47.1200,0.953
47.1600,1.019
47.2000,1.055
47.2400,1.061
47.2800,1.046
47.3200,1.070
47.3600,1.017
47.4000,1.002
47.4400,0.977
47.4800,1.055
47.5200,1.031
47.5600,0.995
47.6000,1.009
47.6400,0.971
47.6800,0.932
47.7200,0.996
47.7600,0.962
47.8000,0.983
47.8400,1.064
47.8800,1.081
47.9200,1.016
47.9600,1.006
48.0000,0.975
48.0400,0.975
48.0800,0.990
48.1200,0.970
48.1600,0.950
48.2000,0.955
48.2400,0.928
48.2800,0.900
48.3200,0.929
48.3600,0.952
48.4000,0.888
48.4400,0.968
48.4800,0.910
48.5200,0.945
48.5600,0.896
48.6000,0.891
48.6400,0.893
48.6800,0.914
48.7200,0.906
48.7600,0.809
48.8000,0.841
48.8400,0.930
48.8800,0.890
48.9200,0.915
48.9600,0.895
49.0000,0.870
49.0400,0.894
49.0800,0.867
49.1200,0.867
49.1600,0.919
49.2000,0.844
49.2400,0.874
49.2800,0.927
49.3200,0.867
49.3600,0.896
49.4000,0.865
49.4400,0.875
49.4800,0.886
49.5200,0.877
49.5600,0.824
49.6000,0.863
49.6400,0.923
49.6800,0.907
49.7200,0.894
49.7600,0.879
49.8000,0.834
49.8400,0.874
49.8800,0.858
49.9200,0.891
49.9600,0.874
50.0000,0.811
50.0400,0.865
50.0800,0.908
50.1200,0.886
50.1600,0.888
50.2000,0.836
50.2400,0.888
50.2800,0.839
50.3200,0.846
50.3600,0.889
50.4000,0.858
50.4400,0.835
50.4800,0.871
50.5200,0.837
50.5600,0.809
50.6000,0.818
50.6400,0.824
50.6800,0.840
50.7200,0.827
50.7600,0.792
50.8000,0.831
50.8400,0.867
50.8800,0.868
50.9200,0.825
50.9600,0.797
51.0000,0.792
51.0400,0.825
51.0800,0.821
51.1200,0.870
51.1600,0.846
51.2000,0.823
51.2400,0.873
51.2800,0.841
51.3200,0.833
51.3600,0.903
51.4000,0.872
51.4400,0.870
51.4800,0.861
51.5200,0.809
51.5600,0.851
51.6000,0.873
51.6400,0.890
51.6800,0.902
51.7200,0.914
51.7600,0.885
51.8000,0.860
51.8400,0.909
51.8800,0.886
51.9200,0.832
51.9600,0.883
52.0000,0.846
52.0400,0.800
52.0800,0.837
52.1200,0.842
52.1600,0.851
52.2000,0.809
52.2400,0.822
52.2800,0.850
52.3200,0.851
52.3600,0.824
52.4000,0.829
52.4400,0.795
52.4800,0.884
52.5200,0.862
52.5600,0.852
52.6000,0.842
52.6400,0.809
52.6800,0.842
52.7200,0.807
52.7600,0.831
52.8000,0.846
52.8400,0.766
52.8800,0.829
52.9200,0.809
52.9600,0.820
53.0000,0.777
53.0400,0.845
53.0800,0.807
53.1200,0.805
53.1600,0.809
53.2000,0.853
53.2400,0.819
53.2800,0.733
53.3200,0.761
53.3600,0.791
53.4000,0.739
53.4400,0.778
53.4800,0.755
53.5200,0.794
53.5600,0.808
53.6000,0.802
53.6400,0.788
53.6800,0.846
53.7200,0.862
53.7600,0.868
53.8000,0.916
53.8400,0.972
53.8800,1.028
53.9200,0.985
53.9600,0.978
54.0000,0.910
54.0400,0.974
54.0800,0.894
54.1200,0.848
54.1600,0.798
54.2000,0.781
54.2400,0.792
54.2800,0.740
54.3200,0.788
54.3600,0.778
54.4000,0.742
54.4400,0.741
54.4800,0.766
54.5200,0.795
54.5600,0.766
54.6000,0.762
54.6400,0.798
54.6800,0.774
54.7200,0.756
54.7600,0.770
54.8000,0.802
54.8400,0.809
54.8800,0.791
54.9200,0.846
54.9600,0.796
55.0000,0.800
55.0400,0.799
55.0800,0.837
55.1200,0.857
55.1600,0.882
55.2000,0.970
55.2400,1.001
55.2800,1.104
55.3200,1.170
55.3600,1.170
55.4000,1.164
55.4400,1.149
55.4800,1.078
55.5200,1.052
55.5600,0.939
55.6000,0.865
55.6400,0.868
55.6800,0.795
55.7200,0.824
55.7600,0.772
55.8000,0.769
55.8400,0.726
55.8800,0.764
55.9200,0.715
55.9600,0.738
56.0000,0.752
56.0400,0.718
56.0800,0.768
56.1200,0.719
56.1600,0.743
56.2000,0.723
56.2400,0.726
56.2800,0.692
56.3200,0.749
56.3600,0.681
56.4000,0.730
56.4400,0.687
56.4800,0.629
56.5200,0.681
56.5600,0.724
56.6000,0.674
56.6400,0.731
56.6800,0.714
56.7200,0.702
56.7600,0.685
56.8000,0.684
56.8400,0.678
56.8800,0.699
56.9200,0.664
56.9600,0.654
57.0000,0.696
57.0400,0.704
57.0800,0.679
57.1200,0.655
57.1600,0.712
57.2000,0.682
57.2400,0.678
57.2800,0.689
57.3200,0.702
57.3600,0.655
57.4000,0.651
57.4400,0.637
57.4800,0.685
57.5200,0.678
57.5600,0.656
57.6000,0.657
57.6400,0.662
57.6800,0.707
57.7200,0.698
57.7600,0.700
57.8000,0.680
57.8400,0.665
57.8800,0.675
57.9200,0.661
57.9600,0.664
58.0000,0.675
58.0400,0.665
58.0800,0.660
58.1200,0.661
58.1600,0.714
58.2000,0.713
58.2400,0.714
58.2800,0.711
58.3200,0.665
58.3600,0.654
58.4000,0.749
58.4400,0.732
58.4800,0.717
58.5200,0.745
58.5600,0.752
58.6000,0.726
58.6400,0.712
58.6800,0.727
58.7200,0.730
58.7600,0.782
58.8000,0.753
58.8400,0.759
58.8800,0.739
58.9200,0.673
58.9600,0.705
59.0000,0.677
59.0400,0.708
59.0800,0.660
59.1200,0.630
59.1600,0.634
59.2000,0.678
59.2400,0.687
59.2800,0.647
59.3200,0.603
59.3600,0.614
59.4000,0.581
59.4400,0.620
59.4800,0.637
59.5200,0.619
59.5600,0.609
59.6000,0.620
59.6400,0.593
59.6800,0.651
59.7200,0.618
59.7600,0.583
59.8000,0.622
59.8400,0.588
59.8800,0.617
59.9200,0.614
59.9600,0.608
60.0000,0.607
60.0400,0.571
60.0800,0.559
60.1200,0.586
60.1600,0.585
60.2000,0.587
60.2400,0.584
60.2800,0.610
60.3200,0.577
60.3600,0.585
60.4000,0.611
60.4400,0.603
60.4800,0.599
60.5200,0.626
60.5600,0.578
60.6000,0.646
60.6400,0.610
60.6800,0.592
60.7200,0.566
60.7600,0.594
60.8000,0.578
60.8400,0.546
60.8800,0.591
60.9200,0.610
60.9600,0.589
61.0000,0.606
61.0400,0.582
61.0800,0.600
61.1200,0.584
61.1600,0.592
61.2000,0.586
61.2400,0.558
61.2800,0.574
61.3200,0.613
61.3600,0.603
61.4000,0.560
61.4400,0.539
61.4800,0.588
61.5200,0.584
61.5600,0.586
61.6000,0.569
61.6400,0.566
61.6800,0.556
61.7200,0.569
61.7600,0.591
61.8000,0.558
61.8400,0.534
61.8800,0.592
61.9200,0.616
61.9600,0.579
62.0000,0.650
62.0400,0.565
62.0800,0.591
62.1200,0.577
62.1600,0.561
62.2000,0.608
62.2400,0.585
62.2800,0.607
62.3200,0.615
62.3600,0.599
62.4000,0.564
62.4400,0.587
62.4800,0.604
62.5200,0.612
62.5600,0.614
62.6000,0.646
62.6400,0.616
62.6800,0.570
62.7200,0.599
62.7600,0.603
62.8000,0.623
62.8400,0.656
62.8800,0.599
62.9200,0.598
62.9600,0.650
63.0000,0.659
63.0400,0.671
63.0800,0.708
63.1200,0.661
63.1600,0.668
63.2000,0.687
63.2400,0.716
63.2800,0.777
63.3200,0.810
63.3600,0.875
63.4000,1.107
63.4400,1.245
63.4800,1.332
63.5200,1.533
63.5600,1.694
63.6000,1.846
63.6400,2.052
63.6800,2.424
63.7200,2.779
63.7600,2.974
63.8000,2.963
63.8400,3.215
63.8800,3.407
63.9200,3.491
63.9600,3.561
64.0000,3.620
64.0400,3.501
64.0800,3.369
64.1200,3.174
64.1600,3.031
64.2000,2.812
64.2400,2.510
64.2800,2.374
64.3200,1.998
64.3600,1.879
64.4000,1.699
64.4400,1.520
64.4800,1.315
64.5200,1.210
64.5600,1.091
64.6000,1.013
64.6400,0.993
64.6800,0.893
64.7200,0.826
64.7600,0.820
64.8000,0.786
64.8400,0.807
64.8800,0.754
64.9200,0.672
64.9600,0.636
65.0000,0.659
65.0400,0.665
65.0800,0.639
65.1200,0.651
65.1600,0.616
65.2000,0.623
65.2400,0.557
65.2800,0.576
65.3200,0.568
65.3600,0.577
65.4000,0.565
65.4400,0.577
65.4800,0.613
65.5200,0.618
65.5600,0.596
65.6000,0.580
65.6400,0.522
65.6800,0.615
65.7200,0.591
65.7600,0.626
65.8000,0.577
65.8400,0.666
65.8800,0.650
65.9200,0.610
65.9600,0.652
66.0000,0.576
66.0400,0.609
66.0800,0.645
66.1200,0.604
66.1600,0.616
66.2000,0.570
66.2400,0.553
66.2800,0.562
66.3200,0.539
66.3600,0.567
66.4000,0.619
66.4400,0.607
66.4800,0.546
66.5200,0.528
66.5600,0.555
66.6000,0.542
66.6400,0.535
66.6800,0.512
66.7200,0.486
66.7600,0.500
66.8000,0.489
66.8400,0.507
66.8800,0.495
66.9200,0.493
66.9600,0.552
67.0000,0.541
67.0400,0.533
67.0800,0.498
67.1200,0.472
67.1600,0.512
67.2000,0.481
67.2400,0.509
67.2800,0.525
67.3200,0.516
67.3600,0.489
67.4000,0.492
67.4400,0.464
67.4800,0.483
67.5200,0.516
67.5600,0.506
67.6000,0.502
67.6400,0.470
67.6800,0.526
67.7200,0.481
67.7600,0.518
67.8000,0.545
67.8400,0.552
67.8800,0.588
67.9200,0.607
67.9600,0.646
68.0000,0.583
68.0400,0.567
68.0800,0.582
68.1200,0.557
68.1600,0.581
68.2000,0.559
68.2400,0.555
68.2800,0.534
68.3200,0.531
68.3600,0.545
68.4000,0.512
68.4400,0.535
68.4800,0.554
68.5200,0.525
68.5600,0.527
68.6000,0.505
68.6400,0.515
68.6800,0.539
68.7200,0.546
68.7600,0.572
68.8000,0.600
68.8400,0.644
68.8800,0.736
68.9200,0.801
68.9600,0.918
69.0000,0.877
69.0400,0.779
69.0800,0.783
69.1200,0.811
69.1600,0.779
69.2000,0.952
69.2400,0.932
69.2800,0.966
69.3200,0.907
69.3600,0.859
69.4000,0.845
69.4400,0.856
69.4800,0.834
69.5200,0.793
69.5600,0.780
69.6000,0.769
69.6400,0.712
69.6800,0.635
69.7200,0.588
69.7600,0.605
69.8000,0.579
69.8400,0.578
69.8800,0.566
69.9200,0.500
69.9600,0.506
70.0000,0.520
70.0400,0.487
70.0800,0.512
70.1200,0.468
70.1600,0.492
70.2000,0.525
70.2400,0.491
70.2800,0.513
70.3200,0.531
70.3600,0.445
70.4000,0.459
70.4400,0.452
70.4800,0.458
70.5200,0.454
70.5600,0.457
70.6000,0.460
70.6400,0.450
70.6800,0.475
70.7200,0.467
70.7600,0.501
70.8000,0.444
70.8400,0.461
70.8800,0.503
70.9200,0.481
70.9600,0.512
71.0000,0.519
71.0400,0.496
71.0800,0.487
71.1200,0.494
71.1600,0.545
71.2000,0.545
71.2400,0.548
71.2800,0.568
71.3200,0.516
71.3600,0.566
71.4000,0.578
71.4400,0.519
71.4800,0.537
71.5200,0.526
71.5600,0.556
71.6000,0.535
71.6400,0.568
71.6800,0.586
71.7200,0.519
71.7600,0.543
71.8000,0.549
71.8400,0.567
71.8800,0.588
71.9200,0.573
71.9600,0.544
72.0000,0.542
72.0400,0.525
72.0800,0.494
72.1200,0.527
72.1600,0.527
72.2000,0.475
72.2400,0.426
72.2800,0.460
72.3200,0.459
72.3600,0.434
72.4000,0.378
72.4400,0.397
72.4800,0.446
72.5200,0.424
72.5600,0.372
72.6000,0.401
72.6400,0.400
72.6800,0.440
72.7200,0.405
72.7600,0.389
72.8000,0.391
72.8400,0.387
72.8800,0.415
72.9200,0.423
72.9600,0.438
73.0000,0.398
73.0400,0.394
73.0800,0.415
73.1200,0.399
73.1600,0.398
73.2000,0.417
73.2400,0.422
73.2800,0.394
73.3200,0.425
73.3600,0.397
73.4000,0.417
73.4400,0.440
73.4800,0.403
73.5200,0.433
73.5600,0.396
73.6000,0.426
73.6400,0.364
73.6800,0.397
73.7200,0.398
73.7600,0.366
73.8000,0.404
73.8400,0.392
73.8800,0.390
73.9200,0.419
73.9600,0.395
74.0000,0.406
74.0400,0.418
74.0800,0.381
74.1200,0.387
74.1600,0.430
74.2000,0.378
74.2400,0.431
74.2800,0.430
74.3200,0.408
74.3600,0.451
74.4000,0.429
74.4400,0.466
74.4800,0.467
74.5200,0.450
74.5600,0.483
74.6000,0.447
74.6400,0.499
74.6800,0.444
74.7200,0.464
74.7600,0.412
74.8000,0.485
74.8400,0.430
74.8800,0.424
74.9200,0.404
74.9600,0.466
75.0000,0.435
75.0400,0.476
75.0800,0.433
75.1200,0.458
75.1600,0.496
75.2000,0.497
75.2400,0.484
75.2800,0.466
75.3200,0.519
75.3600,0.483
75.4000,0.509
75.4400,0.486
75.4800,0.498
75.5200,0.489
75.5600,0.515
75.6000,0.516
75.6400,0.559
75.6800,0.560
75.7200,0.510
75.7600,0.580
75.8000,0.635
75.8400,0.642
75.8800,0.669
75.9200,0.707
75.9600,0.744
76.0000,0.789
76.0400,0.800
76.0800,0.840
76.1200,0.906
76.1600,0.956
76.2000,1.093
76.2400,1.260
76.2800,1.416
76.3200,1.598
76.3600,1.791
76.4000,1.985
76.4400,2.167
76.4800,2.273
76.5200,2.575
76.5600,2.559
76.6000,2.644
76.6400,2.705
76.6800,2.797
76.7200,2.859
76.7600,2.864
76.8000,2.850
76.8400,2.862
76.8800,2.741
76.9200,2.654
76.9600,2.487
77.0000,2.414
77.0400,2.409
77.0800,2.178
77.1200,2.011
77.1600,1.875
77.2000,1.672
77.2400,1.602
77.2800,1.428
77.3200,1.399
77.3600,1.269
77.4000,1.208
77.4400,1.079
77.4800,1.006
77.5200,0.851
77.5600,0.790
77.6000,0.776
77.6400,0.705
77.6800,0.645
77.7200,0.594
77.7600,0.550
77.8000,0.550
77.8400,0.526
77.8800,0.502
77.9200,0.441
77.9600,0.507
78.0000,0.489
78.0400,0.447
78.0800,0.491
78.1200,0.504
78.1600,0.491
78.2000,0.494
78.2400,0.452
78.2800,0.455
78.3200,0.510
78.3600,0.454
78.4000,0.461
78.4400,0.437
78.4800,0.453
78.5200,0.431
78.5600,0.412
78.6000,0.472
78.6400,0.420
78.6800,0.447
78.7200,0.427
78.7600,0.442
78.8000,0.467
78.8400,0.437
78.8800,0.404
78.9200,0.404
78.9600,0.399
79.0000,0.389
79.0400,0.397
79.0800,0.387
79.1200,0.408
79.1600,0.411
79.2000,0.388
79.2400,0.418
79.2800,0.405
79.3200,0.402
79.3600,0.400
79.4000,0.408
79.4400,0.416
79.4800,0.423
79.5200,0.397
79.5600,0.405
79.6000,0.391
79.6400,0.391
79.6800,0.408
79.7200,0.435
79.7600,0.438
79.8000,0.452
79.8400,0.418
79.8800,0.420
79.9200,0.420
79.9600,0.453
80.0000,0.464
