theta,intensity
5.0000,2.054
5.0400,2.006
5.0800,2.018
5.1200,1.914
5.1600,1.983
5.2000,1.948
5.2400,1.984
5.2800,1.906
5.3200,2.021
5.3600,1.896
5.4000,1.943
5.4400,1.879
5.4800,1.914
5.5200,1.919
5.5600,1.935
5.6000,1.977
5.6400,1.880
5.6800,1.891
5.7200,1.856
5.7600,1.862
5.8000,1.855
5.8400,1.841
5.8800,1.809
5.9200,1.823
5.9600,1.785
6.0000,1.722
6.0400,1.767
6.0800,1.752
6.1200,1.759
6.1600,1.689
6.2000,1.746
6.2400,1.738
6.2800,1.720
6.3200,1.679
6.3600,1.683
6.4000,1.669
6.4400,1.611
6.4800,1.602
6.5200,1.635
6.5600,1.639
6.6000,1.556
6.6400,1.549
6.6800,1.591
6.7200,1.560
6.7600,1.539
6.8000,1.569
6.8400,1.524
6.8800,1.489
6.9200,1.459
6.9600,1.479
7.0000,1.448
7.0400,1.477
7.0800,1.426
7.1200,1.436
7.1600,1.465
7.2000,1.415
7.2400,1.426
7.2800,1.480
7.3200,1.428
7.3600,1.427
7.4000,1.444
7.4400,1.414
7.4800,1.434
7.5200,1.388
7.5600,1.450
7.6000,1.428
7.6400,1.394
7.6800,1.392
7.7200,1.416
7.7600,1.448
7.8000,1.410
7.8400,1.410
7.8800,1.423
7.9200,1.376
7.9600,1.461
8.0000,1.407
8.0400,1.358
8.0800,1.399
8.1200,1.445
8.1600,1.382
8.2000,1.418
8.2400,1.415
8.2800,1.409
8.3200,1.361
8.3600,1.362
8.4000,1.368
8.4400,1.397
8.4800,1.438
8.5200,1.434
8.5600,1.392
8.6000,1.417
8.6400,1.377
8.6800,1.378
8.7200,1.376
8.7600,1.403
8.8000,1.335
8.8400,1.356
8.8800,1.395
8.9200,1.355
8.9600,1.376
9.0000,1.339
9.0400,1.370
9.0800,1.402
9.1200,1.359
9.1600,1.347
9.2000,1.385
9.2400,1.375
9.2800,1.365
9.3200,1.332
9.3600,1.334
9.4000,1.354
9.4400,1.391
9.4800,1.322
9.5200,1.366
9.5600,1.307
9.6000,1.361
9.6400,1.400
9.6800,1.381
9.7200,1.321
9.7600,1.311
9.8000,1.331
9.8400,1.331
9.8800,1.354
9.9200,1.340
9.9600,1.350
10.0000,1.363
10.0400,1.338
10.0800,1.362
10.1200,1.354
10.1600,1.364
10.2000,1.381
10.2400,1.349
10.2800,1.390
10.3200,1.328
10.3600,1.296
10.4000,1.333
10.4400,1.345
10.4800,1.374
10.5200,1.314
10.5600,1.353
10.6000,1.307
10.6400,1.284
10.6800,1.352
10.7200,1.371
10.7600,1.336
10.8000,1.341
10.8400,1.310
10.8800,1.264
10.9200,1.358
10.9600,1.270
11.0000,1.299
11.0400,1.319
11.0800,1.320
11.1200,1.353
11.1600,1.323
11.2000,1.326
11.2400,1.278
11.2800,1.272
11.3200,1.316
11.3600,1.246
11.4000,1.296
11.4400,1.290
11.4800,1.273
11.5200,1.271
11.5600,1.352
11.6000,1.280
11.6400,1.275
11.6800,1.292
11.7200,1.319
11.7600,1.325
11.8000,1.287
11.8400,1.321
11.8800,1.302
11.9200,1.333
11.9600,1.248
12.0000,1.294
12.0400,1.291
12.0800,1.272
12.1200,1.306
12.1600,1.257
12.2000,1.292
12.2400,1.278
12.2800,1.295
12.3200,1.303
12.3600,1.253
12.4000,1.292
12.4400,1.300
12.4800,1.289
12.5200,1.304
12.5600,1.313
12.6000,1.251
12.6400,1.275
12.6800,1.263
12.7200,1.218
12.7600,1.281
12.8000,1.299
12.8400,1.245
12.8800,1.284
12.9200,1.306
12.9600,1.221
13.0000,1.216
13.0400,1.244
13.0800,1.245
13.1200,1.208
13.1600,1.217
13.2000,1.214
13.2400,1.276
13.2800,1.244
13.3200,1.281
13.3600,1.255
13.4000,1.231
13.4400,1.262
13.4800,1.211
13.5200,1.198
13.5600,1.225
13.6000,1.244
13.6400,1.251
13.6800,1.245
13.7200,1.235
13.7600,1.273
13.8000,1.214
13.8400,1.264
13.8800,1.225
13.9200,1.210
13.9600,1.221
14.0000,1.217
14.0400,1.233
14.0800,1.238
14.1200,1.154
14.1600,1.171
14.2000,1.230
14.2400,1.163
14.2800,1.217
14.3200,1.215
14.3600,1.183
14.4000,1.216
14.4400,1.176
14.4800,1.215
14.5200,1.201
14.5600,1.175
14.6000,1.216
14.6400,1.181
14.6800,1.240
14.7200,1.254
14.7600,1.224
14.8000,1.197
14.8400,1.199
14.8800,1.204
14.9200,1.181
14.9600,1.192
15.0000,1.170
15.0400,1.167
15.0800,1.163
15.1200,1.184
15.1600,1.188
15.2000,1.149
15.2400,1.162
15.2800,1.221
15.3200,1.204
15.3600,1.218
15.4000,1.191
15.4400,1.178
15.4800,1.177
15.5200,1.205
15.5600,1.150
15.6000,1.186
15.6400,1.168
15.6800,1.125
15.7200,1.190
15.7600,1.169
15.8000,1.184
15.8400,1.167
15.8800,1.194
15.9200,1.198
15.9600,1.143
16.0000,1.156
16.0400,1.156
16.0800,1.164
16.1200,1.133
16.1600,1.109
16.2000,1.205
16.2400,1.164
16.2800,1.186
16.3200,1.150
16.3600,1.155
16.4000,1.172
16.4400,1.162
16.4800,1.131
16.5200,1.160
16.5600,1.158
16.6000,1.166
16.6400,1.160
16.6800,1.116
16.7200,1.160
16.7600,1.136
16.8000,1.122
16.8400,1.192
16.8800,1.170
16.9200,1.152
16.9600,1.157
17.0000,1.167
17.0400,1.153
17.0800,1.172
17.1200,1.121
17.1600,1.090
17.2000,1.100
17.2400,1.115
17.2800,1.134
17.3200,1.141
17.3600,1.138
17.4000,1.160
17.4400,1.169
17.4800,1.149
17.5200,1.149
17.5600,1.122
17.6000,1.103
17.6400,1.127
17.6800,1.148
17.7200,1.167
17.7600,1.121
17.8000,1.135
17.8400,1.173
17.8800,1.122
17.9200,1.146
17.9600,1.158
18.0000,1.160
18.0400,1.168
18.0800,1.157
18.1200,1.131
18.1600,1.101
18.2000,1.116
18.2400,1.129
18.2800,1.105
18.3200,1.096
18.3600,1.131
18.4000,1.151
18.4400,1.089
18.4800,1.099
18.5200,1.133
18.5600,1.146
18.6000,1.117
18.6400,1.158
18.6800,1.189
18.7200,1.106
18.7600,1.107
18.8000,1.090
18.8400,1.172
18.8800,1.163
18.9200,1.145
18.9600,1.151
19.0000,1.124
19.0400,1.167
19.0800,1.159
19.1200,1.125
19.1600,1.138
19.2000,1.152
19.2400,1.154
19.2800,1.136
19.3200,1.112
19.3600,1.141
19.4000,1.118
19.4400,1.106
19.4800,1.110
19.5200,1.120
19.5600,1.126
19.6000,1.149
19.6400,1.129
19.6800,1.110
19.7200,1.121
19.7600,1.087
19.8000,1.126
19.8400,1.112
19.8800,1.080
19.9200,1.174
19.9600,1.081
20.0000,1.087
20.0400,1.096
20.0800,1.055
20.1200,1.116
20.1600,1.141
20.2000,1.123
20.2400,1.111
20.2800,1.070
20.3200,1.100
20.3600,1.115
20.4000,1.119
20.4400,1.116
20.4800,1.114
20.5200,1.126
20.5600,1.105
20.6000,1.104
20.6400,1.065
20.6800,1.080
20.7200,1.064
20.7600,1.098
20.8000,1.066
20.8400,1.108
20.8800,1.089
20.9200,1.074
20.9600,1.059
21.0000,1.114
21.0400,1.113
21.0800,1.057
21.1200,1.044
21.1600,1.085
21.2000,1.084
21.2400,1.108
21.2800,1.087
21.3200,1.077
21.3600,1.062
21.4000,1.038
21.4400,1.063
21.4800,1.086
21.5200,1.025
21.5600,1.036
21.6000,1.040
21.6400,1.040
21.6800,1.115
21.7200,1.088
21.7600,1.072
21.8000,1.050
21.8400,1.081
21.8800,1.038
21.9200,1.051
21.9600,0.996
22.0000,1.055
22.0400,1.028
22.0800,0.998
22.1200,0.994
22.1600,1.017
22.2000,1.021
22.2400,0.995
22.2800,0.997
22.3200,1.030
22.3600,1.016
22.4000,1.002
22.4400,0.998
22.4800,1.001
22.5200,1.040
22.5600,1.011
22.6000,0.983
22.6400,1.020
22.6800,0.979
22.7200,1.052
22.7600,0.995
22.8000,0.988
22.8400,0.951
22.8800,0.970
22.9200,0.971
22.9600,1.010
23.0000,0.978
23.0400,0.988
23.0800,1.030
23.1200,1.036
23.1600,0.939
23.2000,0.952
23.2400,1.001
23.2800,0.969
23.3200,0.986
23.3600,0.995
23.4000,0.947
23.4400,0.914
23.4800,0.972
23.5200,0.935
23.5600,0.941
23.6000,0.952
23.6400,0.915
23.6800,0.925
23.7200,0.903
23.7600,0.897
23.8000,0.935
23.8400,0.948
23.8800,0.949
23.9200,0.928
23.9600,0.934
24.0000,0.906
24.0400,0.945
24.0800,0.917
24.1200,0.869
24.1600,0.934
24.2000,0.915
24.2400,0.920
24.2800,0.895
24.3200,0.959
24.3600,0.863
24.4000,0.906
24.4400,0.920
24.4800,0.883
24.5200,0.911
24.5600,0.859
24.6000,0.866
24.6400,0.949
24.6800,0.853
24.7200,0.888
24.7600,0.913
24.8000,0.904
24.8400,0.867
24.8800,0.887
24.9200,0.844
24.9600,0.867
25.0000,0.895
25.0400,0.845
25.0800,0.857
25.1200,0.863
25.1600,0.872
25.2000,0.840
25.2400,0.905
25.2800,0.862
25.3200,0.831
25.3600,0.850
25.4000,0.842
25.4400,0.889
25.4800,0.877
25.5200,0.856
25.5600,0.816
25.6000,0.845
25.6400,0.823
25.6800,0.835
25.7200,0.815
25.7600,0.822
25.8000,0.828
25.8400,0.839
25.8800,0.832
25.9200,0.814
25.9600,0.836
26.0000,0.830
26.0400,0.888
26.0800,0.835
26.1200,0.816
26.1600,0.826
26.2000,0.821
26.2400,0.846
26.2800,0.802
26.3200,0.831
26.3600,0.834
26.4000,0.823
26.4400,0.797
26.4800,0.786
26.5200,0.797
26.5600,0.791
26.6000,0.776
26.6400,0.768
26.6800,0.798
26.7200,0.810
26.7600,0.790
26.8000,0.793
26.8400,0.787
26.8800,0.757
26.9200,0.798
26.9600,0.811
27.0000,0.755
27.0400,0.791
27.0800,0.769
27.1200,0.791
27.1600,0.788
27.2000,0.759
27.2400,0.754
27.2800,0.769
27.3200,0.755
27.3600,0.746
27.4000,0.748
27.4400,0.744
27.4800,0.775
27.5200,0.737
27.5600,0.731
27.6000,0.716
27.6400,0.745
27.6800,0.790
27.7200,0.740
27.7600,0.708
27.8000,0.728
27.8400,0.744
27.8800,0.761
27.9200,0.709
27.9600,0.741
28.0000,0.712
28.0400,0.708
28.0800,0.722
28.1200,0.739
28.1600,0.715
28.2000,0.719
28.2400,0.751
28.2800,0.696
28.3200,0.709
28.3600,0.719
28.4000,0.675
28.4400,0.695
28.4800,0.704
28.5200,0.695
28.5600,0.714
28.6000,0.692
28.6400,0.698
28.6800,0.701
28.7200,0.691
28.7600,0.682
28.8000,0.717
28.8400,0.686
28.8800,0.671
28.9200,0.677
28.9600,0.679
29.0000,0.728
29.0400,0.667
29.0800,0.679
29.1200,0.656
29.1600,0.657
29.2000,0.666
29.2400,0.670
29.2800,0.668
29.3200,0.673
29.3600,0.673
29.4000,0.657
29.4400,0.671
29.4800,0.619
29.5200,0.672
29.5600,0.613
29.6000,0.683
29.6400,0.670
29.6800,0.644
29.7200,0.639
29.7600,0.644
29.8000,0.631
29.8400,0.666
29.8800,0.695
29.9200,0.617
29.9600,0.653
30.0000,0.643
30.0400,0.651
30.0800,0.663
30.1200,0.651
30.1600,0.639
30.2000,0.644
30.2400,0.644
30.2800,0.670
30.3200,0.622
30.3600,0.631
30.4000,0.633
30.4400,0.635
30.4800,0.633
30.5200,0.650
30.5600,0.652
30.6000,0.596
30.6400,0.624
30.6800,0.634
30.7200,0.633
30.7600,0.606
30.8000,0.605
30.8400,0.606
30.8800,0.632
30.9200,0.613
30.9600,0.570
31.0000,0.625
31.0400,0.599
31.0800,0.613
31.1200,0.596
31.1600,0.594
31.2000,0.631
31.2400,0.624
31.2800,0.600
31.3200,0.616
31.3600,0.589
31.4000,0.591
31.4400,0.593
31.4800,0.603
31.5200,0.587
31.5600,0.556
31.6000,0.573
31.6400,0.598
31.6800,0.597
31.7200,0.565
31.7600,0.588
31.8000,0.619
31.8400,0.598
31.8800,0.587
31.9200,0.589
31.9600,0.574
32.0000,0.587
32.0400,0.590
32.0800,0.574
32.1200,0.569
32.1600,0.557
32.2000,0.562
32.2400,0.589
32.2800,0.556
32.3200,0.557
32.3600,0.577
32.4000,0.585
32.4400,0.561
32.4800,0.590
32.5200,0.581
32.5600,0.545
32.6000,0.552
32.6400,0.540
32.6800,0.554
32.7200,0.570
32.7600,0.553
32.8000,0.552
32.8400,0.551
32.8800,0.562
32.9200,0.543
32.9600,0.548
33.0000,0.530
33.0400,0.545
33.0800,0.581
33.1200,0.560
33.1600,0.523
33.2000,0.549
33.2400,0.543
33.2800,0.539
33.3200,0.544
33.3600,0.573
33.4000,0.549
33.4400,0.512
33.4800,0.525
33.5200,0.520
33.5600,0.541
33.6000,0.544
33.6400,0.571
33.6800,0.527
33.7200,0.543
33.7600,0.556
33.8000,0.534
33.8400,0.550
33.8800,0.524
33.9200,0.525
33.9600,0.526
34.0000,0.543
34.0400,0.528
34.0800,0.522
34.1200,0.542
34.1600,0.498
34.2000,0.517
34.2400,0.535
34.2800,0.531
34.3200,0.531
34.3600,0.499
34.4000,0.530
34.4400,0.539
34.4800,0.491
34.5200,0.515
34.5600,0.501
34.6000,0.485
34.6400,0.502
34.6800,0.513
34.7200,0.485
34.7600,0.543
34.8000,0.524
34.8400,0.508
34.8800,0.497
34.9200,0.499
34.9600,0.497
35.0000,0.515
35.0400,0.531
35.0800,0.498
35.1200,0.494
35.1600,0.485
35.2000,0.496
35.2400,0.483
35.2800,0.479
35.3200,0.518
35.3600,0.491
35.4000,0.514
35.4400,0.512
35.4800,0.516
35.5200,0.494
35.5600,0.521
35.6000,0.525
35.6400,0.493
35.6800,0.480
35.7200,0.478
35.7600,0.483
35.8000,0.482
35.8400,0.492
35.8800,0.468
35.9200,0.494
35.9600,0.536
36.0000,0.488
36.0400,0.484
36.0800,0.483
36.1200,0.513
36.1600,0.487
36.2000,0.504
36.2400,0.492
36.2800,0.477
36.3200,0.482
36.3600,0.503
36.4000,0.477
36.4400,0.476
36.4800,0.466
36.5200,0.499
36.5600,0.503
36.6000,0.473
36.6400,0.468
36.6800,0.459
36.7200,0.487
36.7600,0.456
36.8000,0.491
36.8400,0.492
36.8800,0.501
36.9200,0.513
36.9600,0.474
37.0000,0.475
37.0400,0.482
37.0800,0.478
37.1200,0.463
37.1600,0.458
37.2000,0.463
37.2400,0.501
37.2800,0.480
37.3200,0.493
37.3600,0.477
37.4000,0.482
37.4400,0.509
37.4800,0.513
37.5200,0.485
37.5600,0.526
37.6000,0.530
37.6400,0.490
37.6800,0.519
37.7200,0.536
37.7600,0.534
37.8000,0.556
37.8400,0.592
37.8800,0.585
37.9200,0.593
37.9600,0.626
38.0000,0.667
38.0400,0.720
38.0800,0.820
38.1200,0.948
38.1600,1.082
38.2000,1.277
38.2400,1.476
38.2800,1.872
38.3200,2.395
38.3600,3.204
38.4000,3.970
38.4400,4.747
38.4800,5.023
38.5200,5.049
38.5600,4.661
38.6000,4.026
38.6400,3.370
38.6800,2.692
38.7200,2.080
38.7600,1.759
38.8000,1.485
38.8400,1.264
38.8800,1.056
38.9200,0.971
38.9600,0.807
39.0000,0.798
39.0400,0.695
39.0800,0.663
39.1200,0.638
39.1600,0.612
39.2000,0.589
39.2400,0.532
39.2800,0.552
39.3200,0.535
39.3600,0.507
39.4000,0.503
39.4400,0.497
39.4800,0.471
39.5200,0.461
39.5600,0.478
39.6000,0.440
39.6400,0.422
39.6800,0.453
39.7200,0.454
39.7600,0.467
39.8000,0.483
39.8400,0.457
39.8800,0.438
39.9200,0.421
39.9600,0.406
40.0000,0.439
40.0400,0.424
40.0800,0.447
40.1200,0.424
40.1600,0.401
40.2000,0.399
40.2400,0.443
40.2800,0.418
40.3200,0.440
40.3600,0.423
40.4000,0.410
40.4400,0.389
40.4800,0.434
40.5200,0.404
40.5600,0.419
40.6000,0.384
40.6400,0.405
40.6800,0.387
40.7200,0.416
40.7600,0.373
40.8000,0.404
40.8400,0.373
40.8800,0.406
40.9200,0.378
40.9600,0.392
41.0000,0.397
41.0400,0.389
41.0800,0.402
41.1200,0.400
41.1600,0.392
41.2000,0.421
41.2400,0.395
41.2800,0.368
41.3200,0.382
41.3600,0.362
41.4000,0.393
41.4400,0.391
41.4800,0.381
41.5200,0.378
41.5600,0.361
41.6000,0.389
41.6400,0.392
41.6800,0.368
41.7200,0.377
41.7600,0.355
41.8000,0.366
41.8400,0.358
41.8800,0.370
41.9200,0.369
41.9600,0.368
42.0000,0.370
42.0400,0.378
42.0800,0.392
42.1200,0.404
42.1600,0.388
42.2000,0.390
42.2400,0.374
42.2800,0.369
42.3200,0.382
42.3600,0.380
42.4000,0.370
42.4400,0.372
42.4800,0.345
42.5200,0.381
42.5600,0.372
42.6000,0.348
42.6400,0.373
42.6800,0.382
42.7200,0.361
42.7600,0.388
42.8000,0.365
42.8400,0.361
42.8800,0.353
42.9200,0.374
42.9600,0.377
43.0000,0.367
43.0400,0.374
43.0800,0.361
43.1200,0.360
43.1600,0.405
43.2000,0.363
43.2400,0.380
43.2800,0.387
43.3200,0.396
43.3600,0.374
43.4000,0.387
43.4400,0.364
43.4800,0.391
43.5200,0.373
43.5600,0.381
43.6000,0.387
43.6400,0.383
43.6800,0.397
43.7200,0.407
43.7600,0.372
43.8000,0.379
43.8400,0.431
43.8800,0.403
43.9200,0.405
43.9600,0.438
44.0000,0.453
44.0400,0.430
44.0800,0.473
44.1200,0.464
44.1600,0.495
44.2000,0.524
44.2400,0.514
44.2800,0.577
44.3200,0.645
44.3600,0.647
44.4000,0.678
44.4400,0.832
44.4800,0.908
44.5200,1.083
44.5600,1.195
44.6000,1.396
44.6400,1.605
44.6800,1.831
44.7200,1.954
44.7600,1.895
44.8000,1.870
44.8400,1.681
44.8800,1.533
44.9200,1.351
44.9600,1.216
45.0000,1.047
45.0400,0.891
45.0800,0.800
45.1200,0.720
45.1600,0.668
45.2000,0.614
45.2400,0.545
45.2800,0.561
45.3200,0.490
45.3600,0.434
45.4000,0.476
45.4400,0.429
45.4800,0.434
45.5200,0.425
45.5600,0.381
45.6000,0.396
45.6400,0.369
45.6800,0.376
45.7200,0.365
45.7600,0.339
45.8000,0.354
45.8400,0.382
45.8800,0.347
45.9200,0.360
45.9600,0.365
46.0000,0.347
46.0400,0.340
46.0800,0.320
46.1200,0.324
46.1600,0.349
46.2000,0.310
46.2400,0.331
46.2800,0.335
46.3200,0.308
46.3600,0.314
46.4000,0.304
46.4400,0.311
46.4800,0.318
46.5200,0.321
46.5600,0.307
46.6000,0.311
46.6400,0.300
46.6800,0.305
46.7200,0.330
46.7600,0.310
46.8000,0.316
46.8400,0.296
46.8800,0.296
46.9200,0.312
46.9600,0.279
47.0000,0.287
47.0400,0.303
47.0800,0.322
47.1200,0.310
47.1600,0.288
47.2000,0.296
47.2400,0.294
47.2800,0.315
47.3200,0.318
47.3600,0.288
47.4000,0.320
47.4400,0.290
47.4800,0.310
47.5200,0.306
47.5600,0.299
47.6000,0.281
47.6400,0.306
47.6800,0.285
47.7200,0.260
47.7600,0.281
47.8000,0.314
47.8400,0.292
47.8800,0.269
47.9200,0.279
47.9600,0.293
48.0000,0.264
48.0400,0.278
48.0800,0.270
48.1200,0.288
48.1600,0.275
48.2000,0.272
48.2400,0.261
48.2800,0.267
48.3200,0.258
48.3600,0.275
48.4000,0.293
48.4400,0.282
48.4800,0.264
48.5200,0.277
48.5600,0.258
48.6000,0.286
48.6400,0.266
48.6800,0.265
48.7200,0.263
48.7600,0.280
48.8000,0.253
48.8400,0.272
48.8800,0.282
48.9200,0.264
48.9600,0.270
49.0000,0.275
49.0400,0.285
49.0800,0.262
49.1200,0.270
49.1600,0.251
49.2000,0.272
49.2400,0.266
49.2800,0.275
49.3200,0.279
49.3600,0.279
49.4000,0.261
49.4400,0.260
49.4800,0.259
49.5200,0.278
49.5600,0.253
49.6000,0.253
49.6400,0.267
49.6800,0.248
49.7200,0.242
49.7600,0.254
49.8000,0.251
49.8400,0.270
49.8800,0.258
49.9200,0.256
49.9600,0.263
50.0000,0.269
50.0400,0.249
50.0800,0.261
50.1200,0.240
50.1600,0.244
50.2000,0.253
50.2400,0.262
50.2800,0.275
50.3200,0.244
50.3600,0.256
50.4000,0.271
50.4400,0.241
50.4800,0.264
50.5200,0.248
50.5600,0.254
50.6000,0.241
50.6400,0.266
50.6800,0.260
50.7200,0.242
50.7600,0.226
50.8000,0.245
50.8400,0.239
50.8800,0.255
50.9200,0.255
50.9600,0.252
51.0000,0.248
51.0400,0.256
51.0800,0.245
51.1200,0.248
51.1600,0.236
51.2000,0.228
51.2400,0.233
51.2800,0.256
51.3200,0.247
51.3600,0.237
51.4000,0.242
51.4400,0.271
51.4800,0.241
51.5200,0.236
51.5600,0.253
51.6000,0.229
51.6400,0.253
51.6800,0.252
51.7200,0.251
51.7600,0.230
51.8000,0.231
51.8400,0.246
51.8800,0.231
51.9200,0.252
51.9600,0.241
52.0000,0.232
52.0400,0.244
52.0800,0.256
52.1200,0.230
52.1600,0.222
52.2000,0.233
52.2400,0.241
52.2800,0.262
52.3200,0.248
52.3600,0.229
52.4000,0.234
52.4400,0.239
52.4800,0.234
52.5200,0.236
52.5600,0.240
52.6000,0.253
52.6400,0.251
52.6800,0.223
52.7200,0.270
52.7600,0.211
52.8000,0.239
52.8400,0.226
52.8800,0.241
52.9200,0.219
52.9600,0.221
53.0000,0.222
53.0400,0.234
53.0800,0.226
53.1200,0.240
53.1600,0.230
53.2000,0.207
53.2400,0.227
53.2800,0.210
53.3200,0.211
53.3600,0.228
53.4000,0.251
53.4400,0.226
53.4800,0.225
53.5200,0.226
53.5600,0.226
53.6000,0.237
53.6400,0.228
53.6800,0.223
53.7200,0.227
53.7600,0.225
53.8000,0.218
53.8400,0.216
53.8800,0.254
53.9200,0.213
53.9600,0.225
54.0000,0.224
54.0400,0.230
54.0800,0.233
54.1200,0.210
54.1600,0.225
54.2000,0.249
54.2400,0.218
54.2800,0.233
54.3200,0.226
54.3600,0.220
54.4000,0.214
54.4400,0.228
54.4800,0.224
54.5200,0.220
54.5600,0.212
54.6000,0.219
54.6400,0.220
54.6800,0.220
54.7200,0.221
54.7600,0.234
54.8000,0.224
54.8400,0.226
54.8800,0.210
54.9200,0.240
54.9600,0.226
55.0000,0.239
55.0400,0.221
55.0800,0.223
55.1200,0.218
55.1600,0.239
55.2000,0.233
55.2400,0.249
55.2800,0.214
55.3200,0.221
55.3600,0.211
55.4000,0.227
55.4400,0.222
55.4800,0.230
55.5200,0.212
55.5600,0.209
55.6000,0.221
55.6400,0.222
55.6800,0.206
55.7200,0.206
55.7600,0.215
55.8000,0.231
55.8400,0.215
55.8800,0.203
55.9200,0.199
55.9600,0.217
56.0000,0.234
56.0400,0.213
56.0800,0.210
56.1200,0.217
56.1600,0.208
56.2000,0.198
56.2400,0.198
56.2800,0.202
56.3200,0.207
56.3600,0.202
56.4000,0.208
56.4400,0.209
56.4800,0.225
56.5200,0.216
56.5600,0.219
56.6000,0.235
56.6400,0.201
56.6800,0.225
56.7200,0.201
56.7600,0.212
56.8000,0.200
56.8400,0.206
56.8800,0.206
56.9200,0.224
56.9600,0.229
57.0000,0.197
57.0400,0.199
57.0800,0.200
57.1200,0.208
57.1600,0.206
57.2000,0.179
57.2400,0.205
57.2800,0.191
57.3200,0.195
57.3600,0.223
57.4000,0.205
57.4400,0.200
57.4800,0.223
57.5200,0.207
57.5600,0.201
57.6000,0.220
57.6400,0.206
57.6800,0.202
57.7200,0.189
57.7600,0.205
57.8000,0.211
57.8400,0.197
57.8800,0.213
57.9200,0.199
57.9600,0.209
58.0000,0.215
58.0400,0.184
58.0800,0.195
58.1200,0.218
58.1600,0.209
58.2000,0.208
58.2400,0.207
58.2800,0.202
58.3200,0.219
58.3600,0.206
58.4000,0.192
58.4400,0.194
58.4800,0.197
58.5200,0.206
58.5600,0.213
58.6000,0.195
58.6400,0.185
58.6800,0.190
58.7200,0.195
58.7600,0.195
58.8000,0.203
58.8400,0.203
58.8800,0.182
58.9200,0.198
58.9600,0.198
59.0000,0.210
59.0400,0.177
59.0800,0.195
59.1200,0.199
59.1600,0.209
59.2000,0.197
59.2400,0.195
59.2800,0.203
59.3200,0.204
59.3600,0.212
59.4000,0.211
59.4400,0.200
59.4800,0.193
59.5200,0.206
59.5600,0.213
59.6000,0.188
59.6400,0.192
59.6800,0.188
59.7200,0.217
59.7600,0.195
59.8000,0.210
59.8400,0.231
59.8800,0.186
59.9200,0.190
59.9600,0.207
60.0000,0.191
60.0400,0.210
60.0800,0.203
60.1200,0.196
60.1600,0.185
60.2000,0.208
60.2400,0.205
60.2800,0.208
60.3200,0.210
60.3600,0.208
60.4000,0.208
60.4400,0.203
60.4800,0.198
60.5200,0.184
60.5600,0.194
60.6000,0.186
60.6400,0.203
60.6800,0.201
60.7200,0.203
60.7600,0.228
60.8000,0.200
60.8400,0.190
60.8800,0.197
60.9200,0.199
60.9600,0.193
61.0000,0.196
61.0400,0.202
61.0800,0.204
61.1200,0.203
61.1600,0.204
61.2000,0.207
61.2400,0.199
61.2800,0.205
61.3200,0.205
61.3600,0.197
61.4000,0.176
61.4400,0.201
61.4800,0.194
61.5200,0.214
61.5600,0.201
61.6000,0.183
61.6400,0.211
61.6800,0.217
61.7200,0.189
61.7600,0.203
61.8000,0.189
61.8400,0.201
61.8800,0.202
61.9200,0.212
61.9600,0.204
62.0000,0.195
62.0400,0.210
62.0800,0.192
62.1200,0.192
62.1600,0.208
62.2000,0.203
62.2400,0.216
62.2800,0.201
62.3200,0.203
62.3600,0.203
62.4000,0.213
62.4400,0.217
62.4800,0.188
62.5200,0.210
62.5600,0.198
62.6000,0.196
62.6400,0.208
62.6800,0.210
62.7200,0.213
62.7600,0.220
62.8000,0.191
62.8400,0.209
62.8800,0.215
62.9200,0.202
62.9600,0.210
63.0000,0.215
63.0400,0.203
63.0800,0.207
63.1200,0.205
63.1600,0.206
63.2000,0.226
63.2400,0.224
63.2800,0.209
63.3200,0.203
63.3600,0.208
63.4000,0.227
63.4400,0.214
63.4800,0.216
63.5200,0.227
63.5600,0.216
63.6000,0.219
63.6400,0.235
63.6800,0.227
63.7200,0.223
63.7600,0.231
63.8000,0.238
63.8400,0.220
63.8800,0.243
63.9200,0.217
63.9600,0.237
64.0000,0.246
64.0400,0.236
64.0800,0.249
64.1200,0.243
64.1600,0.240
64.2000,0.231
64.2400,0.247
64.2800,0.278
64.3200,0.253
64.3600,0.269
64.4000,0.269
64.4400,0.290
64.4800,0.293
64.5200,0.325
64.5600,0.317
64.6000,0.324
64.6400,0.365
64.6800,0.392
64.7200,0.383
64.7600,0.443
64.8000,0.475
64.8400,0.507
64.8800,0.633
64.9200,0.674
64.9600,0.739
65.0000,0.819
65.0400,0.919
65.0800,0.934
65.1200,0.949
65.1600,0.929
65.2000,0.901
65.2400,0.881
65.2800,0.802
65.3200,0.779
65.3600,0.732
65.4000,0.662
65.4400,0.606
65.4800,0.527
65.5200,0.504
65.5600,0.478
65.6000,0.465
65.6400,0.436
65.6800,0.410
65.7200,0.360
65.7600,0.376
65.8000,0.357
65.8400,0.355
65.8800,0.349
65.9200,0.341
65.9600,0.347
66.0000,0.313
66.0400,0.314
66.0800,0.324
66.1200,0.312
66.1600,0.341
66.2000,0.337
66.2400,0.322
66.2800,0.349
66.3200,0.301
66.3600,0.319
66.4000,0.328
66.4400,0.346
66.4800,0.317
66.5200,0.332
66.5600,0.321
66.6000,0.342
66.6400,0.331
66.6800,0.326
66.7200,0.322
66.7600,0.343
66.8000,0.353
66.8400,0.369
66.8800,0.357
66.9200,0.350
66.9600,0.327
67.0000,0.357
67.0400,0.344
67.0800,0.344
67.1200,0.360
67.1600,0.361
67.2000,0.368
67.2400,0.381
67.2800,0.370
67.3200,0.390
67.3600,0.412
67.4000,0.418
67.4400,0.402
67.4800,0.417
67.5200,0.422
67.5600,0.453
67.6000,0.459
67.6400,0.422
67.6800,0.417
67.7200,0.444
67.7600,0.437
67.8000,0.470
67.8400,0.452
67.8800,0.469
67.9200,0.477
67.9600,0.515
68.0000,0.501
68.0400,0.535
68.0800,0.525
68.1200,0.555
68.1600,0.522
68.2000,0.574
68.2400,0.584
68.2800,0.592
68.3200,0.641
68.3600,0.617
68.4000,0.662
68.4400,0.657
68.4800,0.692
68.5200,0.717
68.5600,0.719
68.6000,0.766
68.6400,0.862
68.6800,0.959
68.7200,1.064
68.7600,1.435
68.8000,1.717
68.8400,1.932
68.8800,2.001
68.9200,2.219
68.9600,2.515
69.0000,3.649
69.0400,7.022
69.0800,24.634
69.1200,67.450
69.1600,103.020
69.2000,93.344
69.2400,49.092
69.2800,24.178
69.3200,38.650
69.3600,55.491
69.4000,49.103
69.4400,24.151
69.4800,7.165
69.5200,3.324
69.5600,2.336
69.6000,1.866
69.6400,1.540
69.6800,1.401
69.7200,1.210
69.7600,1.137
69.8000,1.036
69.8400,0.986
69.8800,0.923
69.9200,0.877
69.9600,0.824
70.0000,0.805
70.0400,0.762
70.0800,0.739
70.1200,0.723
70.1600,0.693
70.2000,0.665
70.2400,0.624
70.2800,0.638
70.3200,0.610
70.3600,0.616
70.4000,0.552
70.4400,0.573
70.4800,0.543
70.5200,0.535
70.5600,0.538
70.6000,0.540
70.6400,0.522
70.6800,0.481
70.7200,0.472
70.7600,0.500
70.8000,0.492
70.8400,0.485
70.8800,0.449
70.9200,0.421
70.9600,0.437
71.0000,0.447
71.0400,0.396
71.0800,0.407
71.1200,0.423
71.1600,0.419
71.2000,0.376
71.2400,0.357
71.2800,0.380
71.3200,0.359
71.3600,0.407
71.4000,0.346
71.4400,0.335
71.4800,0.353
71.5200,0.366
71.5600,0.364
71.6000,0.338
71.6400,0.335
71.6800,0.319
71.7200,0.303
71.7600,0.311
71.8000,0.298
71.8400,0.318
71.8800,0.292
71.9200,0.315
71.9600,0.324
72.0000,0.309
72.0400,0.296
72.0800,0.317
72.1200,0.288
72.1600,0.285
72.2000,0.286
72.2400,0.286
72.2800,0.274
72.3200,0.269
72.3600,0.269
72.4000,0.244
72.4400,0.237
72.4800,0.255
72.5200,0.253
72.5600,0.249
72.6000,0.244
72.6400,0.257
72.6800,0.260
72.7200,0.241
72.7600,0.239
72.8000,0.245
72.8400,0.252
72.8800,0.252
72.9200,0.245
72.9600,0.236
73.0000,0.227
73.0400,0.250
73.0800,0.237
73.1200,0.243
73.1600,0.236
73.2000,0.226
73.2400,0.208
73.2800,0.235
73.3200,0.225
73.3600,0.215
73.4000,0.221
73.4400,0.209
73.4800,0.225
73.5200,0.225
73.5600,0.208
73.6000,0.210
73.6400,0.209
73.6800,0.232
73.7200,0.203
73.7600,0.228
73.8000,0.201
73.8400,0.205
73.8800,0.208
73.9200,0.219
73.9600,0.212
74.0000,0.197
74.0400,0.194
74.0800,0.220
74.1200,0.204
74.1600,0.210
74.2000,0.209
74.2400,0.188
74.2800,0.182
74.3200,0.217
74.3600,0.216
74.4000,0.195
74.4400,0.219
74.4800,0.192
74.5200,0.200
74.5600,0.220
74.6000,0.196
74.6400,0.186
74.6800,0.190
74.7200,0.208
74.7600,0.195
74.8000,0.191
74.8400,0.194
74.8800,0.190
74.9200,0.187
74.9600,0.183
75.0000,0.192
75.0400,0.196
75.0800,0.187
75.1200,0.175
75.1600,0.185
75.2000,0.200
75.2400,0.182
75.2800,0.173
75.3200,0.172
75.3600,0.188
75.4000,0.193
75.4400,0.186
75.4800,0.185
75.5200,0.159
75.5600,0.176
75.6000,0.159
75.6400,0.173
75.6800,0.191
75.7200,0.165
75.7600,0.170
75.8000,0.169
75.8400,0.164
75.8800,0.185
75.9200,0.180
75.9600,0.177
76.0000,0.187
76.0400,0.172
76.0800,0.186
76.1200,0.178
76.1600,0.161
76.2000,0.199
76.2400,0.168
76.2800,0.180
76.3200,0.181
76.3600,0.194
76.4000,0.181
76.4400,0.162
76.4800,0.165
76.5200,0.165
76.5600,0.174
76.6000,0.164
76.6400,0.165
76.6800,0.168
76.7200,0.164
76.7600,0.185
76.8000,0.196
76.8400,0.187
76.8800,0.186
76.9200,0.199
76.9600,0.183
77.0000,0.186
77.0400,0.171
77.0800,0.197
77.1200,0.197
77.1600,0.185
77.2000,0.208
77.2400,0.212
77.2800,0.206
77.3200,0.230
77.3600,0.202
77.4000,0.203
77.4400,0.204
77.4800,0.239
77.5200,0.226
77.5600,0.253
77.6000,0.250
77.6400,0.251
77.6800,0.274
77.7200,0.273
77.7600,0.322
77.8000,0.354
77.8400,0.372
77.8800,0.390
77.9200,0.448
77.9600,0.525
78.0000,0.565
78.0400,0.587
78.0800,0.644
78.1200,0.695
78.1600,0.749
78.2000,0.771
78.2400,0.791
78.2800,0.754
78.3200,0.741
78.3600,0.719
78.4000,0.676
78.4400,0.648
78.4800,0.593
78.5200,0.580
78.5600,0.558
78.6000,0.487
78.6400,0.455
78.6800,0.408
78.7200,0.406
78.7600,0.346
78.8000,0.347
78.8400,0.318
78.8800,0.295
78.9200,0.296
78.9600,0.273
79.0000,0.252
79.0400,0.261
79.0800,0.238
79.1200,0.227
79.1600,0.239
79.2000,0.215
79.2400,0.202
79.2800,0.203
79.3200,0.202
79.3600,0.179
79.4000,0.194
79.4400,0.197
79.4800,0.192
79.5200,0.182
79.5600,0.195
79.6000,0.197
79.6400,0.179
79.6800,0.169
79.7200,0.166
79.7600,0.179
79.8000,0.175
79.8400,0.164
79.8800,0.165
79.9200,0.170
79.9600,0.171
80.0000,0.159
