theta,intensity
5.0000,2.492
5.0400,2.134
5.0800,2.299
5.1200,2.193
5.1600,2.314
5.2000,2.217
5.2400,2.257
5.2800,2.141
5.3200,2.093
5.3600,2.139
5.4000,2.136
5.4400,2.162
5.4800,2.131
5.5200,2.128
5.5600,2.080
5.6000,1.996
5.6400,2.039
5.6800,2.028
5.7200,1.966
5.7600,1.972
5.8000,1.978
5.8400,1.938
5.8800,1.954
5.9200,1.910
5.9600,1.884
6.0000,1.922
6.0400,1.834
6.0800,1.819
6.1200,1.840
6.1600,1.773
6.2000,1.783
6.2400,1.754
6.2800,1.708
6.3200,1.748
6.3600,1.679
6.4000,1.688
6.4400,1.671
6.4800,1.648
6.5200,1.610
6.5600,1.610
6.6000,1.556
6.6400,1.562
6.6800,1.605
6.7200,1.527
6.7600,1.562
6.8000,1.525
6.8400,1.555
6.8800,1.524
6.9200,1.556
6.9600,1.505
7.0000,1.538
7.0400,1.502
7.0800,1.513
7.1200,1.520
7.1600,1.457
7.2000,1.440
7.2400,1.482
7.2800,1.408
7.3200,1.507
7.3600,1.470
7.4000,1.452
7.4400,1.486
7.4800,1.531
7.5200,1.453
7.5600,1.519
7.6000,1.478
7.6400,1.426
7.6800,1.502
7.7200,1.410
7.7600,1.465
7.8000,1.520
7.8400,1.476
7.8800,1.451
7.9200,1.453
7.9600,1.463
8.0000,1.446
8.0400,1.482
8.0800,1.442
8.1200,1.456
8.1600,1.436
8.2000,1.499
8.2400,1.459
8.2800,1.483
8.3200,1.488
8.3600,1.418
8.4000,1.403
8.4400,1.485
8.4800,1.450
8.5200,1.472
8.5600,1.460
8.6000,1.433
8.6400,1.443
8.6800,1.405
8.7200,1.428
8.7600,1.439
8.8000,1.431
8.8400,1.420
8.8800,1.458
8.9200,1.426
8.9600,1.367
9.0000,1.445
9.0400,1.413
9.0800,1.353
9.1200,1.433
9.1600,1.422
9.2000,1.471
9.2400,1.388
9.2800,1.370
9.3200,1.421
9.3600,1.367
9.4000,1.390
9.4400,1.459
9.4800,1.441
9.5200,1.414
9.5600,1.371
9.6000,1.430
9.6400,1.410
9.6800,1.402
9.7200,1.390
9.7600,1.406
9.8000,1.391
9.8400,1.409
9.8800,1.374
9.9200,1.379
9.9600,1.423
10.0000,1.467
10.0400,1.439
10.0800,1.393
10.1200,1.346
10.1600,1.379
10.2000,1.419
10.2400,1.424
10.2800,1.377
10.3200,1.421
10.3600,1.431
10.4000,1.377
10.4400,1.390
10.4800,1.342
10.5200,1.403
10.5600,1.380
10.6000,1.392
10.6400,1.393
10.6800,1.376
10.7200,1.388
10.7600,1.417
10.8000,1.383
10.8400,1.378
10.8800,1.368
10.9200,1.381
10.9600,1.369
11.0000,1.289
11.0400,1.381
11.0800,1.338
11.1200,1.385
11.1600,1.345
11.2000,1.350
11.2400,1.357
11.2800,1.343
11.3200,1.351
11.3600,1.362
11.4000,1.397
11.4400,1.359
11.4800,1.359
11.5200,1.280
11.5600,1.423
11.6000,1.384
11.6400,1.364
11.6800,1.359
11.7200,1.340
11.7600,1.387
11.8000,1.316
11.8400,1.331
11.8800,1.313
11.9200,1.358
11.9600,1.317
12.0000,1.345
12.0400,1.378
12.0800,1.331
12.1200,1.362
12.1600,1.340
12.2000,1.342
12.2400,1.381
12.2800,1.372
12.3200,1.383
12.3600,1.307
12.4000,1.309
12.4400,1.358
12.4800,1.358
12.5200,1.339
12.5600,1.351
12.6000,1.343
12.6400,1.344
12.6800,1.325
12.7200,1.315
12.7600,1.313
12.8000,1.337
12.8400,1.290
12.8800,1.321
12.9200,1.370
12.9600,1.305
13.0000,1.330
13.0400,1.310
13.0800,1.342
13.1200,1.321
13.1600,1.333
13.2000,1.283
13.2400,1.334
13.2800,1.336
13.3200,1.310
13.3600,1.316
13.4000,1.301
13.4400,1.294
13.4800,1.381
13.5200,1.342
13.5600,1.315
13.6000,1.316
13.6400,1.319
13.6800,1.314
13.7200,1.296
13.7600,1.316
13.8000,1.252
13.8400,1.293
13.8800,1.339
13.9200,1.346
13.9600,1.307
14.0000,1.292
14.0400,1.275
14.0800,1.355
14.1200,1.325
14.1600,1.329
14.2000,1.288
14.2400,1.291
14.2800,1.306
14.3200,1.304
14.3600,1.275
14.4000,1.329
14.4400,1.268
14.4800,1.321
14.5200,1.291
14.5600,1.306
14.6000,1.328
14.6400,1.273
14.6800,1.226
14.7200,1.266
14.7600,1.267
14.8000,1.249
14.8400,1.256
14.8800,1.247
14.9200,1.237
14.9600,1.275
15.0000,1.319
15.0400,1.302
15.0800,1.269
15.1200,1.273
15.1600,1.287
15.2000,1.218
15.2400,1.250
15.2800,1.273
15.3200,1.244
15.3600,1.256
15.4000,1.201
15.4400,1.253
15.4800,1.229
15.5200,1.235
15.5600,1.272
15.6000,1.295
15.6400,1.308
15.6800,1.279
15.7200,1.296
15.7600,1.257
15.8000,1.270
15.8400,1.253
15.8800,1.295
15.9200,1.234
15.9600,1.237
16.0000,1.229
16.0400,1.252
16.0800,1.256
16.1200,1.237
16.1600,1.262
16.2000,1.252
16.2400,1.217
16.2800,1.261
16.3200,1.241
16.3600,1.280
16.4000,1.253
16.4400,1.223
16.4800,1.202
16.5200,1.219
16.5600,1.221
16.6000,1.264
16.6400,1.277
16.6800,1.263
16.7200,1.287
16.7600,1.344
16.8000,1.252
16.8400,1.242
16.8800,1.278
16.9200,1.271
16.9600,1.235
17.0000,1.260
17.0400,1.235
17.0800,1.279
17.1200,1.278
17.1600,1.263
17.2000,1.213
17.2400,1.219
17.2800,1.207
17.3200,1.228
17.3600,1.244
17.4000,1.229
17.4400,1.243
17.4800,1.270
17.5200,1.242
17.5600,1.228
17.6000,1.228
17.6400,1.194
17.6800,1.304
17.7200,1.247
17.7600,1.256
17.8000,1.235
17.8400,1.232
17.8800,1.273
17.9200,1.236
17.9600,1.277
18.0000,1.256
18.0400,1.209
18.0800,1.249
18.1200,1.280
18.1600,1.224
18.2000,1.312
18.2400,1.220
18.2800,1.259
18.3200,1.272
18.3600,1.222
18.4000,1.270
18.4400,1.276
18.4800,1.251
18.5200,1.308
18.5600,1.226
18.6000,1.266
18.6400,1.279
18.6800,1.214
18.7200,1.253
18.7600,1.240
18.8000,1.233
18.8400,1.254
18.8800,1.252
18.9200,1.234
18.9600,1.276
19.0000,1.247
19.0400,1.343
19.0800,1.271
19.1200,1.281
19.1600,1.253
19.2000,1.296
19.2400,1.264
19.2800,1.288
19.3200,1.257
19.3600,1.231
19.4000,1.268
19.4400,1.228
19.4800,1.269
19.5200,1.275
19.5600,1.269
19.6000,1.268
19.6400,1.251
19.6800,1.304
19.7200,1.275
19.7600,1.245
19.8000,1.217
19.8400,1.268
19.8800,1.231
19.9200,1.184
19.9600,1.212
20.0000,1.194
20.0400,1.250
20.0800,1.244
20.1200,1.272
20.1600,1.226
20.2000,1.227
20.2400,1.236
20.2800,1.327
20.3200,1.209
20.3600,1.255
20.4000,1.264
20.4400,1.273
20.4800,1.262
20.5200,1.275
20.5600,1.227
20.6000,1.217
20.6400,1.242
20.6800,1.294
20.7200,1.253
20.7600,1.295
20.8000,1.288
20.8400,1.286
20.8800,1.255
20.9200,1.210
20.9600,1.282
21.0000,1.241
21.0400,1.243
21.0800,1.255
21.1200,1.219
21.1600,1.217
21.2000,1.218
21.2400,1.236
21.2800,1.263
21.3200,1.212
21.3600,1.177
21.4000,1.281
21.4400,1.212
21.4800,1.252
21.5200,1.266
21.5600,1.208
21.6000,1.208
21.6400,1.189
21.6800,1.205
21.7200,1.182
21.7600,1.183
21.8000,1.187
21.8400,1.177
21.8800,1.222
21.9200,1.175
21.9600,1.226
22.0000,1.188
22.0400,1.170
22.0800,1.152
22.1200,1.186
22.1600,1.156
22.2000,1.159
22.2400,1.206
22.2800,1.197
22.3200,1.168
22.3600,1.134
22.4000,1.146
22.4400,1.163
22.4800,1.148
22.5200,1.158
22.5600,1.134
22.6000,1.133
22.6400,1.137
22.6800,1.095
22.7200,1.118
22.7600,1.131
22.8000,1.163
22.8400,1.114
22.8800,1.146
22.9200,1.115
22.9600,1.141
23.0000,1.126
23.0400,1.061
23.0800,1.117
23.1200,1.103
23.1600,1.095
23.2000,1.066
23.2400,1.089
23.2800,1.077
23.3200,1.084
23.3600,1.088
23.4000,1.059
23.4400,1.130
23.4800,1.044
23.5200,1.042
23.5600,1.058
23.6000,1.069
23.6400,1.094
23.6800,1.078
23.7200,1.030
23.7600,1.049
23.8000,1.023
23.8400,1.018
23.8800,1.058
23.9200,1.024
23.9600,1.041
24.0000,1.062
24.0400,1.026
24.0800,1.005
24.1200,0.993
24.1600,0.982
24.2000,1.048
24.2400,1.014
24.2800,1.002
24.3200,1.009
24.3600,1.034
24.4000,1.013
24.4400,1.025
24.4800,1.001
24.5200,0.977
24.5600,1.051
24.6000,1.021
24.6400,1.007
24.6800,0.935
24.7200,1.010
24.7600,0.983
24.8000,0.965
24.8400,0.945
24.8800,0.965
24.9200,0.978
24.9600,0.971
25.0000,0.966
25.0400,0.953
25.0800,0.947
25.1200,0.981
25.1600,0.946
25.2000,0.948
25.2400,0.968
25.2800,0.940
25.3200,0.932
25.3600,0.901
25.4000,0.901
25.4400,0.909
25.4800,0.933
25.5200,0.936
25.5600,0.927
25.6000,0.904
25.6400,0.935
25.6800,0.915
25.7200,0.894
25.7600,0.855
25.8000,0.915
25.8400,0.940
25.8800,0.863
25.9200,0.918
25.9600,0.903
26.0000,0.868
26.0400,0.884
26.0800,0.888
26.1200,0.922
26.1600,0.864
26.2000,0.906
26.2400,0.890
26.2800,0.870
26.3200,0.874
26.3600,0.862
26.4000,0.857
26.4400,0.888
26.4800,0.862
26.5200,0.848
26.5600,0.886
26.6000,0.843
26.6400,0.862
26.6800,0.850
26.7200,0.855
26.7600,0.831
26.8000,0.842
26.8400,0.836
26.8800,0.846
26.9200,0.845
26.9600,0.827
27.0000,0.816
27.0400,0.846
27.0800,0.827
27.1200,0.834
27.1600,0.841
27.2000,0.792
27.2400,0.799
27.2800,0.817
27.3200,0.804
27.3600,0.812
27.4000,0.809
27.4400,0.807
27.4800,0.759
27.5200,0.809
27.5600,0.768
27.6000,0.821
27.6400,0.803
27.6800,0.773
27.7200,0.756
27.7600,0.770
27.8000,0.752
27.8400,0.769
27.8800,0.781
27.9200,0.795
27.9600,0.782
28.0000,0.761
28.0400,0.770
28.0800,0.765
28.1200,0.771
28.1600,0.806
28.2000,0.767
28.2400,0.756
28.2800,0.759
28.3200,0.743
28.3600,0.753
28.4000,0.742
28.4400,0.727
28.4800,0.769
28.5200,0.743
28.5600,0.761
28.6000,0.770
28.6400,0.726
28.6800,0.736
28.7200,0.749
28.7600,0.752
28.8000,0.771
28.8400,0.722
28.8800,0.755
28.9200,0.727
28.9600,0.720
29.0000,0.732
29.0400,0.733
29.0800,0.713
29.1200,0.714
29.1600,0.734
29.2000,0.719
29.2400,0.711
29.2800,0.703
29.3200,0.702
29.3600,0.709
29.4000,0.692
29.4400,0.706
29.4800,0.706
29.5200,0.726
29.5600,0.710
29.6000,0.694
29.6400,0.715
29.6800,0.680
29.7200,0.690
29.7600,0.704
29.8000,0.696
29.8400,0.680
29.8800,0.695
29.9200,0.690
29.9600,0.682
30.0000,0.658
30.0400,0.694
30.0800,0.673
30.1200,0.665
30.1600,0.729
30.2000,0.693
30.2400,0.675
30.2800,0.670
30.3200,0.645
30.3600,0.685
30.4000,0.672
30.4400,0.617
30.4800,0.672
30.5200,0.660
30.5600,0.671
30.6000,0.723
30.6400,0.680
30.6800,0.657
30.7200,0.680
30.7600,0.671
30.8000,0.678
30.8400,0.679
30.8800,0.657
30.9200,0.636
30.9600,0.657
31.0000,0.694
31.0400,0.621
31.0800,0.635
31.1200,0.663
31.1600,0.658
31.2000,0.624
31.2400,0.687
31.2800,0.642
31.3200,0.638
31.3600,0.650
31.4000,0.627
31.4400,0.624
31.4800,0.647
31.5200,0.668
31.5600,0.602
31.6000,0.613
31.6400,0.610
31.6800,0.602
31.7200,0.617
31.7600,0.600
31.8000,0.605
31.8400,0.616
31.8800,0.622
31.9200,0.612
31.9600,0.605
32.0000,0.614
32.0400,0.622
32.0800,0.620
32.1200,0.608
32.1600,0.593
32.2000,0.615
32.2400,0.621
32.2800,0.588
32.3200,0.631
32.3600,0.609
32.4000,0.582
32.4400,0.576
32.4800,0.599
32.5200,0.582
32.5600,0.616
32.6000,0.629
32.6400,0.611
32.6800,0.571
32.7200,0.597
32.7600,0.590
32.8000,0.568
32.8400,0.553
32.8800,0.585
32.9200,0.577
32.9600,0.567
33.0000,0.585
33.0400,0.597
33.0800,0.572
33.1200,0.590
33.1600,0.553
33.2000,0.543
33.2400,0.563
33.2800,0.582
33.3200,0.598
33.3600,0.548
33.4000,0.586
33.4400,0.575
33.4800,0.598
33.5200,0.559
33.5600,0.573
33.6000,0.546
33.6400,0.584
33.6800,0.614
33.7200,0.596
33.7600,0.533
33.8000,0.543
33.8400,0.548
33.8800,0.569
33.9200,0.555
33.9600,0.562
34.0000,0.559
34.0400,0.603
34.0800,0.553
34.1200,0.539
34.1600,0.562
34.2000,0.542
34.2400,0.564
34.2800,0.539
34.3200,0.537
34.3600,0.533
34.4000,0.534
34.4400,0.522
34.4800,0.562
34.5200,0.545
34.5600,0.539
34.6000,0.540
34.6400,0.545
34.6800,0.541
34.7200,0.561
34.7600,0.561
34.8000,0.538
34.8400,0.506
34.8800,0.508
34.9200,0.549
34.9600,0.515
35.0000,0.499
35.0400,0.535
35.0800,0.532
35.1200,0.546
35.1600,0.560
35.2000,0.496
35.2400,0.536
35.2800,0.506
35.3200,0.533
35.3600,0.535
35.4000,0.490
35.4400,0.495
35.4800,0.514
35.5200,0.529
35.5600,0.535
35.6000,0.544
35.6400,0.482
35.6800,0.503
35.7200,0.519
35.7600,0.508
35.8000,0.547
35.8400,0.516
35.8800,0.506
35.9200,0.536
35.9600,0.530
36.0000,0.505
36.0400,0.488
36.0800,0.538
36.1200,0.506
36.1600,0.537
36.2000,0.505
36.2400,0.497
36.2800,0.519
36.3200,0.499
36.3600,0.504
36.4000,0.548
36.4400,0.520
36.4800,0.490
36.5200,0.523
36.5600,0.482
36.6000,0.507
36.6400,0.487
36.6800,0.493
36.7200,0.502
36.7600,0.471
36.8000,0.495
36.8400,0.496
36.8800,0.491
36.9200,0.462
36.9600,0.493
37.0000,0.483
37.0400,0.467
37.0800,0.483
37.1200,0.481
37.1600,0.472
37.2000,0.514
37.2400,0.497
37.2800,0.502
37.3200,0.478
37.3600,0.464
37.4000,0.518
37.4400,0.483
37.4800,0.507
37.5200,0.522
37.5600,0.520
37.6000,0.483
37.6400,0.558
37.6800,0.550
37.7200,0.544
37.7600,0.563
37.8000,0.634
37.8400,0.719
37.8800,0.807
37.9200,0.987
37.9600,1.331
38.0000,1.851
38.0400,2.470
38.0800,2.900
38.1200,2.957
38.1600,2.678
38.2000,2.190
38.2400,1.677
38.2800,1.280
38.3200,0.962
38.3600,0.763
38.4000,0.685
38.4400,0.617
38.4800,0.575
38.5200,0.568
38.5600,0.522
38.6000,0.548
38.6400,0.479
38.6800,0.475
38.7200,0.457
38.7600,0.487
38.8000,0.466
38.8400,0.455
38.8800,0.457
38.9200,0.452
38.9600,0.440
39.0000,0.482
39.0400,0.460
39.0800,0.447
39.1200,0.477
39.1600,0.439
39.2000,0.453
39.2400,0.433
39.2800,0.445
39.3200,0.450
39.3600,0.462
39.4000,0.401
39.4400,0.438
39.4800,0.424
39.5200,0.440
39.5600,0.425
39.6000,0.411
39.6400,0.440
39.6800,0.442
39.7200,0.397
39.7600,0.426
39.8000,0.428
39.8400,0.414
39.8800,0.414
39.9200,0.414
39.9600,0.402
40.0000,0.431
40.0400,0.422
40.0800,0.434
40.1200,0.447
40.1600,0.421
40.2000,0.400
40.2400,0.416
40.2800,0.412
40.3200,0.390
40.3600,0.399
40.4000,0.391
40.4400,0.400
40.4800,0.395
40.5200,0.409
40.5600,0.428
40.6000,0.396
40.6400,0.402
40.6800,0.414
40.7200,0.421
40.7600,0.405
40.8000,0.396
40.8400,0.400
40.8800,0.428
40.9200,0.419
40.9600,0.396
41.0000,0.391
41.0400,0.414
41.0800,0.414
41.1200,0.379
41.1600,0.381
41.2000,0.400
41.2400,0.371
41.2800,0.406
41.3200,0.380
41.3600,0.389
41.4000,0.393
41.4400,0.370
41.4800,0.381
41.5200,0.386
41.5600,0.394
41.6000,0.380
41.6400,0.371
41.6800,0.417
41.7200,0.426
41.7600,0.415
41.8000,0.381
41.8400,0.389
41.8800,0.379
41.9200,0.371
41.9600,0.377
42.0000,0.378
42.0400,0.368
42.0800,0.373
42.1200,0.394
42.1600,0.375
42.2000,0.391
42.2400,0.399
42.2800,0.376
42.3200,0.397
42.3600,0.399
42.4000,0.377
42.4400,0.368
42.4800,0.382
42.5200,0.418
42.5600,0.389
42.6000,0.408
42.6400,0.379
42.6800,0.386
42.7200,0.360
42.7600,0.377
42.8000,0.399
42.8400,0.373
42.8800,0.380
42.9200,0.403
42.9600,0.376
43.0000,0.383
43.0400,0.372
43.0800,0.397
43.1200,0.392
43.1600,0.379
43.2000,0.418
43.2400,0.373
43.2800,0.361
43.3200,0.361
43.3600,0.378
43.4000,0.369
43.4400,0.395
43.4800,0.384
43.5200,0.393
43.5600,0.373
43.6000,0.367
43.6400,0.381
43.6800,0.401
43.7200,0.400
43.7600,0.406
43.8000,0.387
43.8400,0.427
43.8800,0.449
43.9200,0.461
43.9600,0.484
44.0000,0.548
44.0400,0.547
44.0800,0.627
44.1200,0.711
44.1600,0.866
44.2000,0.970
44.2400,1.076
44.2800,1.081
44.3200,1.086
44.3600,1.055
44.4000,0.918
44.4400,0.793
44.4800,0.667
44.5200,0.615
44.5600,0.552
44.6000,0.470
44.6400,0.438
44.6800,0.463
44.7200,0.406
44.7600,0.389
44.8000,0.406
44.8400,0.385
44.8800,0.363
44.9200,0.368
44.9600,0.380
45.0000,0.384
45.0400,0.365
45.0800,0.345
45.1200,0.348
45.1600,0.352
45.2000,0.327
45.2400,0.321
45.2800,0.367
45.3200,0.340
45.3600,0.338
45.4000,0.332
45.4400,0.331
45.4800,0.348
45.5200,0.360
45.5600,0.332
45.6000,0.345
45.6400,0.328
45.6800,0.322
45.7200,0.344
45.7600,0.327
45.8000,0.332
45.8400,0.346
45.8800,0.333
45.9200,0.324
45.9600,0.318
46.0000,0.307
46.0400,0.308
46.0800,0.335
46.1200,0.341
46.1600,0.322
46.2000,0.326
46.2400,0.305
46.2800,0.286
46.3200,0.338
46.3600,0.305
46.4000,0.324
46.4400,0.297
46.4800,0.302
46.5200,0.309
46.5600,0.317
46.6000,0.294
46.6400,0.304
46.6800,0.313
46.7200,0.315
46.7600,0.339
46.8000,0.317
46.8400,0.326
46.8800,0.322
46.9200,0.319
46.9600,0.313
47.0000,0.306
47.0400,0.301
47.0800,0.308
47.1200,0.296
47.1600,0.329
47.2000,0.306
47.2400,0.317
47.2800,0.310
47.3200,0.298
47.3600,0.298
47.4000,0.302
47.4400,0.311
47.4800,0.290
47.5200,0.301
47.5600,0.271
47.6000,0.289
47.6400,0.315
47.6800,0.301
47.7200,0.299
47.7600,0.283
47.8000,0.296
47.8400,0.292
47.8800,0.315
47.9200,0.333
47.9600,0.297
48.0000,0.282
48.0400,0.281
48.0800,0.281
48.1200,0.290
48.1600,0.287
48.2000,0.326
48.2400,0.284
48.2800,0.290
48.3200,0.290
48.3600,0.280
48.4000,0.284
48.4400,0.302
48.4800,0.293
48.5200,0.278
48.5600,0.304
48.6000,0.269
48.6400,0.281
48.6800,0.292
48.7200,0.271
48.7600,0.284
48.8000,0.287
48.8400,0.274
48.8800,0.272
48.9200,0.264
48.9600,0.267
49.0000,0.282
49.0400,0.293
49.0800,0.291
49.1200,0.307
49.1600,0.255
49.2000,0.263
49.2400,0.265
49.2800,0.283
49.3200,0.284
49.3600,0.306
49.4000,0.260
49.4400,0.267
49.4800,0.270
49.5200,0.269
49.5600,0.277
49.6000,0.273
49.6400,0.296
49.6800,0.277
49.7200,0.279
49.7600,0.284
49.8000,0.269
49.8400,0.276
49.8800,0.245
49.9200,0.283
49.9600,0.273
50.0000,0.277
50.0400,0.279
50.0800,0.283
50.1200,0.269
50.1600,0.274
50.2000,0.261
50.2400,0.246
50.2800,0.271
50.3200,0.270
50.3600,0.256
50.4000,0.274
50.4400,0.303
50.4800,0.251
50.5200,0.246
50.5600,0.282
50.6000,0.262
50.6400,0.251
50.6800,0.251
50.7200,0.262
50.7600,0.267
50.8000,0.243
50.8400,0.270
50.8800,0.267
50.9200,0.261
50.9600,0.248
51.0000,0.256
51.0400,0.252
51.0800,0.251
51.1200,0.269
51.1600,0.245
51.2000,0.263
51.2400,0.255
51.2800,0.262
51.3200,0.275
51.3600,0.284
51.4000,0.259
51.4400,0.258
51.4800,0.229
51.5200,0.258
51.5600,0.256
51.6000,0.262
51.6400,0.268
51.6800,0.255
51.7200,0.261
51.7600,0.249
51.8000,0.268
51.8400,0.263
51.8800,0.245
51.9200,0.257
51.9600,0.241
52.0000,0.240
52.0400,0.259
52.0800,0.257
52.1200,0.247
52.1600,0.263
52.2000,0.263
52.2400,0.234
52.2800,0.259
52.3200,0.243
52.3600,0.249
52.4000,0.253
52.4400,0.259
52.4800,0.254
52.5200,0.243
52.5600,0.251
52.6000,0.250
52.6400,0.255
52.6800,0.268
52.7200,0.240
52.7600,0.248
52.8000,0.244
52.8400,0.252
52.8800,0.247
52.9200,0.240
52.9600,0.237
53.0000,0.241
53.0400,0.244
53.0800,0.242
53.1200,0.245
53.1600,0.228
53.2000,0.248
53.2400,0.236
53.2800,0.233
53.3200,0.236
53.3600,0.239
53.4000,0.269
53.4400,0.229
53.4800,0.221
53.5200,0.250
53.5600,0.235
53.6000,0.250
53.6400,0.220
53.6800,0.249
53.7200,0.242
53.7600,0.229
53.8000,0.236
53.8400,0.258
53.8800,0.264
53.9200,0.244
53.9600,0.236
54.0000,0.229
54.0400,0.232
54.0800,0.236
54.1200,0.246
54.1600,0.224
54.2000,0.250
54.2400,0.241
54.2800,0.254
54.3200,0.261
54.3600,0.222
54.4000,0.238
54.4400,0.234
54.4800,0.244
54.5200,0.217
54.5600,0.216
54.6000,0.215
54.6400,0.252
54.6800,0.223
54.7200,0.244
54.7600,0.237
54.8000,0.238
54.8400,0.235
54.8800,0.240
54.9200,0.256
54.9600,0.236
55.0000,0.244
55.0400,0.222
55.0800,0.245
55.1200,0.230
55.1600,0.239
55.2000,0.235
55.2400,0.218
55.2800,0.222
55.3200,0.213
55.3600,0.221
55.4000,0.241
55.4400,0.233
55.4800,0.218
55.5200,0.239
55.5600,0.231
55.6000,0.207
55.6400,0.228
55.6800,0.207
55.7200,0.228
55.7600,0.226
55.8000,0.215
55.8400,0.195
55.8800,0.217
55.9200,0.243
55.9600,0.229
56.0000,0.227
56.0400,0.223
56.0800,0.222
56.1200,0.226
56.1600,0.240
56.2000,0.242
56.2400,0.235
56.2800,0.229
56.3200,0.225
56.3600,0.214
56.4000,0.237
56.4400,0.235
56.4800,0.225
56.5200,0.223
56.5600,0.244
56.6000,0.233
56.6400,0.218
56.6800,0.222
56.7200,0.213
56.7600,0.209
56.8000,0.221
56.8400,0.225
56.8800,0.225
56.9200,0.230
56.9600,0.230
57.0000,0.220
57.0400,0.192
57.0800,0.208
57.1200,0.223
57.1600,0.209
57.2000,0.231
57.2400,0.217
57.2800,0.226
57.3200,0.206
57.3600,0.199
57.4000,0.221
57.4400,0.242
57.4800,0.233
57.5200,0.228
57.5600,0.221
57.6000,0.204
57.6400,0.208
57.6800,0.201
57.7200,0.207
57.7600,0.219
57.8000,0.195
57.8400,0.216
57.8800,0.231
57.9200,0.201
57.9600,0.229
58.0000,0.226
58.0400,0.208
58.0800,0.202
58.1200,0.221
58.1600,0.215
58.2000,0.216
58.2400,0.209
58.2800,0.226
58.3200,0.218
58.3600,0.214
58.4000,0.220
58.4400,0.205
58.4800,0.226
58.5200,0.222
58.5600,0.201
58.6000,0.219
58.6400,0.223
58.6800,0.208
58.7200,0.215
58.7600,0.241
58.8000,0.204
58.8400,0.220
58.8800,0.201
58.9200,0.213
58.9600,0.225
59.0000,0.222
59.0400,0.220
59.0800,0.221
59.1200,0.220
59.1600,0.221
59.2000,0.219
59.2400,0.209
59.2800,0.232
59.3200,0.227
59.3600,0.215
59.4000,0.227
59.4400,0.194
59.4800,0.211
59.5200,0.207
59.5600,0.201
59.6000,0.197
59.6400,0.213
59.6800,0.214
59.7200,0.214
59.7600,0.238
59.8000,0.204
59.8400,0.210
59.8800,0.215
59.9200,0.241
59.9600,0.213
60.0000,0.215
60.0400,0.240
60.0800,0.210
60.1200,0.219
60.1600,0.216
60.2000,0.226
60.2400,0.222
60.2800,0.219
60.3200,0.218
60.3600,0.203
60.4000,0.221
60.4400,0.213
60.4800,0.211
60.5200,0.219
60.5600,0.197
60.6000,0.232
60.6400,0.214
60.6800,0.223
60.7200,0.212
60.7600,0.233
60.8000,0.216
60.8400,0.225
60.8800,0.216
60.9200,0.189
60.9600,0.210
61.0000,0.229
61.0400,0.219
61.0800,0.202
61.1200,0.218
61.1600,0.212
61.2000,0.209
61.2400,0.206
61.2800,0.242
61.3200,0.204
61.3600,0.219
61.4000,0.217
61.4400,0.213
61.4800,0.192
61.5200,0.230
61.5600,0.211
61.6000,0.239
61.6400,0.222
61.6800,0.241
61.7200,0.219
61.7600,0.226
61.8000,0.225
61.8400,0.222
61.8800,0.211
61.9200,0.198
61.9600,0.235
62.0000,0.212
62.0400,0.221
62.0800,0.210
62.1200,0.209
62.1600,0.220
62.2000,0.213
62.2400,0.230
62.2800,0.214
62.3200,0.211
62.3600,0.215
62.4000,0.221
62.4400,0.219
62.4800,0.227
62.5200,0.232
62.5600,0.232
62.6000,0.222
62.6400,0.217
62.6800,0.211
62.7200,0.224
62.7600,0.235
62.8000,0.237
62.8400,0.237
62.8800,0.236
62.9200,0.247
62.9600,0.219
63.0000,0.223
63.0400,0.234
63.0800,0.228
63.1200,0.241
63.1600,0.247
63.2000,0.228
63.2400,0.235
63.2800,0.244
63.3200,0.248
63.3600,0.230
63.4000,0.245
63.4400,0.226
63.4800,0.255
63.5200,0.246
63.5600,0.262
63.6000,0.255
63.6400,0.240
63.6800,0.258
63.7200,0.242
63.7600,0.264
63.8000,0.257
63.8400,0.239
63.8800,0.289
63.9200,0.266
63.9600,0.278
64.0000,0.283
64.0400,0.294
64.0800,0.295
64.1200,0.323
64.1600,0.336
64.2000,0.383
64.2400,0.446
64.2800,0.497
64.3200,0.556
64.3600,0.649
64.4000,0.623
64.4400,0.581
64.4800,0.598
64.5200,0.545
64.5600,0.540
64.6000,0.491
64.6400,0.444
64.6800,0.417
64.7200,0.375
64.7600,0.343
64.8000,0.315
64.8400,0.320
64.8800,0.346
64.9200,0.291
64.9600,0.268
65.0000,0.302
65.0400,0.294
65.0800,0.310
65.1200,0.285
65.1600,0.309
65.2000,0.275
65.2400,0.294
65.2800,0.299
65.3200,0.293
65.3600,0.290
65.4000,0.289
65.4400,0.305
65.4800,0.302
65.5200,0.318
65.5600,0.313
65.6000,0.309
65.6400,0.298
65.6800,0.310
65.7200,0.305
65.7600,0.314
65.8000,0.337
65.8400,0.303
65.8800,0.307
65.9200,0.341
65.9600,0.308
66.0000,0.320
66.0400,0.337
66.0800,0.319
66.1200,0.312
66.1600,0.357
66.2000,0.337
66.2400,0.351
66.2800,0.365
66.3200,0.347
66.3600,0.347
66.4000,0.369
66.4400,0.400
66.4800,0.396
66.5200,0.377
66.5600,0.358
66.6000,0.368
66.6400,0.395
66.6800,0.423
66.7200,0.412
66.7600,0.414
66.8000,0.396
66.8400,0.416
66.8800,0.393
66.9200,0.412
66.9600,0.447
67.0000,0.448
67.0400,0.452
67.0800,0.491
67.1200,0.468
67.1600,0.439
67.2000,0.491
67.2400,0.535
67.2800,0.502
67.3200,0.468
67.3600,0.527
67.4000,0.529
67.4400,0.486
67.4800,0.523
67.5200,0.544
67.5600,0.559
67.6000,0.557
67.6400,0.568
67.6800,0.585
67.7200,0.603
67.7600,0.587
67.8000,0.630
67.8400,0.658
67.8800,0.656
67.9200,0.671
67.9600,0.662
68.0000,0.689
68.0400,0.675
68.0800,0.707
68.1200,0.707
68.1600,0.726
68.2000,0.716
68.2400,0.742
68.2800,0.800
68.3200,0.813
68.3600,0.899
68.4000,0.897
68.4400,0.914
68.4800,0.957
68.5200,0.988
68.5600,1.081
68.6000,1.140
68.6400,1.244
68.6800,1.439
68.7200,1.828
68.7600,2.194
68.8000,2.545
68.8400,2.861
68.8800,2.941
68.9200,3.336
68.9600,4.234
69.0000,7.078
69.0400,20.818
69.0800,73.967
69.1200,135.026
69.1600,142.981
69.2000,103.528
69.2400,44.808
69.2800,46.304
69.3200,73.223
69.3600,76.298
69.4000,53.104
69.4400,18.940
69.4800,6.330
69.5200,3.830
69.5600,2.945
69.6000,2.449
69.6400,2.040
69.6800,1.741
69.7200,1.610
69.7600,1.440
69.8000,1.346
69.8400,1.329
69.8800,1.225
69.9200,1.119
69.9600,1.149
70.0000,1.051
70.0400,0.963
70.0800,0.974
70.1200,0.894
70.1600,0.930
70.2000,0.851
70.2400,0.883
70.2800,0.856
70.3200,0.821
70.3600,0.786
70.4000,0.770
70.4400,0.777
70.4800,0.751
70.5200,0.703
70.5600,0.687
70.6000,0.669
70.6400,0.611
70.6800,0.642
70.7200,0.610
70.7600,0.601
70.8000,0.604
70.8400,0.589
70.8800,0.587
70.9200,0.576
70.9600,0.556
71.0000,0.559
71.0400,0.580
71.0800,0.527
71.1200,0.510
71.1600,0.523
71.2000,0.476
71.2400,0.471
71.2800,0.491
71.3200,0.464
71.3600,0.456
71.4000,0.439
71.4400,0.444
71.4800,0.423
71.5200,0.396
71.5600,0.431
71.6000,0.415
71.6400,0.410
71.6800,0.405
71.7200,0.416
71.7600,0.397
71.8000,0.389
71.8400,0.396
71.8800,0.376
71.9200,0.374
71.9600,0.357
72.0000,0.360
72.0400,0.345
72.0800,0.374
72.1200,0.352
72.1600,0.319
72.2000,0.321
72.2400,0.339
72.2800,0.323
72.3200,0.321
72.3600,0.326
72.4000,0.324
72.4400,0.296
72.4800,0.317
72.5200,0.309
72.5600,0.305
72.6000,0.300
72.6400,0.277
72.6800,0.278
72.7200,0.288
72.7600,0.284
72.8000,0.293
72.8400,0.264
72.8800,0.277
72.9200,0.295
72.9600,0.270
73.0000,0.292
73.0400,0.288
73.0800,0.291
73.1200,0.266
73.1600,0.251
73.2000,0.254
73.2400,0.269
73.2800,0.250
73.3200,0.241
73.3600,0.227
73.4000,0.244
73.4400,0.248
73.4800,0.255
73.5200,0.256
73.5600,0.260
73.6000,0.244
73.6400,0.245
73.6800,0.235
73.7200,0.235
73.7600,0.232
73.8000,0.239
73.8400,0.220
73.8800,0.225
73.9200,0.234
73.9600,0.255
74.0000,0.220
74.0400,0.243
74.0800,0.201
74.1200,0.224
74.1600,0.207
74.2000,0.208
74.2400,0.216
74.2800,0.219
74.3200,0.213
74.3600,0.190
74.4000,0.227
74.4400,0.233
74.4800,0.211
74.5200,0.209
74.5600,0.224
74.6000,0.210
74.6400,0.217
74.6800,0.223
74.7200,0.204
74.7600,0.225
74.8000,0.199
74.8400,0.201
74.8800,0.205
74.9200,0.227
74.9600,0.216
75.0000,0.193
75.0400,0.200
75.0800,0.216
75.1200,0.218
75.1600,0.205
75.2000,0.195
75.2400,0.193
75.2800,0.210
75.3200,0.204
75.3600,0.187
75.4000,0.194
75.4400,0.202
75.4800,0.186
75.5200,0.210
75.5600,0.204
75.6000,0.181
75.6400,0.200
75.6800,0.192
75.7200,0.211
75.7600,0.205
75.8000,0.179
75.8400,0.207
75.8800,0.182
75.9200,0.189
75.9600,0.189
76.0000,0.179
76.0400,0.188
76.0800,0.191
76.1200,0.188
76.1600,0.197
76.2000,0.192
76.2400,0.186
76.2800,0.189
76.3200,0.201
76.3600,0.215
76.4000,0.187
76.4400,0.182
76.4800,0.178
76.5200,0.214
76.5600,0.187
76.6000,0.207
76.6400,0.202
76.6800,0.193
76.7200,0.199
76.7600,0.223
76.8000,0.185
76.8400,0.218
76.8800,0.222
76.9200,0.210
76.9600,0.229
77.0000,0.244
77.0400,0.272
77.0800,0.258
77.1200,0.291
77.1600,0.346
77.2000,0.352
77.2400,0.394
77.2800,0.414
77.3200,0.450
77.3600,0.442
77.4000,0.444
77.4400,0.378
77.4800,0.372
77.5200,0.384
77.5600,0.351
77.6000,0.328
77.6400,0.309
77.6800,0.265
77.7200,0.252
77.7600,0.263
77.8000,0.237
77.8400,0.228
77.8800,0.194
77.9200,0.187
77.9600,0.207
78.0000,0.190
78.0400,0.180
78.0800,0.181
78.1200,0.185
78.1600,0.170
78.2000,0.165
78.2400,0.180
78.2800,0.189
78.3200,0.167
78.3600,0.169
78.4000,0.175
78.4400,0.176
78.4800,0.181
78.5200,0.187
78.5600,0.173
78.6000,0.170
78.6400,0.189
78.6800,0.182
78.7200,0.165
78.7600,0.173
78.8000,0.169
78.8400,0.142
78.8800,0.175
78.9200,0.158
78.9600,0.155
79.0000,0.162
79.0400,0.148
79.0800,0.157
79.1200,0.176
79.1600,0.167
79.2000,0.165
79.2400,0.150
79.2800,0.152
79.3200,0.162
79.3600,0.171
79.4000,0.167
79.4400,0.154
79.4800,0.169
79.5200,0.185
79.5600,0.167
79.6000,0.174
79.6400,0.167
79.6800,0.158
79.7200,0.163
79.7600,0.159
79.8000,0.149
79.8400,0.160
79.8800,0.149
79.9200,0.158
79.9600,0.163
80.0000,0.158
