theta,intensity
5.0000,5.507
5.0400,5.485
5.0800,5.478
5.1200,5.489
5.1600,5.494
5.2000,5.290
5.2400,5.362
5.2800,5.306
5.3200,5.249
5.3600,5.191
5.4000,5.221
5.4400,5.244
5.4800,5.208
5.5200,4.997
5.5600,4.914
5.6000,4.865
5.6400,4.997
5.6800,4.978
5.7200,4.803
5.7600,4.871
5.8000,4.670
5.8400,4.656
5.8800,4.465
5.9200,4.679
5.9600,4.424
6.0000,4.406
6.0400,4.361
6.0800,4.349
6.1200,4.375
6.1600,4.363
6.2000,4.354
6.2400,4.231
6.2800,4.157
6.3200,4.336
6.3600,4.141
6.4000,4.364
6.4400,4.243
6.4800,4.210
6.5200,4.177
6.5600,4.144
6.6000,4.071
6.6400,4.194
6.6800,3.997
6.7200,4.148
6.7600,4.097
6.8000,4.151
6.8400,4.163
6.8800,4.141
6.9200,4.104
6.9600,3.983
7.0000,4.008
7.0400,4.192
7.0800,4.191
7.1200,4.158
7.1600,4.129
7.2000,4.117
7.2400,3.966
7.2800,4.068
7.3200,4.066
7.3600,3.920
7.4000,4.017
7.4400,3.954
7.4800,3.887
7.5200,3.999
7.5600,3.914
7.6000,4.052
7.6400,3.971
7.6800,3.941
7.7200,3.875
7.7600,3.980
7.8000,3.988
7.8400,4.005
7.8800,4.053
7.9200,3.861
7.9600,3.939
8.0000,3.883
8.0400,3.939
8.0800,3.922
8.1200,3.812
8.1600,3.810
8.2000,3.751
8.2400,3.946
8.2800,3.960
8.3200,3.882
8.3600,3.901
8.4000,3.792
8.4400,3.915
8.4800,3.773
8.5200,3.798
8.5600,3.935
8.6000,3.946
8.6400,3.793
8.6800,3.815
8.7200,3.859
8.7600,3.850
8.8000,3.734
8.8400,3.659
8.8800,3.813
8.9200,3.829
8.9600,3.658
9.0000,3.941
9.0400,3.842
9.0800,3.646
9.1200,3.787
9.1600,3.723
9.2000,3.760
9.2400,3.601
9.2800,3.735
9.3200,3.752
9.3600,3.712
9.4000,3.797
9.4400,3.636
9.4800,3.701
9.5200,3.761
9.5600,3.637
9.6000,3.758
9.6400,3.743
9.6800,3.768
9.7200,3.700
9.7600,3.651
9.8000,3.792
9.8400,3.719
9.8800,3.851
9.9200,3.617
9.9600,3.523
10.0000,3.701
10.0400,3.657
10.0800,3.665
10.1200,3.591
10.1600,3.526
10.2000,3.637
10.2400,3.661
10.2800,3.692
10.3200,3.456
10.3600,3.693
10.4000,3.632
10.4400,3.706
10.4800,3.583
10.5200,3.599
10.5600,3.667
10.6000,3.542
10.6400,3.506
10.6800,3.593
10.7200,3.577
10.7600,3.452
10.8000,3.594
10.8400,3.526
10.8800,3.489
10.9200,3.626
10.9600,3.576
11.0000,3.536
11.0400,3.601
11.0800,3.510
11.1200,3.611
11.1600,3.489
11.2000,3.638
11.2400,3.612
11.2800,3.501
11.3200,3.521
11.3600,3.456
11.4000,3.556
11.4400,3.425
11.4800,3.440
11.5200,3.729
11.5600,3.487
11.6000,3.512
11.6400,3.636
11.6800,3.469
11.7200,3.489
11.7600,3.609
11.8000,3.616
11.8400,3.561
11.8800,3.339
11.9200,3.458
11.9600,3.497
12.0000,3.489
12.0400,3.523
12.0800,3.449
12.1200,3.587
12.1600,3.564
12.2000,3.397
12.2400,3.537
12.2800,3.530
12.3200,3.483
12.3600,3.537
12.4000,3.356
12.4400,3.541
12.4800,3.419
12.5200,3.369
12.5600,3.283
12.6000,3.329
12.6400,3.343
12.6800,3.473
12.7200,3.332
12.7600,3.390
12.8000,3.315
12.8400,3.418
12.8800,3.527
12.9200,3.423
12.9600,3.498
13.0000,3.385
13.0400,3.422
13.0800,3.386
13.1200,3.248
13.1600,3.446
13.2000,3.273
13.2400,3.295
13.2800,3.471
13.3200,3.414
13.3600,3.342
13.4000,3.337
13.4400,3.256
13.4800,3.378
13.5200,3.313
13.5600,3.327
13.6000,3.397
13.6400,3.344
13.6800,3.304
13.7200,3.191
13.7600,3.310
13.8000,3.430
13.8400,3.232
13.8800,3.251
13.9200,3.363
13.9600,3.294
14.0000,3.273
14.0400,3.283
14.0800,3.183
14.1200,3.342
14.1600,3.254
14.2000,3.163
14.2400,3.243
14.2800,3.227
14.3200,3.130
14.3600,3.210
14.4000,3.304
14.4400,3.256
14.4800,3.365
14.5200,3.342
14.5600,3.376
14.6000,3.324
14.6400,3.278
14.6800,3.221
14.7200,3.281
14.7600,3.252
14.8000,3.274
14.8400,3.216
14.8800,3.198
14.9200,3.173
14.9600,3.186
15.0000,3.171
15.0400,3.237
15.0800,3.076
15.1200,3.103
15.1600,3.106
15.2000,3.139
15.2400,3.250
15.2800,3.027
15.3200,3.299
15.3600,3.234
15.4000,3.221
15.4400,3.231
15.4800,3.171
15.5200,3.224
15.5600,3.026
15.6000,3.165
15.6400,3.187
15.6800,3.159
15.7200,3.164
15.7600,3.112
15.8000,3.141
15.8400,3.088
15.8800,3.150
15.9200,3.032
15.9600,3.073
16.0000,3.073
16.0400,3.069
16.0800,3.013
16.1200,3.128
16.1600,3.212
16.2000,3.145
16.2400,3.134
16.2800,2.972
16.3200,3.034
16.3600,3.130
16.4000,3.098
16.4400,3.125
16.4800,3.086
16.5200,3.031
16.5600,3.160
16.6000,2.979
16.6400,3.138
16.6800,2.926
16.7200,2.839
16.7600,3.026
16.8000,3.168
16.8400,2.989
16.8800,3.061
16.9200,2.924
16.9600,2.961
17.0000,3.033
17.0400,2.956
17.0800,2.987
17.1200,3.005
17.1600,2.974
17.2000,3.008
17.2400,2.990
17.2800,2.983
17.3200,2.969
17.3600,2.988
17.4000,2.877
17.4400,3.029
17.4800,2.905
17.5200,2.946
17.5600,2.885
17.6000,2.926
17.6400,2.820
17.6800,2.779
17.7200,2.890
17.7600,2.944
17.8000,2.915
17.8400,2.897
17.8800,2.959
17.9200,2.974
17.9600,2.895
18.0000,2.873
18.0400,2.845
18.0800,2.801
18.1200,2.877
18.1600,2.897
18.2000,2.797
18.2400,3.035
18.2800,2.915
18.3200,2.892
18.3600,2.818
18.4000,2.836
18.4400,2.814
18.4800,2.915
18.5200,2.794
18.5600,2.795
18.6000,2.797
18.6400,2.775
18.6800,2.834
18.7200,2.764
18.7600,2.877
18.8000,2.744
18.8400,2.771
18.8800,2.860
18.9200,2.877
18.9600,2.823
19.0000,2.760
19.0400,2.845
19.0800,2.762
19.1200,2.731
19.1600,2.725
19.2000,2.777
19.2400,2.785
19.2800,2.657
19.3200,2.801
19.3600,2.619
19.4000,2.696
19.4400,2.845
19.4800,2.769
19.5200,2.840
19.5600,2.731
19.6000,2.655
19.6400,2.781
19.6800,2.711
19.7200,2.696
19.7600,2.754
19.8000,2.785
19.8400,2.706
19.8800,2.738
19.9200,2.579
19.9600,2.708
20.0000,2.754
20.0400,2.598
20.0800,2.684
20.1200,2.780
20.1600,2.720
20.2000,2.681
20.2400,2.615
20.2800,2.766
20.3200,2.654
20.3600,2.618
20.4000,2.647
20.4400,2.633
20.4800,2.723
20.5200,2.785
20.5600,2.643
20.6000,2.655
20.6400,2.690
20.6800,2.649
20.7200,2.685
20.7600,2.661
20.8000,2.665
20.8400,2.620
20.8800,2.662
20.9200,2.657
20.9600,2.678
21.0000,2.630
21.0400,2.612
21.0800,2.701
21.1200,2.595
21.1600,2.729
21.2000,2.703
21.2400,2.566
21.2800,2.628
21.3200,2.631
21.3600,2.630
21.4000,2.610
21.4400,2.638
21.4800,2.650
21.5200,2.615
21.5600,2.678
21.6000,2.573
21.6400,2.558
21.6800,2.445
21.7200,2.543
21.7600,2.526
21.8000,2.651
21.8400,2.598
21.8800,2.598
21.9200,2.505
21.9600,2.481
22.0000,2.625
22.0400,2.511
22.0800,2.617
22.1200,2.560
22.1600,2.525
22.2000,2.477
22.2400,2.600
22.2800,2.503
22.3200,2.434
22.3600,2.445
22.4000,2.463
22.4400,2.529
22.4800,2.540
22.5200,2.565
22.5600,2.511
22.6000,2.569
22.6400,2.414
22.6800,2.612
22.7200,2.490
22.7600,2.520
22.8000,2.455
22.8400,2.493
22.8800,2.438
22.9200,2.590
22.9600,2.390
23.0000,2.577
23.0400,2.478
23.0800,2.426
23.1200,2.456
23.1600,2.364
23.2000,2.495
23.2400,2.468
23.2800,2.444
23.3200,2.354
23.3600,2.490
23.4000,2.487
23.4400,2.358
23.4800,2.533
23.5200,2.562
23.5600,2.500
23.6000,2.323
23.6400,2.561
23.6800,2.433
23.7200,2.446
23.7600,2.509
23.8000,2.523
23.8400,2.521
23.8800,2.468
23.9200,2.416
23.9600,2.456
24.0000,2.447
24.0400,2.358
24.0800,2.439
24.1200,2.376
24.1600,2.332
24.2000,2.402
24.2400,2.388
24.2800,2.525
24.3200,2.305
24.3600,2.306
24.4000,2.441
24.4400,2.325
24.4800,2.314
24.5200,2.318
24.5600,2.489
24.6000,2.315
24.6400,2.445
24.6800,2.459
24.7200,2.409
24.7600,2.356
24.8000,2.200
24.8400,2.263
24.8800,2.404
24.9200,2.342
24.9600,2.309
25.0000,2.394
25.0400,2.287
25.0800,2.349
25.1200,2.287
25.1600,2.285
25.2000,2.268
25.2400,2.258
25.2800,2.297
25.3200,2.319
25.3600,2.232
25.4000,2.311
25.4400,2.313
25.4800,2.449
25.5200,2.227
25.5600,2.349
25.6000,2.234
25.6400,2.336
25.6800,2.250
25.7200,2.268
25.7600,2.369
25.8000,2.254
25.8400,2.327
25.8800,2.344
25.9200,2.471
25.9600,2.334
26.0000,2.360
26.0400,2.206
26.0800,2.306
26.1200,2.242
26.1600,2.311
26.2000,2.221
26.2400,2.252
26.2800,2.168
26.3200,2.210
26.3600,2.234
26.4000,2.219
26.4400,2.205
26.4800,2.162
26.5200,2.167
26.5600,2.190
26.6000,2.216
26.6400,2.303
26.6800,2.169
26.7200,2.272
26.7600,2.242
26.8000,2.156
26.8400,2.206
26.8800,2.294
26.9200,2.250
26.9600,2.332
27.0000,2.274
27.0400,2.193
27.0800,2.290
27.1200,2.088
27.1600,2.260
27.2000,2.248
27.2400,2.285
27.2800,2.261
27.3200,2.292
27.3600,2.231
27.4000,2.190
27.4400,2.166
27.4800,2.291
27.5200,2.075
27.5600,2.329
27.6000,2.200
27.6400,2.253
27.6800,2.338
27.7200,2.310
27.7600,2.278
27.8000,2.423
27.8400,2.321
27.8800,2.287
27.9200,2.257
27.9600,2.241
28.0000,2.338
28.0400,2.319
28.0800,2.330
28.1200,2.288
28.1600,2.440
28.2000,2.300
28.2400,2.490
28.2800,2.390
28.3200,2.389
28.3600,2.292
28.4000,2.421
28.4400,2.490
28.4800,2.384
28.5200,2.287
28.5600,2.533
28.6000,2.337
28.6400,2.338
28.6800,2.468
28.7200,2.297
28.7600,2.374
28.8000,2.313
28.8400,2.406
28.8800,2.269
28.9200,2.290
28.9600,2.364
29.0000,2.343
29.0400,2.246
29.0800,2.198
29.1200,2.091
29.1600,2.286
29.2000,2.326
29.2400,2.139
29.2800,2.050
29.3200,2.099
29.3600,2.193
29.4000,2.215
29.4400,2.077
29.4800,2.016
29.5200,2.063
29.5600,2.139
29.6000,2.095
29.6400,2.049
29.6800,1.951
29.7200,2.083
29.7600,1.999
29.8000,2.067
29.8400,2.003
29.8800,1.978
29.9200,2.013
29.9600,2.032
30.0000,2.158
30.0400,1.886
30.0800,1.935
30.1200,2.069
30.1600,1.948
30.2000,2.026
30.2400,1.949
30.2800,1.831
30.3200,1.898
30.3600,1.886
30.4000,1.967
30.4400,1.982
30.4800,1.851
30.5200,1.896
30.5600,1.894
30.6000,1.931
30.6400,1.859
30.6800,1.909
30.7200,1.833
30.7600,1.730
30.8000,1.875
30.8400,1.827
30.8800,1.860
30.9200,1.966
30.9600,1.934
31.0000,1.983
31.0400,1.920
31.0800,1.944
31.1200,1.929
31.1600,1.830
31.2000,1.895
31.2400,1.880
31.2800,1.876
31.3200,1.776
31.3600,1.842
31.4000,1.851
31.4400,1.818
31.4800,1.866
31.5200,1.685
31.5600,1.920
31.6000,1.826
31.6400,1.656
31.6800,1.786
31.7200,1.717
31.7600,1.833
31.8000,1.732
31.8400,1.753
31.8800,1.703
31.9200,1.801
31.9600,1.870
32.0000,1.666
32.0400,1.748
32.0800,1.752
32.1200,1.721
32.1600,1.708
32.2000,1.689
32.2400,1.746
32.2800,1.670
32.3200,1.710
32.3600,1.747
32.4000,1.727
32.4400,1.656
32.4800,1.665
32.5200,1.775
32.5600,1.716
32.6000,1.755
32.6400,1.766
32.6800,1.902
32.7200,1.817
32.7600,1.964
32.8000,1.874
32.8400,2.062
32.8800,2.131
32.9200,2.205
32.9600,2.481
33.0000,2.361
33.0400,2.441
33.0800,2.399
33.1200,2.179
33.1600,2.028
33.2000,1.979
33.2400,1.868
33.2800,1.880
33.3200,1.812
33.3600,1.695
33.4000,1.689
33.4400,1.668
33.4800,1.746
33.5200,1.697
33.5600,1.755
33.6000,1.753
33.6400,1.801
33.6800,1.690
33.7200,1.597
33.7600,1.599
33.8000,1.697
33.8400,1.612
33.8800,1.578
33.9200,1.581
33.9600,1.613
34.0000,1.553
34.0400,1.653
34.0800,1.660
34.1200,1.615
34.1600,1.600
34.2000,1.811
34.2400,1.710
34.2800,1.674
34.3200,1.922
34.3600,1.841
34.4000,1.871
34.4400,2.223
34.4800,2.473
34.5200,2.280
34.5600,2.229
34.6000,2.026
34.6400,1.872
34.6800,1.670
34.7200,1.539
34.7600,1.540
34.8000,1.515
34.8400,1.530
34.8800,1.543
34.9200,1.470
34.9600,1.583
35.0000,1.399
35.0400,1.514
35.0800,1.518
35.1200,1.510
35.1600,1.557
35.2000,1.477
35.2400,1.469
35.2800,1.493
35.3200,1.537
35.3600,1.507
35.4000,1.445
35.4400,1.474
35.4800,1.442
35.5200,1.454
35.5600,1.404
35.6000,1.567
35.6400,1.364
35.6800,1.426
35.7200,1.368
35.7600,1.421
35.8000,1.457
35.8400,1.473
35.8800,1.433
35.9200,1.466
35.9600,1.521
36.0000,1.461
36.0400,1.263
36.0800,1.399
36.1200,1.466
36.1600,1.512
36.2000,1.459
36.2400,1.327
36.2800,1.310
36.3200,1.501
36.3600,1.467
36.4000,1.361
36.4400,1.393
36.4800,1.488
36.5200,1.411
36.5600,1.405
36.6000,1.411
36.6400,1.381
36.6800,1.420
36.7200,1.559
36.7600,1.344
36.8000,1.455
36.8400,1.418
36.8800,1.398
36.9200,1.368
36.9600,1.438
37.0000,1.430
37.0400,1.492
37.0800,1.633
37.1200,2.045
37.1600,2.532
37.2000,2.894
37.2400,3.286
37.2800,3.143
37.3200,2.592
37.3600,2.244
37.4000,1.935
37.4400,1.689
37.4800,1.555
37.5200,1.534
37.5600,1.425
37.6000,1.440
37.6400,1.417
37.6800,1.416
37.7200,1.412
37.7600,1.403
37.8000,1.401
37.8400,1.396
37.8800,1.467
37.9200,1.369
37.9600,1.511
38.0000,1.602
38.0400,1.766
38.0800,2.037
38.1200,2.411
38.1600,2.941
38.2000,4.447
38.2400,5.062
38.2800,4.279
38.3200,3.789
38.3600,3.196
38.4000,2.268
38.4400,1.974
38.4800,1.759
38.5200,1.602
38.5600,1.497
38.6000,1.407
38.6400,1.449
38.6800,1.402
38.7200,1.311
38.7600,1.373
38.8000,1.325
38.8400,1.310
38.8800,1.335
38.9200,1.326
38.9600,1.369
39.0000,1.392
39.0400,1.393
39.0800,1.591
39.1200,1.661
39.1600,1.948
39.2000,2.137
39.2400,2.476
39.2800,3.035
39.3200,3.749
39.3600,4.093
39.4000,3.820
39.4400,3.504
39.4800,2.785
39.5200,2.066
39.5600,1.784
39.6000,1.528
39.6400,1.333
39.6800,1.345
39.7200,1.272
39.7600,1.267
39.8000,1.128
39.8400,1.291
39.8800,1.220
39.9200,1.216
39.9600,1.190
40.0000,1.193
40.0400,1.103
40.0800,1.268
40.1200,1.157
40.1600,1.205
40.2000,1.159
40.2400,1.266
40.2800,1.180
40.3200,1.087
40.3600,1.161
40.4000,1.238
40.4400,1.187
40.4800,1.285
40.5200,1.111
40.5600,1.214
40.6000,1.206
40.6400,1.199
40.6800,1.123
40.7200,1.187
40.7600,1.139
40.8000,1.123
40.8400,1.102
40.8800,1.067
40.9200,1.114
40.9600,1.132
41.0000,1.120
41.0400,1.144
41.0800,1.197
41.1200,1.138
41.1600,1.172
41.2000,1.123
41.2400,1.125
41.2800,1.086
41.3200,1.076
41.3600,1.153
41.4000,1.226
41.4400,1.126
41.4800,1.128
41.5200,1.181
41.5600,1.215
41.6000,1.140
41.6400,1.145
41.6800,0.978
41.7200,1.090
41.7600,1.082
41.8000,1.050
41.8400,1.098
41.8800,1.109
41.9200,1.119
41.9600,1.099
42.0000,1.131
42.0400,1.069
42.0800,1.108
42.1200,1.117
42.1600,1.160
42.2000,1.163
42.2400,1.051
42.2800,1.036
42.3200,1.137
42.3600,1.081
42.4000,1.185
42.4400,1.192
42.4800,1.156
42.5200,1.182
42.5600,1.127
42.6000,1.138
42.6400,1.058
42.6800,1.088
42.7200,1.117
42.7600,1.038
42.8000,1.041
42.8400,1.008
42.8800,1.046
42.9200,1.120
42.9600,1.064
43.0000,1.102
43.0400,1.086
43.0800,1.182
43.1200,1.108
43.1600,1.287
43.2000,1.345
43.2400,1.293
43.2800,1.365
43.3200,1.285
43.3600,1.134
43.4000,1.136
43.4400,1.141
43.4800,1.128
43.5200,1.054
43.5600,1.038
43.6000,1.021
43.6400,0.951
43.6800,1.038
43.7200,1.089
43.7600,1.035
43.8000,1.046
43.8400,1.077
43.8800,1.037
43.9200,0.973
43.9600,1.082
44.0000,1.109
44.0400,1.030
44.0800,0.985
44.1200,0.996
44.1600,1.066
44.2000,0.982
44.2400,0.957
44.2800,1.055
44.3200,0.999
44.3600,1.039
44.4000,1.044
44.4400,1.027
44.4800,0.970
44.5200,1.009
44.5600,1.027
44.6000,1.022
44.6400,0.970
44.6800,0.986
44.7200,1.007
44.7600,0.967
44.8000,0.968
44.8400,0.996
44.8800,0.998
44.9200,1.067
44.9600,0.935
45.0000,0.964
45.0400,1.012
45.0800,0.950
45.1200,1.069
45.1600,0.939
45.2000,0.919
45.2400,0.938
45.2800,0.984
45.3200,0.906
45.3600,1.031
45.4000,0.931
45.4400,0.981
45.4800,0.857
45.5200,1.031
45.5600,0.966
45.6000,0.973
45.6400,0.898
45.6800,0.970
45.7200,0.888
45.7600,1.000
45.8000,0.953
45.8400,0.864
45.8800,0.901
45.9200,0.895
45.9600,0.976
46.0000,0.954
46.0400,0.969
46.0800,0.880
46.1200,0.907
46.1600,0.920
46.2000,0.922
46.2400,0.907
46.2800,0.970
46.3200,0.906
46.3600,0.837
46.4000,0.968
46.4400,0.949
46.4800,1.000
46.5200,0.965
46.5600,0.921
46.6000,0.882
46.6400,0.886
46.6800,0.895
46.7200,0.925
46.7600,0.898
46.8000,0.901
46.8400,0.921
46.8800,0.863
46.9200,0.881
46.9600,0.846
47.0000,0.889
47.0400,0.835
47.0800,0.874
47.1200,0.880
47.1600,0.856
47.2000,0.829
47.2400,0.804
47.2800,0.851
47.3200,0.834
47.3600,0.781
47.4000,0.795
47.4400,0.873
47.4800,0.859
47.5200,0.836
47.5600,0.881
47.6000,0.962
47.6400,0.884
47.6800,0.868
47.7200,0.781
47.7600,0.860
47.8000,0.845
47.8400,0.867
47.8800,0.851
47.9200,0.822
47.9600,0.821
48.0000,0.865
48.0400,0.853
48.0800,0.871
48.1200,0.899
48.1600,0.844
48.2000,0.868
48.2400,0.878
48.2800,0.789
48.3200,0.864
48.3600,0.811
48.4000,0.766
48.4400,0.860
48.4800,0.843
48.5200,0.876
48.5600,0.873
48.6000,0.776
48.6400,0.803
48.6800,0.777
48.7200,0.789
48.7600,0.801
48.8000,0.821
48.8400,0.745
48.8800,0.773
48.9200,0.753
48.9600,0.801
49.0000,0.801
49.0400,0.807
49.0800,0.739
49.1200,0.777
49.1600,0.788
49.2000,0.782
49.2400,0.782
49.2800,0.836
49.3200,0.820
49.3600,0.760
49.4000,0.793
49.4400,0.779
49.4800,0.799
49.5200,0.809
49.5600,0.820
49.6000,0.828
49.6400,0.749
49.6800,0.774
49.7200,0.746
49.7600,0.824
49.8000,0.803
49.8400,0.851
49.8800,0.784
49.9200,0.825
49.9600,0.792
50.0000,0.788
50.0400,0.736
50.0800,0.827
50.1200,0.751
50.1600,0.710
50.2000,0.772
50.2400,0.809
50.2800,0.830
50.3200,0.778
50.3600,0.739
50.4000,0.693
50.4400,0.773
50.4800,0.747
50.5200,0.732
50.5600,0.735
50.6000,0.764
50.6400,0.768
50.6800,0.808
50.7200,0.809
50.7600,0.793
50.8000,0.741
50.8400,0.803
50.8800,0.768
50.9200,0.724
50.9600,0.681
51.0000,0.839
51.0400,0.744
51.0800,0.751
51.1200,0.774
51.1600,0.787
51.2000,0.754
51.2400,0.712
51.2800,0.790
51.3200,0.779
51.3600,0.721
51.4000,0.745
51.4400,0.768
51.4800,0.813
51.5200,0.856
51.5600,0.872
51.6000,0.884
51.6400,1.039
51.6800,1.059
51.7200,0.946
51.7600,0.907
51.8000,0.904
51.8400,0.885
51.8800,0.849
51.9200,0.725
51.9600,0.660
52.0000,0.683
52.0400,0.834
52.0800,0.711
52.1200,0.671
52.1600,0.651
52.2000,0.729
52.2400,0.751
52.2800,0.761
52.3200,0.759
52.3600,0.731
52.4000,0.743
52.4400,0.675
52.4800,0.650
52.5200,0.716
52.5600,0.642
52.6000,0.711
52.6400,0.762
52.6800,0.679
52.7200,0.724
52.7600,0.737
52.8000,0.751
52.8400,0.700
52.8800,0.678
52.9200,0.699
52.9600,0.667
53.0000,0.679
53.0400,0.686
53.0800,0.701
53.1200,0.691
53.1600,0.706
53.2000,0.718
53.2400,0.697
53.2800,0.713
53.3200,0.719
53.3600,0.657
53.4000,0.675
53.4400,0.663
53.4800,0.657
53.5200,0.711
53.5600,0.730
53.6000,0.714
53.6400,0.748
53.6800,0.720
53.7200,0.710
53.7600,0.639
53.8000,0.694
53.8400,0.684
53.8800,0.666
53.9200,0.669
53.9600,0.692
54.0000,0.665
54.0400,0.635
54.0800,0.640
54.1200,0.656
54.1600,0.619
54.2000,0.677
54.2400,0.701
54.2800,0.668
54.3200,0.674
54.3600,0.618
54.4000,0.696
54.4400,0.688
54.4800,0.660
54.5200,0.641
54.5600,0.658
54.6000,0.706
54.6400,0.733
54.6800,0.765
54.7200,0.734
54.7600,0.715
54.8000,0.669
54.8400,0.722
54.8800,0.688
54.9200,0.731
54.9600,0.719
55.0000,0.771
55.0400,0.833
55.0800,0.762
55.1200,0.763
55.1600,0.937
55.2000,0.954
55.2400,0.903
55.2800,0.953
55.3200,0.925
55.3600,0.951
55.4000,0.819
55.4400,0.750
55.4800,0.777
55.5200,0.734
55.5600,0.780
55.6000,0.733
55.6400,0.683
55.6800,0.662
55.7200,0.661
55.7600,0.604
55.8000,0.659
55.8400,0.711
55.8800,0.671
55.9200,0.623
55.9600,0.650
56.0000,0.606
56.0400,0.643
56.0800,0.610
56.1200,0.672
56.1600,0.647
56.2000,0.615
56.2400,0.635
56.2800,0.640
56.3200,0.635
56.3600,0.625
56.4000,0.608
56.4400,0.649
56.4800,0.627
56.5200,0.657
56.5600,0.661
56.6000,0.664
56.6400,0.571
56.6800,0.648
56.7200,0.649
56.7600,0.562
56.8000,0.632
56.8400,0.596
56.8800,0.590
56.9200,0.632
56.9600,0.600
57.0000,0.632
57.0400,0.623
57.0800,0.619
57.1200,0.640
57.1600,0.575
57.2000,0.653
57.2400,0.610
57.2800,0.612
57.3200,0.641
57.3600,0.604
57.4000,0.589
57.4400,0.538
57.4800,0.615
57.5200,0.642
57.5600,0.586
57.6000,0.627
57.6400,0.560
57.6800,0.585
57.7200,0.565
57.7600,0.631
57.8000,0.581
57.8400,0.587
57.8800,0.583
57.9200,0.628
57.9600,0.529
58.0000,0.587
58.0400,0.572
58.0800,0.551
58.1200,0.619
58.1600,0.545
58.2000,0.577
58.2400,0.556
58.2800,0.564
58.3200,0.565
58.3600,0.622
58.4000,0.531
58.4400,0.530
58.4800,0.531
58.5200,0.544
58.5600,0.603
58.6000,0.587
58.6400,0.571
58.6800,0.544
58.7200,0.585
58.7600,0.549
58.8000,0.523
58.8400,0.543
58.8800,0.589
58.9200,0.570
58.9600,0.589
59.0000,0.556
59.0400,0.525
59.0800,0.502
59.1200,0.560
59.1600,0.526
59.2000,0.546
59.2400,0.550
59.2800,0.606
59.3200,0.546
59.3600,0.553
59.4000,0.540
59.4400,0.606
59.4800,0.551
59.5200,0.519
59.5600,0.540
59.6000,0.467
59.6400,0.570
59.6800,0.584
59.7200,0.570
59.7600,0.488
59.8000,0.488
59.8400,0.595
59.8800,0.600
59.9200,0.522
59.9600,0.500
60.0000,0.533
60.0400,0.538
60.0800,0.556
60.1200,0.551
60.1600,0.581
60.2000,0.507
60.2400,0.541
60.2800,0.549
60.3200,0.518
60.3600,0.549
60.4000,0.484
60.4400,0.547
60.4800,0.570
60.5200,0.452
60.5600,0.550
60.6000,0.534
60.6400,0.500
60.6800,0.524
60.7200,0.541
60.7600,0.516
60.8000,0.488
60.8400,0.526
60.8800,0.518
60.9200,0.537
60.9600,0.540
61.0000,0.542
61.0400,0.550
61.0800,0.548
61.1200,0.594
61.1600,0.550
61.2000,0.538
61.2400,0.537
61.2800,0.532
61.3200,0.489
61.3600,0.513
61.4000,0.563
61.4400,0.553
61.4800,0.553
61.5200,0.538
61.5600,0.609
61.6000,0.578
61.6400,0.612
61.6800,0.628
61.7200,0.639
61.7600,0.626
61.8000,0.656
61.8400,0.632
61.8800,0.596
61.9200,0.560
61.9600,0.592
62.0000,0.625
62.0400,0.554
62.0800,0.596
62.1200,0.527
62.1600,0.480
62.2000,0.482
62.2400,0.545
62.2800,0.575
62.3200,0.473
62.3600,0.513
62.4000,0.499
62.4400,0.500
62.4800,0.492
62.5200,0.523
62.5600,0.501
62.6000,0.535
62.6400,0.589
62.6800,0.582
62.7200,0.575
62.7600,0.583
62.8000,0.518
62.8400,0.573
62.8800,0.550
62.9200,0.557
62.9600,0.553
63.0000,0.554
63.0400,0.443
63.0800,0.474
63.1200,0.503
63.1600,0.487
63.2000,0.531
63.2400,0.512
63.2800,0.559
63.3200,0.508
63.3600,0.518
63.4000,0.435
63.4400,0.468
63.4800,0.447
63.5200,0.454
63.5600,0.453
63.6000,0.505
63.6400,0.497
63.6800,0.461
63.7200,0.461
63.7600,0.430
63.8000,0.418
63.8400,0.435
63.8800,0.457
63.9200,0.414
63.9600,0.447
64.0000,0.435
64.0400,0.432
64.0800,0.450
64.1200,0.442
64.1600,0.403
64.2000,0.435
64.2400,0.467
64.2800,0.449
64.3200,0.411
64.3600,0.407
64.4000,0.464
64.4400,0.469
64.4800,0.472
64.5200,0.422
64.5600,0.407
64.6000,0.439
64.6400,0.519
64.6800,0.470
64.7200,0.521
64.7600,0.468
64.8000,0.448
64.8400,0.450
64.8800,0.472
64.9200,0.410
64.9600,0.456
65.0000,0.447
65.0400,0.406
65.0800,0.429
65.1200,0.461
65.1600,0.407
65.2000,0.462
65.2400,0.410
65.2800,0.419
65.3200,0.466
65.3600,0.454
65.4000,0.514
65.4400,0.481
65.4800,0.432
65.5200,0.455
65.5600,0.451
65.6000,0.423
65.6400,0.465
65.6800,0.492
65.7200,0.485
65.7600,0.479
65.8000,0.496
65.8400,0.473
65.8800,0.501
65.9200,0.575
65.9600,0.551
66.0000,0.529
66.0400,0.494
66.0800,0.542
66.1200,0.576
66.1600,0.571
66.2000,0.475
66.2400,0.458
66.2800,0.500
66.3200,0.424
66.3600,0.457
66.4000,0.472
66.4400,0.441
66.4800,0.400
66.5200,0.402
66.5600,0.438
66.6000,0.418
66.6400,0.456
66.6800,0.419
66.7200,0.412
66.7600,0.408
66.8000,0.379
66.8400,0.411
66.8800,0.442
66.9200,0.400
66.9600,0.365
67.0000,0.390
67.0400,0.395
67.0800,0.366
67.1200,0.397
67.1600,0.433
67.2000,0.435
67.2400,0.390
67.2800,0.377
67.3200,0.320
67.3600,0.399
67.4000,0.404
67.4400,0.353
67.4800,0.390
67.5200,0.367
67.5600,0.414
67.6000,0.355
67.6400,0.436
67.6800,0.425
67.7200,0.442
67.7600,0.375
67.8000,0.390
67.8400,0.381
67.8800,0.403
67.9200,0.393
67.9600,0.387
68.0000,0.362
68.0400,0.352
68.0800,0.383
68.1200,0.408
68.1600,0.383
68.2000,0.362
68.2400,0.372
68.2800,0.409
68.3200,0.377
68.3600,0.419
68.4000,0.412
68.4400,0.463
68.4800,0.445
68.5200,0.543
68.5600,0.644
68.6000,0.609
68.6400,0.549
68.6800,0.519
68.7200,0.522
68.7600,0.560
68.8000,0.520
68.8400,0.504
68.8800,0.531
68.9200,0.476
68.9600,0.516
69.0000,0.457
69.0400,0.496
69.0800,0.621
69.1200,0.685
69.1600,0.684
69.2000,0.572
69.2400,0.509
69.2800,0.500
69.3200,0.604
69.3600,0.508
69.4000,0.490
69.4400,0.400
69.4800,0.461
69.5200,0.375
69.5600,0.356
69.6000,0.388
69.6400,0.399
69.6800,0.394
69.7200,0.348
69.7600,0.354
69.8000,0.407
69.8400,0.363
69.8800,0.405
69.9200,0.352
69.9600,0.379
70.0000,0.362
70.0400,0.366
70.0800,0.369
70.1200,0.391
70.1600,0.426
70.2000,0.384
70.2400,0.390
70.2800,0.390
70.3200,0.362
70.3600,0.338
70.4000,0.366
70.4400,0.327
70.4800,0.349
70.5200,0.361
70.5600,0.409
70.6000,0.340
70.6400,0.320
70.6800,0.342
70.7200,0.363
70.7600,0.404
70.8000,0.356
70.8400,0.393
70.8800,0.300
70.9200,0.338
70.9600,0.315
71.0000,0.327
71.0400,0.360
71.0800,0.352
71.1200,0.367
71.1600,0.324
71.2000,0.322
71.2400,0.358
71.2800,0.312
71.3200,0.360
71.3600,0.358
71.4000,0.317
71.4400,0.348
71.4800,0.384
71.5200,0.345
71.5600,0.375
71.6000,0.331
71.6400,0.313
71.6800,0.341
71.7200,0.301
71.7600,0.355
71.8000,0.327
71.8400,0.361
71.8800,0.328
71.9200,0.383
71.9600,0.391
72.0000,0.322
72.0400,0.375
72.0800,0.363
72.1200,0.281
72.1600,0.318
72.2000,0.392
72.2400,0.342
72.2800,0.295
72.3200,0.321
72.3600,0.324
72.4000,0.329
72.4400,0.354
72.4800,0.274
72.5200,0.337
72.5600,0.333
72.6000,0.330
72.6400,0.337
72.6800,0.332
72.7200,0.296
72.7600,0.383
72.8000,0.333
72.8400,0.341
72.8800,0.329
72.9200,0.342
72.9600,0.331
73.0000,0.315
73.0400,0.354
73.0800,0.325
73.1200,0.314
73.1600,0.327
73.2000,0.340
73.2400,0.347
73.2800,0.346
73.3200,0.300
73.3600,0.297
73.4000,0.282
73.4400,0.308
73.4800,0.291
73.5200,0.251
73.5600,0.337
73.6000,0.334
73.6400,0.353
73.6800,0.279
73.7200,0.348
73.7600,0.337
73.8000,0.348
73.8400,0.326
73.8800,0.355
73.9200,0.295
73.9600,0.328
74.0000,0.329
74.0400,0.372
74.0800,0.369
74.1200,0.361
74.1600,0.356
74.2000,0.369
74.2400,0.392
74.2800,0.408
74.3200,0.423
74.3600,0.511
74.4000,0.471
74.4400,0.471
74.4800,0.420
74.5200,0.424
74.5600,0.392
74.6000,0.386
74.6400,0.439
74.6800,0.363
74.7200,0.387
74.7600,0.404
74.8000,0.355
74.8400,0.332
74.8800,0.312
74.9200,0.353
74.9600,0.354
75.0000,0.340
75.0400,0.370
75.0800,0.382
75.1200,0.307
75.1600,0.379
75.2000,0.405
75.2400,0.379
75.2800,0.441
75.3200,0.364
75.3600,0.356
75.4000,0.370
75.4400,0.411
75.4800,0.429
75.5200,0.416
75.5600,0.395
75.6000,0.375
75.6400,0.392
75.6800,0.392
75.7200,0.404
75.7600,0.395
75.8000,0.359
75.8400,0.411
75.8800,0.368
75.9200,0.360
75.9600,0.351
76.0000,0.372
76.0400,0.355
76.0800,0.361
76.1200,0.338
76.1600,0.314
76.2000,0.337
76.2400,0.279
76.2800,0.310
76.3200,0.309
76.3600,0.288
76.4000,0.289
76.4400,0.333
76.4800,0.244
76.5200,0.292
76.5600,0.296
76.6000,0.319
76.6400,0.315
76.6800,0.307
76.7200,0.331
76.7600,0.292
76.8000,0.270
76.8400,0.259
76.8800,0.298
76.9200,0.277
76.9600,0.256
77.0000,0.289
77.0400,0.280
77.0800,0.286
77.1200,0.282
77.1600,0.295
77.2000,0.269
77.2400,0.300
77.2800,0.288
77.3200,0.290
77.3600,0.272
77.4000,0.298
77.4400,0.296
77.4800,0.346
77.5200,0.322
77.5600,0.261
77.6000,0.292
77.6400,0.359
77.6800,0.333
77.7200,0.349
77.7600,0.316
77.8000,0.267
77.8400,0.339
77.8800,0.308
77.9200,0.393
77.9600,0.316
78.0000,0.346
78.0400,0.306
78.0800,0.233
78.1200,0.280
78.1600,0.292
78.2000,0.328
78.2400,0.327
78.2800,0.294
78.3200,0.239
78.3600,0.257
78.4000,0.299
78.4400,0.288
78.4800,0.298
78.5200,0.258
78.5600,0.312
78.6000,0.274
78.6400,0.278
78.6800,0.275
78.7200,0.284
78.7600,0.273
78.8000,0.273
78.8400,0.318
78.8800,0.303
78.9200,0.281
78.9600,0.281
79.0000,0.269
79.0400,0.292
79.0800,0.315
79.1200,0.290
79.1600,0.364
79.2000,0.312
79.2400,0.320
79.2800,0.340
79.3200,0.309
79.3600,0.295
79.4000,0.361
79.4400,0.361
79.4800,0.319
79.5200,0.335
79.5600,0.247
79.6000,0.256
79.6400,0.272
79.6800,0.307
79.7200,0.273
79.7600,0.304
79.8000,0.322
79.8400,0.331
79.8800,0.298
79.9200,0.293
79.9600,0.259
80.0000,0.284
