theta,intensity
5.0000,2.448
5.0400,2.761
5.0800,2.679
5.1200,2.703
5.1600,2.690
5.2000,2.751
5.2400,2.494
5.2800,2.625
5.3200,2.571
5.3600,2.621
5.4000,2.533
5.4400,2.655
5.4800,2.582
5.5200,2.522
5.5600,2.494
5.6000,2.510
5.6400,2.503
5.6800,2.457
5.7200,2.511
5.7600,2.436
5.8000,2.433
5.8400,2.417
5.8800,2.385
5.9200,2.454
5.9600,2.366
6.0000,2.397
6.0400,2.413
6.0800,2.299
6.1200,2.306
6.1600,2.267
6.2000,2.241
6.2400,2.285
6.2800,2.249
6.3200,2.201
6.3600,2.201
6.4000,2.156
6.4400,2.145
6.4800,2.107
6.5200,2.113
6.5600,2.164
6.6000,2.102
6.6400,2.024
6.6800,1.973
6.7200,1.957
6.7600,1.984
6.8000,1.954
6.8400,1.977
6.8800,1.913
6.9200,1.885
6.9600,1.820
7.0000,1.834
7.0400,1.872
7.0800,1.843
7.1200,1.768
7.1600,1.809
7.2000,1.839
7.2400,1.729
7.2800,1.625
7.3200,1.732
7.3600,1.679
7.4000,1.708
7.4400,1.707
7.4800,1.684
7.5200,1.642
7.5600,1.624
7.6000,1.598
7.6400,1.658
7.6800,1.638
7.7200,1.587
7.7600,1.517
7.8000,1.549
7.8400,1.562
7.8800,1.572
7.9200,1.510
7.9600,1.563
8.0000,1.548
8.0400,1.533
8.0800,1.525
8.1200,1.485
8.1600,1.491
8.2000,1.508
8.2400,1.460
8.2800,1.463
8.3200,1.546
8.3600,1.449
8.4000,1.472
8.4400,1.512
8.4800,1.471
8.5200,1.437
8.5600,1.480
8.6000,1.525
8.6400,1.411
8.6800,1.431
8.7200,1.439
8.7600,1.424
8.8000,1.437
8.8400,1.427
8.8800,1.447
8.9200,1.445
8.9600,1.435
9.0000,1.409
9.0400,1.436
9.0800,1.377
9.1200,1.372
9.1600,1.415
9.2000,1.493
9.2400,1.448
9.2800,1.415
9.3200,1.398
9.3600,1.397
9.4000,1.445
9.4400,1.422
9.4800,1.423
9.5200,1.471
9.5600,1.411
9.6000,1.408
9.6400,1.389
9.6800,1.431
9.7200,1.399
9.7600,1.436
9.8000,1.366
9.8400,1.363
9.8800,1.432
9.9200,1.405
9.9600,1.442
10.0000,1.380
10.0400,1.400
10.0800,1.400
10.1200,1.392
10.1600,1.366
10.2000,1.360
10.2400,1.422
10.2800,1.395
10.3200,1.403
10.3600,1.425
10.4000,1.425
10.4400,1.417
10.4800,1.446
10.5200,1.423
10.5600,1.336
10.6000,1.393
10.6400,1.368
10.6800,1.373
10.7200,1.417
10.7600,1.438
10.8000,1.420
10.8400,1.382
10.8800,1.356
10.9200,1.410
10.9600,1.300
11.0000,1.382
11.0400,1.361
11.0800,1.391
11.1200,1.365
11.1600,1.427
11.2000,1.410
11.2400,1.386
11.2800,1.364
11.3200,1.323
11.3600,1.338
11.4000,1.362
11.4400,1.345
11.4800,1.409
11.5200,1.338
11.5600,1.360
11.6000,1.318
11.6400,1.341
11.6800,1.360
11.7200,1.373
11.7600,1.365
11.8000,1.364
11.8400,1.365
11.8800,1.352
11.9200,1.340
11.9600,1.349
12.0000,1.348
12.0400,1.376
12.0800,1.375
12.1200,1.394
12.1600,1.377
12.2000,1.319
12.2400,1.383
12.2800,1.293
12.3200,1.309
12.3600,1.359
12.4000,1.293
12.4400,1.313
12.4800,1.348
12.5200,1.278
12.5600,1.346
12.6000,1.315
12.6400,1.384
12.6800,1.297
12.7200,1.360
12.7600,1.286
12.8000,1.278
12.8400,1.294
12.8800,1.283
12.9200,1.323
12.9600,1.275
13.0000,1.317
13.0400,1.333
13.0800,1.333
13.1200,1.305
13.1600,1.310
13.2000,1.340
13.2400,1.278
13.2800,1.321
13.3200,1.339
13.3600,1.246
13.4000,1.391
13.4400,1.302
13.4800,1.256
13.5200,1.289
13.5600,1.325
13.6000,1.269
13.6400,1.296
13.6800,1.321
13.7200,1.314
13.7600,1.296
13.8000,1.277
13.8400,1.328
13.8800,1.314
13.9200,1.320
13.9600,1.340
14.0000,1.277
14.0400,1.263
14.0800,1.286
14.1200,1.315
14.1600,1.252
14.2000,1.313
14.2400,1.232
14.2800,1.257
14.3200,1.291
14.3600,1.270
14.4000,1.273
14.4400,1.247
14.4800,1.290
14.5200,1.290
14.5600,1.237
14.6000,1.268
14.6400,1.303
14.6800,1.268
14.7200,1.270
14.7600,1.238
14.8000,1.321
14.8400,1.280
14.8800,1.312
14.9200,1.332
14.9600,1.225
15.0000,1.232
15.0400,1.272
15.0800,1.231
15.1200,1.262
15.1600,1.226
15.2000,1.240
15.2400,1.243
15.2800,1.219
15.3200,1.226
15.3600,1.259
15.4000,1.248
15.4400,1.244
15.4800,1.292
15.5200,1.274
15.5600,1.295
15.6000,1.224
15.6400,1.263
15.6800,1.239
15.7200,1.250
15.7600,1.248
15.8000,1.207
15.8400,1.185
15.8800,1.299
15.9200,1.243
15.9600,1.220
16.0000,1.270
16.0400,1.250
16.0800,1.203
16.1200,1.238
16.1600,1.258
16.2000,1.266
16.2400,1.214
16.2800,1.186
16.3200,1.248
16.3600,1.228
16.4000,1.259
16.4400,1.202
16.4800,1.201
16.5200,1.244
16.5600,1.281
16.6000,1.244
16.6400,1.251
16.6800,1.250
16.7200,1.286
16.7600,1.228
16.8000,1.255
16.8400,1.244
16.8800,1.211
16.9200,1.241
16.9600,1.237
17.0000,1.225
17.0400,1.204
17.0800,1.219
17.1200,1.165
17.1600,1.235
17.2000,1.269
17.2400,1.226
17.2800,1.230
17.3200,1.237
17.3600,1.186
17.4000,1.208
17.4400,1.241
17.4800,1.242
17.5200,1.189
17.5600,1.223
17.6000,1.211
17.6400,1.201
17.6800,1.225
17.7200,1.225
17.7600,1.224
17.8000,1.215
17.8400,1.208
17.8800,1.239
17.9200,1.210
17.9600,1.220
18.0000,1.170
18.0400,1.146
18.0800,1.185
18.1200,1.214
18.1600,1.227
18.2000,1.237
18.2400,1.182
18.2800,1.150
18.3200,1.181
18.3600,1.197
18.4000,1.264
18.4400,1.216
18.4800,1.218
18.5200,1.287
18.5600,1.240
18.6000,1.275
18.6400,1.281
18.6800,1.237
18.7200,1.240
18.7600,1.231
18.8000,1.214
18.8400,1.203
18.8800,1.238
18.9200,1.270
18.9600,1.230
19.0000,1.185
19.0400,1.216
19.0800,1.195
19.1200,1.185
19.1600,1.155
19.2000,1.174
19.2400,1.207
19.2800,1.220
19.3200,1.213
19.3600,1.225
19.4000,1.215
19.4400,1.215
19.4800,1.271
19.5200,1.241
19.5600,1.219
19.6000,1.165
19.6400,1.157
19.6800,1.154
19.7200,1.213
19.7600,1.212
19.8000,1.200
19.8400,1.135
19.8800,1.234
19.9200,1.187
19.9600,1.219
20.0000,1.231
20.0400,1.190
20.0800,1.223
20.1200,1.174
20.1600,1.189
20.2000,1.192
20.2400,1.216
20.2800,1.207
20.3200,1.194
20.3600,1.230
20.4000,1.199
20.4400,1.228
20.4800,1.212
20.5200,1.223
20.5600,1.254
20.6000,1.224
20.6400,1.176
20.6800,1.171
20.7200,1.196
20.7600,1.194
20.8000,1.150
20.8400,1.211
20.8800,1.205
20.9200,1.193
20.9600,1.207
21.0000,1.237
21.0400,1.199
21.0800,1.217
21.1200,1.184
21.1600,1.186
21.2000,1.210
21.2400,1.206
21.2800,1.180
21.3200,1.145
21.3600,1.140
21.4000,1.152
21.4400,1.183
21.4800,1.136
21.5200,1.150
21.5600,1.156
21.6000,1.131
21.6400,1.137
21.6800,1.170
21.7200,1.153
21.7600,1.127
21.8000,1.144
21.8400,1.147
21.8800,1.092
21.9200,1.129
21.9600,1.125
22.0000,1.135
22.0400,1.117
22.0800,1.136
22.1200,1.171
22.1600,1.110
22.2000,1.087
22.2400,1.113
22.2800,1.101
22.3200,1.109
22.3600,1.132
22.4000,1.092
22.4400,1.097
22.4800,1.109
22.5200,1.079
22.5600,1.124
22.6000,1.120
22.6400,1.129
22.6800,1.132
22.7200,1.086
22.7600,1.141
22.8000,1.117
22.8400,1.122
22.8800,1.108
22.9200,1.103
22.9600,1.098
23.0000,1.117
23.0400,1.081
23.0800,1.110
23.1200,1.131
23.1600,1.133
23.2000,1.115
23.2400,1.123
23.2800,1.202
23.3200,1.212
23.3600,1.193
23.4000,1.157
23.4400,1.174
23.4800,1.125
23.5200,1.107
23.5600,1.107
23.6000,1.148
23.6400,1.176
23.6800,1.213
23.7200,1.168
23.7600,1.189
23.8000,1.168
23.8400,1.121
23.8800,1.078
23.9200,1.096
23.9600,1.110
24.0000,1.130
24.0400,1.193
24.0800,1.222
24.1200,1.236
24.1600,1.186
24.2000,1.254
24.2400,1.390
24.2800,1.409
24.3200,1.465
24.3600,1.346
24.4000,1.263
24.4400,1.104
24.4800,1.083
24.5200,1.080
24.5600,1.106
24.6000,1.061
24.6400,1.099
24.6800,1.058
24.7200,1.046
24.7600,1.042
24.8000,0.989
24.8400,0.999
24.8800,1.033
24.9200,0.957
24.9600,0.987
25.0000,1.000
25.0400,1.002
25.0800,0.984
25.1200,0.985
25.1600,0.969
25.2000,1.064
25.2400,0.983
25.2800,1.011
25.3200,0.977
25.3600,0.974
25.4000,1.011
25.4400,0.973
25.4800,1.008
25.5200,0.983
25.5600,0.958
25.6000,0.952
25.6400,0.971
25.6800,1.015
25.7200,1.002
25.7600,0.988
25.8000,1.047
25.8400,1.028
25.8800,1.055
25.9200,1.030
25.9600,1.007
26.0000,0.950
26.0400,0.972
26.0800,0.956
26.1200,0.971
26.1600,0.960
26.2000,0.915
26.2400,0.962
26.2800,0.874
26.3200,0.901
26.3600,0.866
26.4000,0.933
26.4400,0.904
26.4800,0.889
26.5200,0.914
26.5600,0.871
26.6000,0.897
26.6400,0.902
26.6800,0.868
26.7200,0.942
26.7600,0.927
26.8000,0.867
26.8400,0.884
26.8800,0.916
26.9200,0.885
26.9600,0.897
27.0000,0.941
27.0400,0.915
27.0800,0.921
27.1200,0.961
27.1600,0.909
27.2000,0.913
27.2400,0.865
27.2800,0.873
27.3200,0.882
27.3600,0.891
27.4000,0.843
27.4400,0.814
27.4800,0.871
27.5200,0.876
27.5600,0.871
27.6000,0.866
27.6400,0.872
27.6800,0.820
27.7200,0.845
27.7600,0.924
27.8000,0.839
27.8400,0.881
27.8800,0.933
27.9200,0.937
27.9600,1.030
28.0000,1.106
28.0400,1.177
28.0800,1.227
28.1200,1.193
28.1600,1.134
28.2000,1.020
28.2400,0.924
28.2800,0.885
28.3200,0.906
28.3600,0.855
28.4000,0.872
28.4400,0.850
28.4800,0.825
28.5200,0.844
28.5600,0.810
28.6000,0.833
28.6400,0.840
28.6800,0.896
28.7200,0.866
28.7600,0.890
28.8000,0.880
28.8400,0.934
28.8800,0.933
28.9200,0.918
28.9600,1.014
29.0000,1.068
29.0400,1.111
29.0800,1.234
29.1200,1.136
29.1600,1.061
29.2000,0.974
29.2400,0.947
29.2800,0.970
29.3200,1.018
29.3600,1.024
29.4000,1.074
29.4400,1.133
29.4800,1.148
29.5200,1.128
29.5600,1.057
29.6000,0.992
29.6400,0.866
29.6800,0.863
29.7200,0.787
29.7600,0.782
29.8000,0.783
29.8400,0.790
29.8800,0.770
29.9200,0.794
29.9600,0.790
30.0000,0.847
30.0400,0.923
30.0800,0.927
30.1200,0.965
30.1600,0.917
30.2000,0.886
30.2400,0.822
30.2800,0.818
30.3200,0.814
30.3600,0.794
30.4000,0.795
30.4400,0.748
30.4800,0.732
30.5200,0.731
30.5600,0.747
30.6000,0.683
30.6400,0.700
30.6800,0.705
30.7200,0.728
30.7600,0.742
30.8000,0.753
30.8400,0.725
30.8800,0.744
30.9200,0.719
30.9600,0.669
31.0000,0.668
31.0400,0.707
31.0800,0.686
31.1200,0.699
31.1600,0.662
31.2000,0.706
31.2400,0.664
31.2800,0.680
31.3200,0.660
31.3600,0.640
31.4000,0.680
31.4400,0.624
31.4800,0.663
31.5200,0.641
31.5600,0.681
31.6000,0.715
31.6400,0.701
31.6800,0.721
31.7200,0.670
31.7600,0.687
31.8000,0.686
31.8400,0.651
31.8800,0.654
31.9200,0.678
31.9600,0.652
32.0000,0.707
32.0400,0.740
32.0800,0.767
32.1200,0.746
32.1600,0.810
32.2000,0.817
32.2400,0.774
32.2800,0.733
32.3200,0.707
32.3600,0.668
32.4000,0.657
32.4400,0.647
32.4800,0.618
32.5200,0.648
32.5600,0.600
32.6000,0.630
32.6400,0.605
32.6800,0.600
32.7200,0.635
32.7600,0.628
32.8000,0.610
32.8400,0.614
32.8800,0.610
32.9200,0.670
32.9600,0.615
33.0000,0.601
33.0400,0.629
33.0800,0.647
33.1200,0.627
33.1600,0.598
33.2000,0.618
33.2400,0.625
33.2800,0.653
33.3200,0.626
33.3600,0.642
33.4000,0.629
33.4400,0.664
33.4800,0.695
33.5200,0.745
33.5600,0.755
33.6000,0.713
33.6400,0.705
33.6800,0.690
33.7200,0.707
33.7600,0.712
33.8000,0.668
33.8400,0.675
33.8800,0.731
33.9200,0.746
33.9600,0.786
34.0000,0.792
34.0400,0.781
34.0800,0.705
34.1200,0.682
34.1600,0.622
34.2000,0.607
34.2400,0.645
34.2800,0.611
34.3200,0.591
34.3600,0.597
34.4000,0.589
34.4400,0.599
34.4800,0.594
34.5200,0.592
34.5600,0.535
34.6000,0.593
34.6400,0.546
34.6800,0.561
34.7200,0.563
34.7600,0.577
34.8000,0.572
34.8400,0.567
34.8800,0.534
34.9200,0.581
34.9600,0.549
35.0000,0.584
35.0400,0.559
35.0800,0.571
35.1200,0.598
35.1600,0.524
35.2000,0.557
35.2400,0.536
35.2800,0.565
35.3200,0.567
35.3600,0.585
35.4000,0.626
35.4400,0.592
35.4800,0.607
35.5200,0.552
35.5600,0.533
35.6000,0.557
35.6400,0.589
35.6800,0.571
35.7200,0.532
35.7600,0.572
35.8000,0.566
35.8400,0.550
35.8800,0.546
35.9200,0.544
35.9600,0.545
36.0000,0.545
36.0400,0.521
36.0800,0.523
36.1200,0.562
36.1600,0.555
36.2000,0.604
36.2400,0.590
36.2800,0.573
36.3200,0.570
36.3600,0.556
36.4000,0.595
36.4400,0.564
36.4800,0.593
36.5200,0.573
36.5600,0.649
36.6000,0.593
36.6400,0.644
36.6800,0.730
36.7200,0.839
36.7600,0.986
36.8000,1.022
36.8400,0.981
36.8800,0.981
36.9200,0.844
36.9600,0.733
37.0000,0.639
37.0400,0.580
37.0800,0.571
37.1200,0.596
37.1600,0.557
37.2000,0.585
37.2400,0.581
37.2800,0.543
37.3200,0.570
37.3600,0.561
37.4000,0.548
37.4400,0.582
37.4800,0.579
37.5200,0.589
37.5600,0.586
37.6000,0.583
37.6400,0.628
37.6800,0.671
37.7200,0.645
37.7600,0.673
37.8000,0.668
37.8400,0.736
37.8800,0.853
37.9200,1.030
37.9600,1.335
38.0000,1.951
38.0400,4.068
38.0800,9.253
38.1200,16.163
38.1600,18.514
38.2000,17.337
38.2400,14.201
38.2800,9.963
38.3200,5.883
38.3600,2.999
38.4000,1.687
38.4400,1.225
38.4800,1.000
38.5200,0.813
38.5600,0.737
38.6000,0.707
38.6400,0.679
38.6800,0.645
38.7200,0.611
38.7600,0.613
38.8000,0.576
38.8400,0.581
38.8800,0.564
38.9200,0.547
38.9600,0.589
39.0000,0.590
39.0400,0.555
39.0800,0.579
39.1200,0.533
39.1600,0.515
39.2000,0.494
39.2400,0.560
39.2800,0.487
39.3200,0.464
39.3600,0.501
39.4000,0.515
39.4400,0.484
39.4800,0.494
39.5200,0.476
39.5600,0.488
39.6000,0.492
39.6400,0.502
39.6800,0.469
39.7200,0.490
39.7600,0.464
39.8000,0.446
39.8400,0.436
39.8800,0.446
39.9200,0.466
39.9600,0.476
40.0000,0.468
40.0400,0.432
40.0800,0.431
40.1200,0.489
40.1600,0.464
40.2000,0.477
40.2400,0.448
40.2800,0.440
40.3200,0.439
40.3600,0.478
40.4000,0.438
40.4400,0.476
40.4800,0.460
40.5200,0.444
40.5600,0.464
40.6000,0.436
40.6400,0.443
40.6800,0.426
40.7200,0.422
40.7600,0.427
40.8000,0.476
40.8400,0.432
40.8800,0.424
40.9200,0.461
40.9600,0.429
41.0000,0.439
41.0400,0.465
41.0800,0.466
41.1200,0.432
41.1600,0.451
41.2000,0.442
41.2400,0.430
41.2800,0.451
41.3200,0.430
41.3600,0.454
41.4000,0.431
41.4400,0.447
41.4800,0.396
41.5200,0.431
41.5600,0.440
41.6000,0.437
41.6400,0.423
41.6800,0.435
41.7200,0.414
41.7600,0.404
41.8000,0.422
41.8400,0.423
41.8800,0.412
41.9200,0.408
41.9600,0.388
42.0000,0.400
42.0400,0.432
42.0800,0.450
42.1200,0.442
42.1600,0.442
42.2000,0.403
42.2400,0.429
42.2800,0.482
42.3200,0.416
42.3600,0.392
42.4000,0.421
42.4400,0.427
42.4800,0.421
42.5200,0.451
42.5600,0.432
42.6000,0.413
42.6400,0.450
42.6800,0.383
42.7200,0.429
42.7600,0.422
42.8000,0.428
42.8400,0.401
42.8800,0.416
42.9200,0.417
42.9600,0.464
43.0000,0.444
43.0400,0.426
43.0800,0.419
43.1200,0.449
43.1600,0.442
43.2000,0.438
43.2400,0.396
43.2800,0.412
43.3200,0.434
43.3600,0.414
43.4000,0.470
43.4400,0.443
43.4800,0.428
43.5200,0.429
43.5600,0.435
43.6000,0.447
43.6400,0.447
43.6800,0.462
43.7200,0.477
43.7600,0.441
43.8000,0.423
43.8400,0.473
43.8800,0.447
43.9200,0.493
43.9600,0.525
44.0000,0.544
44.0400,0.596
44.0800,0.621
44.1200,0.661
44.1600,0.951
44.2000,1.330
44.2400,2.266
44.2800,3.833
44.3200,5.378
44.3600,5.545
44.4000,4.999
44.4400,4.373
44.4800,3.454
44.5200,2.393
44.5600,1.550
44.6000,0.999
44.6400,0.826
44.6800,0.668
44.7200,0.622
44.7600,0.527
44.8000,0.538
44.8400,0.466
44.8800,0.451
44.9200,0.450
44.9600,0.451
45.0000,0.413
45.0400,0.401
45.0800,0.441
45.1200,0.386
45.1600,0.391
45.2000,0.382
45.2400,0.402
45.2800,0.405
45.3200,0.387
45.3600,0.348
45.4000,0.385
45.4400,0.384
45.4800,0.385
45.5200,0.393
45.5600,0.389
45.6000,0.392
45.6400,0.386
45.6800,0.388
45.7200,0.395
45.7600,0.352
45.8000,0.355
45.8400,0.342
45.8800,0.345
45.9200,0.340
45.9600,0.386
46.0000,0.363
46.0400,0.381
46.0800,0.372
46.1200,0.371
46.1600,0.359
46.2000,0.366
46.2400,0.367
46.2800,0.391
46.3200,0.341
46.3600,0.351
46.4000,0.383
46.4400,0.346
46.4800,0.364
46.5200,0.354
46.5600,0.342
46.6000,0.339
46.6400,0.359
46.6800,0.364
46.7200,0.318
46.7600,0.330
46.8000,0.358
46.8400,0.377
46.8800,0.340
46.9200,0.369
46.9600,0.334
47.0000,0.341
47.0400,0.353
47.0800,0.356
47.1200,0.331
47.1600,0.362
47.2000,0.351
47.2400,0.333
47.2800,0.322
47.3200,0.286
47.3600,0.324
47.4000,0.339
47.4400,0.316
47.4800,0.308
47.5200,0.349
47.5600,0.332
47.6000,0.346
47.6400,0.348
47.6800,0.325
47.7200,0.368
47.7600,0.372
47.8000,0.328
47.8400,0.329
47.8800,0.349
47.9200,0.335
47.9600,0.359
48.0000,0.351
48.0400,0.341
48.0800,0.335
48.1200,0.339
48.1600,0.319
48.2000,0.359
48.2400,0.372
48.2800,0.376
48.3200,0.360
48.3600,0.356
48.4000,0.345
48.4400,0.335
48.4800,0.344
48.5200,0.355
48.5600,0.317
48.6000,0.356
48.6400,0.322
48.6800,0.309
48.7200,0.332
48.7600,0.315
48.8000,0.354
48.8400,0.311
48.8800,0.335
48.9200,0.339
48.9600,0.345
49.0000,0.348
49.0400,0.342
49.0800,0.317
49.1200,0.337
49.1600,0.382
49.2000,0.372
49.2400,0.386
49.2800,0.387
49.3200,0.392
49.3600,0.367
49.4000,0.386
49.4400,0.358
49.4800,0.340
49.5200,0.312
49.5600,0.347
49.6000,0.342
49.6400,0.346
49.6800,0.370
49.7200,0.387
49.7600,0.330
49.8000,0.346
49.8400,0.322
49.8800,0.341
49.9200,0.337
49.9600,0.315
50.0000,0.342
50.0400,0.334
50.0800,0.339
50.1200,0.306
50.1600,0.332
50.2000,0.321
50.2400,0.320
50.2800,0.331
50.3200,0.294
50.3600,0.305
50.4000,0.294
50.4400,0.289
50.4800,0.291
50.5200,0.309
50.5600,0.301
50.6000,0.312
50.6400,0.311
50.6800,0.320
50.7200,0.301
50.7600,0.328
50.8000,0.319
50.8400,0.312
50.8800,0.292
50.9200,0.276
50.9600,0.303
51.0000,0.279
51.0400,0.305
51.0800,0.315
51.1200,0.280
51.1600,0.291
51.2000,0.280
51.2400,0.296
51.2800,0.271
51.3200,0.251
51.3600,0.297
51.4000,0.294
51.4400,0.280
51.4800,0.309
51.5200,0.283
51.5600,0.292
51.6000,0.282
51.6400,0.291
51.6800,0.300
51.7200,0.282
51.7600,0.285
51.8000,0.311
51.8400,0.288
51.8800,0.277
51.9200,0.286
51.9600,0.287
52.0000,0.286
52.0400,0.285
52.0800,0.287
52.1200,0.294
52.1600,0.283
52.2000,0.284
52.2400,0.294
52.2800,0.253
52.3200,0.255
52.3600,0.297
52.4000,0.253
52.4400,0.270
52.4800,0.268
52.5200,0.277
52.5600,0.251
52.6000,0.271
52.6400,0.266
52.6800,0.253
52.7200,0.256
52.7600,0.269
52.8000,0.271
52.8400,0.286
52.8800,0.265
52.9200,0.279
52.9600,0.275
53.0000,0.283
53.0400,0.262
53.0800,0.284
53.1200,0.273
53.1600,0.297
53.2000,0.285
53.2400,0.279
53.2800,0.241
53.3200,0.262
53.3600,0.268
53.4000,0.260
53.4400,0.276
53.4800,0.254
53.5200,0.255
53.5600,0.261
53.6000,0.271
53.6400,0.257
53.6800,0.266
53.7200,0.246
53.7600,0.247
53.8000,0.252
53.8400,0.256
53.8800,0.268
53.9200,0.258
53.9600,0.249
54.0000,0.239
54.0400,0.249
54.0800,0.249
54.1200,0.245
54.1600,0.244
54.2000,0.248
54.2400,0.266
54.2800,0.278
54.3200,0.244
54.3600,0.241
54.4000,0.228
54.4400,0.268
54.4800,0.246
54.5200,0.248
54.5600,0.253
54.6000,0.246
54.6400,0.257
54.6800,0.260
54.7200,0.268
54.7600,0.268
54.8000,0.242
54.8400,0.226
54.8800,0.255
54.9200,0.253
54.9600,0.221
55.0000,0.247
55.0400,0.263
55.0800,0.250
55.1200,0.238
55.1600,0.257
55.2000,0.234
55.2400,0.260
55.2800,0.232
55.3200,0.253
55.3600,0.243
55.4000,0.254
55.4400,0.218
55.4800,0.255
55.5200,0.251
55.5600,0.252
55.6000,0.240
55.6400,0.228
55.6800,0.244
55.7200,0.245
55.7600,0.247
55.8000,0.236
55.8400,0.251
55.8800,0.216
55.9200,0.224
55.9600,0.253
56.0000,0.245
56.0400,0.250
56.0800,0.245
56.1200,0.234
56.1600,0.246
56.2000,0.242
56.2400,0.255
56.2800,0.244
56.3200,0.235
56.3600,0.241
56.4000,0.243
56.4400,0.228
56.4800,0.252
56.5200,0.228
56.5600,0.218
56.6000,0.245
56.6400,0.246
56.6800,0.252
56.7200,0.253
56.7600,0.241
56.8000,0.250
56.8400,0.246
56.8800,0.236
56.9200,0.244
56.9600,0.235
57.0000,0.232
57.0400,0.231
57.0800,0.243
57.1200,0.225
57.1600,0.229
57.2000,0.252
57.2400,0.244
57.2800,0.259
57.3200,0.256
57.3600,0.255
57.4000,0.231
57.4400,0.244
57.4800,0.234
57.5200,0.213
57.5600,0.221
57.6000,0.233
57.6400,0.254
57.6800,0.231
57.7200,0.246
57.7600,0.228
57.8000,0.251
57.8400,0.250
57.8800,0.263
57.9200,0.247
57.9600,0.262
58.0000,0.231
58.0400,0.230
58.0800,0.267
58.1200,0.242
58.1600,0.236
58.2000,0.232
58.2400,0.241
58.2800,0.254
58.3200,0.234
58.3600,0.248
58.4000,0.255
58.4400,0.240
58.4800,0.224
58.5200,0.212
58.5600,0.210
58.6000,0.235
58.6400,0.241
58.6800,0.238
58.7200,0.198
58.7600,0.235
58.8000,0.229
58.8400,0.213
58.8800,0.226
58.9200,0.219
58.9600,0.224
59.0000,0.255
59.0400,0.223
59.0800,0.238
59.1200,0.229
59.1600,0.203
59.2000,0.234
59.2400,0.246
59.2800,0.251
59.3200,0.254
59.3600,0.231
59.4000,0.236
59.4400,0.261
59.4800,0.243
59.5200,0.237
59.5600,0.229
59.6000,0.210
59.6400,0.264
59.6800,0.239
59.7200,0.245
59.7600,0.217
59.8000,0.244
59.8400,0.222
59.8800,0.223
59.9200,0.237
59.9600,0.239
60.0000,0.244
60.0400,0.233
60.0800,0.231
60.1200,0.215
60.1600,0.227
60.2000,0.238
60.2400,0.223
60.2800,0.231
60.3200,0.214
60.3600,0.237
60.4000,0.223
60.4400,0.246
60.4800,0.215
60.5200,0.254
60.5600,0.232
60.6000,0.221
60.6400,0.239
60.6800,0.219
60.7200,0.225
60.7600,0.214
60.8000,0.210
60.8400,0.217
60.8800,0.247
60.9200,0.207
60.9600,0.227
61.0000,0.215
61.0400,0.224
61.0800,0.231
61.1200,0.206
61.1600,0.212
61.2000,0.228
61.2400,0.224
61.2800,0.238
61.3200,0.232
61.3600,0.209
61.4000,0.227
61.4400,0.231
61.4800,0.248
61.5200,0.229
61.5600,0.223
61.6000,0.245
61.6400,0.247
61.6800,0.245
61.7200,0.246
61.7600,0.229
61.8000,0.269
61.8400,0.234
61.8800,0.225
61.9200,0.240
61.9600,0.238
62.0000,0.221
62.0400,0.236
62.0800,0.238
62.1200,0.237
62.1600,0.238
62.2000,0.244
62.2400,0.255
62.2800,0.261
62.3200,0.276
62.3600,0.242
62.4000,0.242
62.4400,0.258
62.4800,0.236
62.5200,0.250
62.5600,0.214
62.6000,0.240
62.6400,0.224
62.6800,0.227
62.7200,0.232
62.7600,0.232
62.8000,0.237
62.8400,0.242
62.8800,0.243
62.9200,0.258
62.9600,0.239
63.0000,0.247
63.0400,0.226
63.0800,0.242
63.1200,0.229
63.1600,0.233
63.2000,0.233
63.2400,0.248
63.2800,0.239
63.3200,0.261
63.3600,0.217
63.4000,0.250
63.4400,0.272
63.4800,0.254
63.5200,0.237
63.5600,0.265
63.6000,0.257
63.6400,0.271
63.6800,0.265
63.7200,0.289
63.7600,0.276
63.8000,0.284
63.8400,0.266
63.8800,0.258
63.9200,0.264
63.9600,0.278
64.0000,0.285
64.0400,0.271
64.0800,0.289
64.1200,0.322
64.1600,0.315
64.2000,0.337
64.2400,0.415
64.2800,0.412
64.3200,0.523
64.3600,0.714
64.4000,1.213
64.4400,1.877
64.4800,2.404
64.5200,2.450
64.5600,2.046
64.6000,1.758
64.6400,1.746
64.6800,1.703
64.7200,1.421
64.7600,1.032
64.8000,0.728
64.8400,0.535
64.8800,0.455
64.9200,0.363
64.9600,0.339
65.0000,0.325
65.0400,0.335
65.0800,0.308
65.1200,0.325
65.1600,0.294
65.2000,0.330
65.2400,0.276
65.2800,0.317
65.3200,0.300
65.3600,0.285
65.4000,0.270
65.4400,0.290
65.4800,0.289
65.5200,0.288
65.5600,0.277
65.6000,0.277
65.6400,0.296
65.6800,0.293
65.7200,0.302
65.7600,0.286
65.8000,0.281
65.8400,0.297
65.8800,0.287
65.9200,0.307
65.9600,0.302
66.0000,0.299
66.0400,0.285
66.0800,0.298
66.1200,0.306
66.1600,0.287
66.2000,0.280
66.2400,0.307
66.2800,0.326
66.3200,0.321
66.3600,0.329
66.4000,0.347
66.4400,0.309
66.4800,0.328
66.5200,0.312
66.5600,0.309
66.6000,0.325
66.6400,0.326
66.6800,0.348
66.7200,0.327
66.7600,0.333
66.8000,0.368
66.8400,0.335
66.8800,0.372
66.9200,0.344
66.9600,0.360
67.0000,0.362
67.0400,0.380
67.0800,0.380
67.1200,0.350
67.1600,0.370
67.2000,0.371
67.2400,0.406
67.2800,0.381
67.3200,0.415
67.3600,0.395
67.4000,0.414
67.4400,0.375
67.4800,0.411
67.5200,0.408
67.5600,0.432
67.6000,0.434
67.6400,0.439
67.6800,0.472
67.7200,0.445
67.7600,0.471
67.8000,0.441
67.8400,0.507
67.8800,0.487
67.9200,0.510
67.9600,0.501
68.0000,0.508
68.0400,0.520
68.0800,0.525
68.1200,0.527
68.1600,0.552
68.2000,0.547
68.2400,0.569
68.2800,0.585
68.3200,0.588
68.3600,0.615
68.4000,0.609
68.4400,0.639
68.4800,0.645
68.5200,0.694
68.5600,0.734
68.6000,0.808
68.6400,0.840
68.6800,0.990
68.7200,1.112
68.7600,1.361
68.8000,1.501
68.8400,1.719
68.8800,1.794
68.9200,2.044
68.9600,2.617
69.0000,4.560
69.0400,14.117
69.0800,46.649
69.1200,72.108
69.1600,67.854
69.2000,46.781
69.2400,21.929
69.2800,28.251
69.3200,38.806
69.3600,36.080
69.4000,23.728
69.4400,8.235
69.4800,3.155
69.5200,2.046
69.5600,1.631
69.6000,1.406
69.6400,1.217
69.6800,1.045
69.7200,0.978
69.7600,0.903
69.8000,0.893
69.8400,0.845
69.8800,0.806
69.9200,0.737
69.9600,0.710
70.0000,0.702
70.0400,0.657
70.0800,0.679
70.1200,0.591
70.1600,0.622
70.2000,0.597
70.2400,0.585
70.2800,0.598
70.3200,0.558
70.3600,0.585
70.4000,0.553
70.4400,0.531
70.4800,0.528
70.5200,0.537
70.5600,0.460
70.6000,0.488
70.6400,0.457
70.6800,0.460
70.7200,0.438
70.7600,0.491
70.8000,0.417
70.8400,0.430
70.8800,0.423
70.9200,0.405
70.9600,0.425
71.0000,0.402
71.0400,0.386
71.0800,0.428
71.1200,0.415
71.1600,0.386
71.2000,0.381
71.2400,0.376
71.2800,0.367
71.3200,0.360
71.3600,0.364
71.4000,0.346
71.4400,0.367
71.4800,0.353
71.5200,0.357
71.5600,0.366
71.6000,0.381
71.6400,0.336
71.6800,0.359
71.7200,0.335
71.7600,0.296
71.8000,0.333
71.8400,0.289
71.8800,0.321
71.9200,0.316
71.9600,0.313
72.0000,0.295
72.0400,0.299
72.0800,0.273
72.1200,0.279
72.1600,0.277
72.2000,0.298
72.2400,0.310
72.2800,0.288
72.3200,0.265
72.3600,0.263
72.4000,0.273
72.4400,0.286
72.4800,0.268
72.5200,0.274
72.5600,0.260
72.6000,0.275
72.6400,0.252
72.6800,0.269
72.7200,0.246
72.7600,0.261
72.8000,0.231
72.8400,0.251
72.8800,0.264
72.9200,0.246
72.9600,0.234
73.0000,0.251
73.0400,0.254
73.0800,0.256
73.1200,0.219
73.1600,0.240
73.2000,0.234
73.2400,0.217
73.2800,0.254
73.3200,0.241
73.3600,0.246
73.4000,0.215
73.4400,0.240
73.4800,0.234
73.5200,0.225
73.5600,0.262
73.6000,0.230
73.6400,0.246
73.6800,0.222
73.7200,0.233
73.7600,0.225
73.8000,0.244
73.8400,0.209
73.8800,0.239
73.9200,0.215
73.9600,0.233
74.0000,0.230
74.0400,0.220
74.0800,0.219
74.1200,0.233
74.1600,0.199
74.2000,0.217
74.2400,0.209
74.2800,0.211
74.3200,0.216
74.3600,0.215
74.4000,0.220
74.4400,0.227
74.4800,0.200
74.5200,0.199
74.5600,0.219
74.6000,0.193
74.6400,0.190
74.6800,0.228
74.7200,0.226
74.7600,0.231
74.8000,0.212
74.8400,0.195
74.8800,0.204
74.9200,0.198
74.9600,0.209
75.0000,0.198
75.0400,0.211
75.0800,0.207
75.1200,0.202
75.1600,0.211
75.2000,0.222
75.2400,0.193
75.2800,0.191
75.3200,0.194
75.3600,0.187
75.4000,0.202
75.4400,0.190
75.4800,0.204
75.5200,0.210
75.5600,0.210
75.6000,0.202
75.6400,0.187
75.6800,0.198
75.7200,0.204
75.7600,0.213
75.8000,0.215
75.8400,0.213
75.8800,0.183
75.9200,0.205
75.9600,0.191
76.0000,0.200
76.0400,0.204
76.0800,0.220
76.1200,0.195
76.1600,0.191
76.2000,0.217
76.2400,0.202
76.2800,0.198
76.3200,0.209
76.3600,0.191
76.4000,0.198
76.4400,0.200
76.4800,0.206
76.5200,0.193
76.5600,0.196
76.6000,0.211
76.6400,0.218
76.6800,0.224
76.7200,0.197
76.7600,0.203
76.8000,0.212
76.8400,0.200
76.8800,0.210
76.9200,0.232
76.9600,0.233
77.0000,0.245
77.0400,0.268
77.0800,0.236
77.1200,0.307
77.1600,0.326
77.2000,0.333
77.2400,0.371
77.2800,0.477
77.3200,0.670
77.3600,1.017
77.4000,1.532
77.4400,2.069
77.4800,2.223
77.5200,1.883
77.5600,1.508
77.6000,1.367
77.6400,1.346
77.6800,1.451
77.7200,1.350
77.7600,1.053
77.8000,0.747
77.8400,0.581
77.8800,0.440
77.9200,0.379
77.9600,0.319
78.0000,0.299
78.0400,0.279
78.0800,0.251
78.1200,0.231
78.1600,0.229
78.2000,0.219
78.2400,0.228
78.2800,0.224
78.3200,0.222
78.3600,0.207
78.4000,0.200
78.4400,0.209
78.4800,0.183
78.5200,0.206
78.5600,0.223
78.6000,0.192
78.6400,0.194
78.6800,0.199
78.7200,0.187
78.7600,0.210
78.8000,0.197
78.8400,0.171
78.8800,0.203
78.9200,0.184
78.9600,0.174
79.0000,0.162
79.0400,0.184
79.0800,0.189
79.1200,0.180
79.1600,0.191
79.2000,0.188
79.2400,0.187
79.2800,0.209
79.3200,0.196
79.3600,0.185
79.4000,0.179
79.4400,0.188
79.4800,0.190
79.5200,0.173
79.5600,0.190
79.6000,0.188
79.6400,0.173
79.6800,0.167
79.7200,0.163
79.7600,0.164
79.8000,0.174
79.8400,0.200
79.8800,0.193
79.9200,0.166
79.9600,0.164
80.0000,0.177
