theta,intensity
5.0000,2.465
5.0400,2.670
5.0800,2.469
5.1200,2.492
5.1600,2.478
5.2000,2.418
5.2400,2.451
5.2800,2.441
5.3200,2.434
5.3600,2.374
5.4000,2.260
5.4400,2.301
5.4800,2.312
5.5200,2.262
5.5600,2.230
5.6000,2.224
5.6400,2.248
5.6800,2.186
5.7200,2.096
5.7600,2.152
5.8000,2.234
5.8400,2.162
5.8800,2.062
5.9200,2.043
5.9600,2.028
6.0000,1.952
6.0400,2.001
6.0800,1.917
6.1200,1.960
6.1600,1.898
6.2000,1.882
6.2400,1.833
6.2800,1.903
6.3200,1.816
6.3600,1.817
6.4000,1.775
6.4400,1.763
6.4800,1.773
6.5200,1.807
6.5600,1.716
6.6000,1.726
6.6400,1.631
6.6800,1.654
6.7200,1.621
6.7600,1.655
6.8000,1.608
6.8400,1.647
6.8800,1.576
6.9200,1.568
6.9600,1.533
7.0000,1.533
7.0400,1.567
7.0800,1.565
7.1200,1.542
7.1600,1.546
7.2000,1.487
7.2400,1.540
7.2800,1.477
7.3200,1.475
7.3600,1.480
7.4000,1.471
7.4400,1.506
7.4800,1.546
7.5200,1.534
7.5600,1.503
7.6000,1.531
7.6400,1.514
7.6800,1.464
7.7200,1.510
7.7600,1.486
7.8000,1.561
7.8400,1.504
7.8800,1.513
7.9200,1.514
7.9600,1.476
8.0000,1.429
8.0400,1.484
8.0800,1.519
8.1200,1.473
8.1600,1.504
8.2000,1.469
8.2400,1.468
8.2800,1.438
8.3200,1.471
8.3600,1.457
8.4000,1.479
8.4400,1.460
8.4800,1.459
8.5200,1.467
8.5600,1.468
8.6000,1.508
8.6400,1.484
8.6800,1.455
8.7200,1.481
8.7600,1.460
8.8000,1.468
8.8400,1.469
8.8800,1.486
8.9200,1.449
8.9600,1.429
9.0000,1.461
9.0400,1.464
9.0800,1.428
9.1200,1.461
9.1600,1.406
9.2000,1.397
9.2400,1.436
9.2800,1.505
9.3200,1.423
9.3600,1.457
9.4000,1.460
9.4400,1.464
9.4800,1.438
9.5200,1.420
9.5600,1.440
9.6000,1.444
9.6400,1.344
9.6800,1.433
9.7200,1.444
9.7600,1.444
9.8000,1.446
9.8400,1.414
9.8800,1.437
9.9200,1.433
9.9600,1.383
10.0000,1.407
10.0400,1.426
10.0800,1.405
10.1200,1.375
10.1600,1.395
10.2000,1.365
10.2400,1.364
10.2800,1.383
10.3200,1.436
10.3600,1.410
10.4000,1.390
10.4400,1.427
10.4800,1.413
10.5200,1.360
10.5600,1.440
10.6000,1.431
10.6400,1.450
10.6800,1.383
10.7200,1.405
10.7600,1.424
10.8000,1.402
10.8400,1.414
10.8800,1.377
10.9200,1.352
10.9600,1.387
11.0000,1.396
11.0400,1.446
11.0800,1.400
11.1200,1.411
11.1600,1.355
11.2000,1.360
11.2400,1.407
11.2800,1.432
11.3200,1.406
11.3600,1.393
11.4000,1.366
11.4400,1.398
11.4800,1.355
11.5200,1.389
11.5600,1.381
11.6000,1.399
11.6400,1.366
11.6800,1.387
11.7200,1.366
11.7600,1.376
11.8000,1.441
11.8400,1.409
11.8800,1.369
11.9200,1.394
11.9600,1.346
12.0000,1.379
12.0400,1.357
12.0800,1.370
12.1200,1.345
12.1600,1.313
12.2000,1.345
12.2400,1.347
12.2800,1.381
12.3200,1.343
12.3600,1.355
12.4000,1.311
12.4400,1.352
12.4800,1.367
12.5200,1.354
12.5600,1.356
12.6000,1.378
12.6400,1.368
12.6800,1.365
12.7200,1.347
12.7600,1.236
12.8000,1.292
12.8400,1.314
12.8800,1.366
12.9200,1.282
12.9600,1.303
13.0000,1.297
13.0400,1.283
13.0800,1.350
13.1200,1.279
13.1600,1.340
13.2000,1.296
13.2400,1.306
13.2800,1.293
13.3200,1.323
13.3600,1.301
13.4000,1.324
13.4400,1.326
13.4800,1.331
13.5200,1.289
13.5600,1.296
13.6000,1.318
13.6400,1.299
13.6800,1.295
13.7200,1.313
13.7600,1.275
13.8000,1.296
13.8400,1.321
13.8800,1.308
13.9200,1.287
13.9600,1.301
14.0000,1.257
14.0400,1.298
14.0800,1.363
14.1200,1.306
14.1600,1.307
14.2000,1.296
14.2400,1.275
14.2800,1.314
14.3200,1.312
14.3600,1.287
14.4000,1.270
14.4400,1.287
14.4800,1.334
14.5200,1.280
14.5600,1.305
14.6000,1.308
14.6400,1.292
14.6800,1.273
14.7200,1.319
14.7600,1.354
14.8000,1.264
14.8400,1.294
14.8800,1.316
14.9200,1.283
14.9600,1.237
15.0000,1.296
15.0400,1.296
15.0800,1.261
15.1200,1.318
15.1600,1.239
15.2000,1.268
15.2400,1.289
15.2800,1.279
15.3200,1.282
15.3600,1.260
15.4000,1.308
15.4400,1.290
15.4800,1.311
15.5200,1.279
15.5600,1.263
15.6000,1.278
15.6400,1.260
15.6800,1.198
15.7200,1.290
15.7600,1.243
15.8000,1.266
15.8400,1.308
15.8800,1.295
15.9200,1.261
15.9600,1.261
16.0000,1.311
16.0400,1.280
16.0800,1.246
16.1200,1.286
16.1600,1.226
16.2000,1.212
16.2400,1.277
16.2800,1.259
16.3200,1.239
16.3600,1.293
16.4000,1.246
16.4400,1.222
16.4800,1.259
16.5200,1.242
16.5600,1.284
16.6000,1.252
16.6400,1.266
16.6800,1.277
16.7200,1.254
16.7600,1.279
16.8000,1.289
16.8400,1.297
16.8800,1.290
16.9200,1.280
16.9600,1.275
17.0000,1.213
17.0400,1.234
17.0800,1.257
17.1200,1.230
17.1600,1.226
17.2000,1.264
17.2400,1.231
17.2800,1.293
17.3200,1.305
17.3600,1.258
17.4000,1.279
17.4400,1.275
17.4800,1.261
17.5200,1.194
17.5600,1.229
17.6000,1.267
17.6400,1.291
17.6800,1.248
17.7200,1.276
17.7600,1.244
17.8000,1.253
17.8400,1.238
17.8800,1.254
17.9200,1.271
17.9600,1.252
18.0000,1.265
18.0400,1.297
18.0800,1.255
18.1200,1.289
18.1600,1.249
18.2000,1.304
18.2400,1.219
18.2800,1.277
18.3200,1.265
18.3600,1.312
18.4000,1.259
18.4400,1.270
18.4800,1.295
18.5200,1.253
18.5600,1.238
18.6000,1.260
18.6400,1.231
18.6800,1.269
18.7200,1.241
18.7600,1.239
18.8000,1.318
18.8400,1.309
18.8800,1.283
18.9200,1.285
18.9600,1.255
19.0000,1.283
19.0400,1.269
19.0800,1.264
19.1200,1.282
19.1600,1.270
19.2000,1.299
19.2400,1.268
19.2800,1.257
19.3200,1.292
19.3600,1.299
19.4000,1.259
19.4400,1.340
19.4800,1.225
19.5200,1.306
19.5600,1.230
19.6000,1.249
19.6400,1.265
19.6800,1.291
19.7200,1.243
19.7600,1.252
19.8000,1.268
19.8400,1.237
19.8800,1.227
19.9200,1.293
19.9600,1.245
20.0000,1.262
20.0400,1.288
20.0800,1.214
20.1200,1.226
20.1600,1.303
20.2000,1.235
20.2400,1.257
20.2800,1.302
20.3200,1.236
20.3600,1.246
20.4000,1.260
20.4400,1.245
20.4800,1.272
20.5200,1.230
20.5600,1.218
20.6000,1.291
20.6400,1.234
20.6800,1.261
20.7200,1.208
20.7600,1.233
20.8000,1.218
20.8400,1.254
20.8800,1.231
20.9200,1.238
20.9600,1.268
21.0000,1.245
21.0400,1.225
21.0800,1.285
21.1200,1.240
21.1600,1.200
21.2000,1.242
21.2400,1.209
21.2800,1.221
21.3200,1.230
21.3600,1.233
21.4000,1.225
21.4400,1.235
21.4800,1.242
21.5200,1.196
21.5600,1.143
21.6000,1.238
21.6400,1.187
21.6800,1.202
21.7200,1.189
21.7600,1.185
21.8000,1.222
21.8400,1.207
21.8800,1.215
21.9200,1.239
21.9600,1.199
22.0000,1.179
22.0400,1.190
22.0800,1.223
22.1200,1.181
22.1600,1.214
22.2000,1.168
22.2400,1.171
22.2800,1.185
22.3200,1.173
22.3600,1.189
22.4000,1.205
22.4400,1.185
22.4800,1.132
22.5200,1.155
22.5600,1.175
22.6000,1.151
22.6400,1.138
22.6800,1.176
22.7200,1.151
22.7600,1.124
22.8000,1.129
22.8400,1.133
22.8800,1.140
22.9200,1.128
22.9600,1.126
23.0000,1.118
23.0400,1.105
23.0800,1.102
23.1200,1.063
23.1600,1.051
23.2000,1.090
23.2400,1.106
23.2800,1.088
23.3200,1.044
23.3600,1.099
23.4000,1.087
23.4400,1.105
23.4800,1.102
23.5200,1.050
23.5600,1.073
23.6000,1.096
23.6400,1.032
23.6800,1.098
23.7200,1.116
23.7600,1.052
23.8000,1.062
23.8400,1.051
23.8800,1.087
23.9200,1.024
23.9600,1.038
24.0000,1.085
24.0400,1.071
24.0800,1.050
24.1200,1.049
24.1600,1.028
24.2000,1.078
24.2400,1.013
24.2800,0.999
24.3200,1.051
24.3600,1.065
24.4000,1.022
24.4400,0.981
24.4800,0.990
24.5200,0.960
24.5600,1.039
24.6000,0.971
24.6400,1.023
24.6800,0.988
24.7200,1.011
24.7600,0.971
24.8000,0.987
24.8400,0.974
24.8800,1.007
24.9200,0.952
24.9600,0.945
25.0000,0.950
25.0400,0.993
25.0800,1.016
25.1200,0.959
25.1600,0.966
25.2000,0.970
25.2400,0.959
25.2800,0.940
25.3200,0.951
25.3600,0.935
25.4000,0.908
25.4400,0.950
25.4800,0.971
25.5200,0.955
25.5600,0.909
25.6000,0.927
25.6400,0.917
25.6800,0.904
25.7200,0.940
25.7600,0.936
25.8000,0.903
25.8400,0.907
25.8800,0.893
25.9200,0.891
25.9600,0.894
26.0000,0.903
26.0400,0.906
26.0800,0.903
26.1200,0.869
26.1600,0.896
26.2000,0.904
26.2400,0.849
26.2800,0.936
26.3200,0.890
26.3600,0.857
26.4000,0.879
26.4400,0.904
26.4800,0.847
26.5200,0.855
26.5600,0.912
26.6000,0.881
26.6400,0.879
26.6800,0.869
26.7200,0.870
26.7600,0.854
26.8000,0.866
26.8400,0.853
26.8800,0.866
26.9200,0.818
26.9600,0.837
27.0000,0.869
27.0400,0.859
27.0800,0.784
27.1200,0.799
27.1600,0.834
27.2000,0.863
27.2400,0.814
27.2800,0.800
27.3200,0.816
27.3600,0.777
27.4000,0.803
27.4400,0.777
27.4800,0.799
27.5200,0.801
27.5600,0.787
27.6000,0.805
27.6400,0.840
27.6800,0.774
27.7200,0.812
27.7600,0.747
27.8000,0.768
27.8400,0.740
27.8800,0.809
27.9200,0.795
27.9600,0.753
28.0000,0.780
28.0400,0.762
28.0800,0.766
28.1200,0.817
28.1600,0.787
28.2000,0.780
28.2400,0.752
28.2800,0.776
28.3200,0.758
28.3600,0.767
28.4000,0.743
28.4400,0.787
28.4800,0.738
28.5200,0.789
28.5600,0.738
28.6000,0.770
28.6400,0.745
28.6800,0.747
28.7200,0.757
28.7600,0.719
28.8000,0.723
28.8400,0.699
28.8800,0.750
28.9200,0.745
28.9600,0.754
29.0000,0.673
29.0400,0.764
29.0800,0.728
29.1200,0.750
29.1600,0.710
29.2000,0.732
29.2400,0.737
29.2800,0.733
29.3200,0.689
29.3600,0.744
29.4000,0.745
29.4400,0.713
29.4800,0.729
29.5200,0.691
29.5600,0.722
29.6000,0.724
29.6400,0.680
29.6800,0.694
29.7200,0.719
29.7600,0.718
29.8000,0.701
29.8400,0.685
29.8800,0.713
29.9200,0.695
29.9600,0.733
30.0000,0.718
30.0400,0.689
30.0800,0.690
30.1200,0.692
30.1600,0.709
30.2000,0.698
30.2400,0.718
30.2800,0.664
30.3200,0.669
30.3600,0.690
30.4000,0.689
30.4400,0.687
30.4800,0.686
30.5200,0.642
30.5600,0.684
30.6000,0.690
30.6400,0.657
30.6800,0.694
30.7200,0.669
30.7600,0.668
30.8000,0.661
30.8400,0.680
30.8800,0.664
30.9200,0.646
30.9600,0.682
31.0000,0.647
31.0400,0.646
31.0800,0.649
31.1200,0.634
31.1600,0.642
31.2000,0.662
31.2400,0.619
31.2800,0.651
31.3200,0.620
31.3600,0.611
31.4000,0.656
31.4400,0.631
31.4800,0.642
31.5200,0.647
31.5600,0.629
31.6000,0.617
31.6400,0.628
31.6800,0.655
31.7200,0.639
31.7600,0.609
31.8000,0.598
31.8400,0.595
31.8800,0.605
31.9200,0.609
31.9600,0.639
32.0000,0.642
32.0400,0.609
32.0800,0.620
32.1200,0.627
32.1600,0.611
32.2000,0.621
32.2400,0.640
32.2800,0.629
32.3200,0.623
32.3600,0.596
32.4000,0.595
32.4400,0.591
32.4800,0.612
32.5200,0.601
32.5600,0.603
32.6000,0.622
32.6400,0.614
32.6800,0.576
32.7200,0.615
32.7600,0.585
32.8000,0.600
32.8400,0.564
32.8800,0.600
32.9200,0.546
32.9600,0.583
33.0000,0.607
33.0400,0.594
33.0800,0.573
33.1200,0.585
33.1600,0.588
33.2000,0.580
33.2400,0.588
33.2800,0.597
33.3200,0.593
33.3600,0.590
33.4000,0.610
33.4400,0.567
33.4800,0.594
33.5200,0.569
33.5600,0.569
33.6000,0.553
33.6400,0.534
33.6800,0.538
33.7200,0.555
33.7600,0.548
33.8000,0.549
33.8400,0.531
33.8800,0.567
33.9200,0.575
33.9600,0.533
34.0000,0.546
34.0400,0.572
34.0800,0.575
34.1200,0.553
34.1600,0.546
34.2000,0.535
34.2400,0.554
34.2800,0.545
34.3200,0.556
34.3600,0.562
34.4000,0.542
34.4400,0.560
34.4800,0.546
34.5200,0.543
34.5600,0.563
34.6000,0.543
34.6400,0.507
34.6800,0.535
34.7200,0.556
34.7600,0.526
34.8000,0.540
34.8400,0.527
34.8800,0.533
34.9200,0.548
34.9600,0.533
35.0000,0.528
35.0400,0.554
35.0800,0.538
35.1200,0.517
35.1600,0.545
35.2000,0.536
35.2400,0.534
35.2800,0.526
35.3200,0.548
35.3600,0.549
35.4000,0.536
35.4400,0.498
35.4800,0.519
35.5200,0.519
35.5600,0.522
35.6000,0.521
35.6400,0.505
35.6800,0.526
35.7200,0.528
35.7600,0.481
35.8000,0.508
35.8400,0.542
35.8800,0.503
35.9200,0.535
35.9600,0.517
36.0000,0.512
36.0400,0.499
36.0800,0.487
36.1200,0.484
36.1600,0.510
36.2000,0.524
36.2400,0.527
36.2800,0.509
36.3200,0.499
36.3600,0.538
36.4000,0.495
36.4400,0.516
36.4800,0.498
36.5200,0.525
36.5600,0.520
36.6000,0.532
36.6400,0.491
36.6800,0.509
36.7200,0.474
36.7600,0.490
36.8000,0.545
36.8400,0.494
36.8800,0.498
36.9200,0.483
36.9600,0.501
37.0000,0.496
37.0400,0.507
37.0800,0.501
37.1200,0.540
37.1600,0.511
37.2000,0.521
37.2400,0.512
37.2800,0.525
37.3200,0.525
37.3600,0.526
37.4000,0.527
37.4400,0.517
37.4800,0.516
37.5200,0.539
37.5600,0.537
37.6000,0.529
37.6400,0.539
37.6800,0.594
37.7200,0.598
37.7600,0.624
37.8000,0.667
37.8400,0.740
37.8800,0.730
37.9200,0.905
37.9600,1.113
38.0000,1.454
38.0400,2.227
38.0800,3.459
38.1200,4.305
38.1600,4.325
38.2000,3.796
38.2400,3.168
38.2800,2.348
38.3200,1.563
38.3600,1.172
38.4000,0.946
38.4400,0.796
38.4800,0.711
38.5200,0.646
38.5600,0.596
38.6000,0.573
38.6400,0.574
38.6800,0.574
38.7200,0.527
38.7600,0.472
38.8000,0.494
38.8400,0.508
38.8800,0.457
38.9200,0.467
38.9600,0.448
39.0000,0.443
39.0400,0.474
39.0800,0.468
39.1200,0.470
39.1600,0.461
39.2000,0.466
39.2400,0.467
39.2800,0.457
39.3200,0.436
39.3600,0.459
39.4000,0.462
39.4400,0.446
39.4800,0.457
39.5200,0.458
39.5600,0.467
39.6000,0.453
39.6400,0.433
39.6800,0.416
39.7200,0.421
39.7600,0.416
39.8000,0.439
39.8400,0.458
39.8800,0.432
39.9200,0.431
39.9600,0.443
40.0000,0.420
40.0400,0.402
40.0800,0.413
40.1200,0.420
40.1600,0.429
40.2000,0.404
40.2400,0.453
40.2800,0.418
40.3200,0.399
40.3600,0.393
40.4000,0.428
40.4400,0.423
40.4800,0.420
40.5200,0.408
40.5600,0.400
40.6000,0.424
40.6400,0.404
40.6800,0.406
40.7200,0.419
40.7600,0.408
40.8000,0.401
40.8400,0.421
40.8800,0.402
40.9200,0.386
40.9600,0.418
41.0000,0.435
41.0400,0.420
41.0800,0.421
41.1200,0.403
41.1600,0.390
41.2000,0.389
41.2400,0.404
41.2800,0.383
41.3200,0.416
41.3600,0.410
41.4000,0.367
41.4400,0.399
41.4800,0.385
41.5200,0.391
41.5600,0.403
41.6000,0.426
41.6400,0.416
41.6800,0.380
41.7200,0.389
41.7600,0.388
41.8000,0.384
41.8400,0.381
41.8800,0.395
41.9200,0.405
41.9600,0.402
42.0000,0.374
42.0400,0.382
42.0800,0.382
42.1200,0.391
42.1600,0.402
42.2000,0.412
42.2400,0.398
42.2800,0.402
42.3200,0.380
42.3600,0.385
42.4000,0.405
42.4400,0.413
42.4800,0.370
42.5200,0.377
42.5600,0.409
42.6000,0.382
42.6400,0.373
42.6800,0.410
42.7200,0.397
42.7600,0.386
42.8000,0.385
42.8400,0.381
42.8800,0.402
42.9200,0.399
42.9600,0.372
43.0000,0.403
43.0400,0.395
43.0800,0.402
43.1200,0.393
43.1600,0.410
43.2000,0.436
43.2400,0.429
43.2800,0.461
43.3200,0.444
43.3600,0.483
43.4000,0.449
43.4400,0.406
43.4800,0.409
43.5200,0.427
43.5600,0.405
43.6000,0.408
43.6400,0.441
43.6800,0.410
43.7200,0.424
43.7600,0.406
43.8000,0.398
43.8400,0.459
43.8800,0.426
43.9200,0.475
43.9600,0.469
44.0000,0.552
44.0400,0.532
44.0800,0.616
44.1200,0.697
44.1600,0.797
44.2000,0.959
44.2400,1.183
44.2800,1.449
44.3200,1.527
44.3600,1.543
44.4000,1.417
44.4400,1.258
44.4800,1.044
44.5200,0.884
44.5600,0.751
44.6000,0.645
44.6400,0.544
44.6800,0.499
44.7200,0.474
44.7600,0.457
44.8000,0.437
44.8400,0.431
44.8800,0.402
44.9200,0.415
44.9600,0.364
45.0000,0.366
45.0400,0.367
45.0800,0.346
45.1200,0.366
45.1600,0.351
45.2000,0.335
45.2400,0.381
45.2800,0.367
45.3200,0.371
45.3600,0.344
45.4000,0.334
45.4400,0.371
45.4800,0.347
45.5200,0.335
45.5600,0.336
45.6000,0.343
45.6400,0.356
45.6800,0.337
45.7200,0.333
45.7600,0.318
45.8000,0.339
45.8400,0.331
45.8800,0.327
45.9200,0.325
45.9600,0.348
46.0000,0.334
46.0400,0.318
46.0800,0.335
46.1200,0.315
46.1600,0.324
46.2000,0.326
46.2400,0.349
46.2800,0.337
46.3200,0.336
46.3600,0.309
46.4000,0.322
46.4400,0.320
46.4800,0.323
46.5200,0.311
46.5600,0.335
46.6000,0.322
46.6400,0.318
46.6800,0.325
46.7200,0.354
46.7600,0.349
46.8000,0.299
46.8400,0.302
46.8800,0.323
46.9200,0.322
46.9600,0.317
47.0000,0.318
47.0400,0.321
47.0800,0.310
47.1200,0.313
47.1600,0.299
47.2000,0.312
47.2400,0.300
47.2800,0.293
47.3200,0.302
47.3600,0.304
47.4000,0.332
47.4400,0.305
47.4800,0.315
47.5200,0.301
47.5600,0.319
47.6000,0.303
47.6400,0.300
47.6800,0.300
47.7200,0.286
47.7600,0.312
47.8000,0.305
47.8400,0.306
47.8800,0.310
47.9200,0.321
47.9600,0.290
48.0000,0.291
48.0400,0.286
48.0800,0.299
48.1200,0.287
48.1600,0.266
48.2000,0.292
48.2400,0.278
48.2800,0.277
48.3200,0.291
48.3600,0.318
48.4000,0.306
48.4400,0.286
48.4800,0.284
48.5200,0.300
48.5600,0.276
48.6000,0.280
48.6400,0.297
48.6800,0.308
48.7200,0.268
48.7600,0.293
48.8000,0.302
48.8400,0.300
48.8800,0.312
48.9200,0.301
48.9600,0.261
49.0000,0.273
49.0400,0.258
49.0800,0.269
49.1200,0.274
49.1600,0.281
49.2000,0.297
49.2400,0.297
49.2800,0.271
49.3200,0.249
49.3600,0.293
49.4000,0.284
49.4400,0.257
49.4800,0.305
49.5200,0.285
49.5600,0.275
49.6000,0.297
49.6400,0.275
49.6800,0.291
49.7200,0.280
49.7600,0.278
49.8000,0.279
49.8400,0.290
49.8800,0.273
49.9200,0.270
49.9600,0.268
50.0000,0.259
50.0400,0.263
50.0800,0.275
50.1200,0.281
50.1600,0.280
50.2000,0.292
50.2400,0.285
50.2800,0.264
50.3200,0.293
50.3600,0.301
50.4000,0.286
50.4400,0.296
50.4800,0.295
50.5200,0.273
50.5600,0.274
50.6000,0.269
50.6400,0.282
50.6800,0.274
50.7200,0.263
50.7600,0.249
50.8000,0.262
50.8400,0.274
50.8800,0.272
50.9200,0.272
50.9600,0.256
51.0000,0.269
51.0400,0.279
51.0800,0.256
51.1200,0.281
51.1600,0.263
51.2000,0.259
51.2400,0.257
51.2800,0.267
51.3200,0.258
51.3600,0.269
51.4000,0.249
51.4400,0.270
51.4800,0.260
51.5200,0.260
51.5600,0.272
51.6000,0.277
51.6400,0.272
51.6800,0.256
51.7200,0.269
51.7600,0.263
51.8000,0.257
51.8400,0.239
51.8800,0.240
51.9200,0.250
51.9600,0.269
52.0000,0.261
52.0400,0.250
52.0800,0.253
52.1200,0.240
52.1600,0.248
52.2000,0.256
52.2400,0.264
52.2800,0.253
52.3200,0.238
52.3600,0.256
52.4000,0.254
52.4400,0.256
52.4800,0.254
52.5200,0.262
52.5600,0.255
52.6000,0.245
52.6400,0.228
52.6800,0.255
52.7200,0.238
52.7600,0.260
52.8000,0.236
52.8400,0.228
52.8800,0.256
52.9200,0.239
52.9600,0.234
53.0000,0.263
53.0400,0.233
53.0800,0.237
53.1200,0.248
53.1600,0.255
53.2000,0.249
53.2400,0.217
53.2800,0.250
53.3200,0.250
53.3600,0.239
53.4000,0.241
53.4400,0.232
53.4800,0.247
53.5200,0.241
53.5600,0.240
53.6000,0.234
53.6400,0.252
53.6800,0.243
53.7200,0.226
53.7600,0.224
53.8000,0.234
53.8400,0.236
53.8800,0.250
53.9200,0.256
53.9600,0.234
54.0000,0.222
54.0400,0.246
54.0800,0.232
54.1200,0.222
54.1600,0.267
54.2000,0.242
54.2400,0.229
54.2800,0.256
54.3200,0.245
54.3600,0.225
54.4000,0.250
54.4400,0.239
54.4800,0.268
54.5200,0.241
54.5600,0.215
54.6000,0.235
54.6400,0.214
54.6800,0.238
54.7200,0.246
54.7600,0.240
54.8000,0.233
54.8400,0.235
54.8800,0.237
54.9200,0.233
54.9600,0.229
55.0000,0.250
55.0400,0.236
55.0800,0.234
55.1200,0.238
55.1600,0.226
55.2000,0.238
55.2400,0.240
55.2800,0.229
55.3200,0.249
55.3600,0.239
55.4000,0.227
55.4400,0.238
55.4800,0.224
55.5200,0.219
55.5600,0.224
55.6000,0.249
55.6400,0.234
55.6800,0.237
55.7200,0.219
55.7600,0.212
55.8000,0.210
55.8400,0.235
55.8800,0.224
55.9200,0.223
55.9600,0.223
56.0000,0.215
56.0400,0.221
56.0800,0.230
56.1200,0.242
56.1600,0.245
56.2000,0.224
56.2400,0.238
56.2800,0.223
56.3200,0.231
56.3600,0.232
56.4000,0.261
56.4400,0.221
56.4800,0.215
56.5200,0.219
56.5600,0.227
56.6000,0.239
56.6400,0.220
56.6800,0.239
56.7200,0.235
56.7600,0.229
56.8000,0.239
56.8400,0.238
56.8800,0.226
56.9200,0.220
56.9600,0.217
57.0000,0.231
57.0400,0.215
57.0800,0.239
57.1200,0.232
57.1600,0.226
57.2000,0.236
57.2400,0.228
57.2800,0.219
57.3200,0.226
57.3600,0.220
57.4000,0.225
57.4400,0.204
57.4800,0.227
57.5200,0.206
57.5600,0.220
57.6000,0.226
57.6400,0.230
57.6800,0.222
57.7200,0.219
57.7600,0.238
57.8000,0.216
57.8400,0.216
57.8800,0.215
57.9200,0.220
57.9600,0.214
58.0000,0.255
58.0400,0.228
58.0800,0.231
58.1200,0.215
58.1600,0.207
58.2000,0.220
58.2400,0.221
58.2800,0.216
58.3200,0.209
58.3600,0.214
58.4000,0.207
58.4400,0.223
58.4800,0.202
58.5200,0.207
58.5600,0.224
58.6000,0.211
58.6400,0.212
58.6800,0.218
58.7200,0.227
58.7600,0.206
58.8000,0.235
58.8400,0.233
58.8800,0.207
58.9200,0.229
58.9600,0.212
59.0000,0.243
59.0400,0.215
59.0800,0.201
59.1200,0.211
59.1600,0.206
59.2000,0.232
59.2400,0.212
59.2800,0.209
59.3200,0.219
59.3600,0.225
59.4000,0.189
59.4400,0.223
59.4800,0.225
59.5200,0.216
59.5600,0.225
59.6000,0.212
59.6400,0.208
59.6800,0.234
59.7200,0.235
59.7600,0.216
59.8000,0.226
59.8400,0.225
59.8800,0.204
59.9200,0.233
59.9600,0.226
60.0000,0.221
60.0400,0.212
60.0800,0.208
60.1200,0.203
60.1600,0.205
60.2000,0.232
60.2400,0.220
60.2800,0.201
60.3200,0.200
60.3600,0.230
60.4000,0.212
60.4400,0.216
60.4800,0.204
60.5200,0.214
60.5600,0.200
60.6000,0.229
60.6400,0.213
60.6800,0.230
60.7200,0.222
60.7600,0.232
60.8000,0.209
60.8400,0.220
60.8800,0.211
60.9200,0.218
60.9600,0.214
61.0000,0.218
61.0400,0.228
61.0800,0.210
61.1200,0.212
61.1600,0.219
61.2000,0.216
61.2400,0.218
61.2800,0.211
61.3200,0.213
61.3600,0.223
61.4000,0.219
61.4400,0.226
61.4800,0.213
61.5200,0.237
61.5600,0.217
61.6000,0.201
61.6400,0.230
61.6800,0.215
61.7200,0.230
61.7600,0.242
61.8000,0.225
61.8400,0.200
61.8800,0.234
61.9200,0.216
61.9600,0.238
62.0000,0.243
62.0400,0.229
62.0800,0.222
62.1200,0.237
62.1600,0.213
62.2000,0.224
62.2400,0.232
62.2800,0.229
62.3200,0.229
62.3600,0.219
62.4000,0.232
62.4400,0.227
62.4800,0.224
62.5200,0.222
62.5600,0.213
62.6000,0.223
62.6400,0.257
62.6800,0.246
62.7200,0.239
62.7600,0.230
62.8000,0.220
62.8400,0.233
62.8800,0.237
62.9200,0.223
62.9600,0.229
63.0000,0.212
63.0400,0.225
63.0800,0.237
63.1200,0.250
63.1600,0.242
63.2000,0.224
63.2400,0.227
63.2800,0.231
63.3200,0.261
63.3600,0.253
63.4000,0.250
63.4400,0.250
63.4800,0.260
63.5200,0.245
63.5600,0.248
63.6000,0.250
63.6400,0.241
63.6800,0.240
63.7200,0.279
63.7600,0.261
63.8000,0.267
63.8400,0.256
63.8800,0.255
63.9200,0.287
63.9600,0.285
64.0000,0.285
64.0400,0.279
64.0800,0.303
64.1200,0.298
64.1600,0.317
64.2000,0.339
64.2400,0.362
64.2800,0.389
64.3200,0.438
64.3600,0.485
64.4000,0.605
64.4400,0.721
64.4800,0.798
64.5200,0.768
64.5600,0.704
64.6000,0.708
64.6400,0.623
64.6800,0.594
64.7200,0.578
64.7600,0.509
64.8000,0.434
64.8400,0.370
64.8800,0.344
64.9200,0.312
64.9600,0.354
65.0000,0.320
65.0400,0.312
65.0800,0.311
65.1200,0.315
65.1600,0.303
65.2000,0.306
65.2400,0.307
65.2800,0.308
65.3200,0.311
65.3600,0.297
65.4000,0.302
65.4400,0.322
65.4800,0.311
65.5200,0.313
65.5600,0.309
65.6000,0.316
65.6400,0.320
65.6800,0.323
65.7200,0.340
65.7600,0.324
65.8000,0.311
65.8400,0.341
65.8800,0.328
65.9200,0.328
65.9600,0.346
66.0000,0.342
66.0400,0.333
66.0800,0.325
66.1200,0.324
66.1600,0.343
66.2000,0.347
66.2400,0.346
66.2800,0.351
66.3200,0.359
66.3600,0.347
66.4000,0.367
66.4400,0.370
66.4800,0.373
66.5200,0.383
66.5600,0.405
66.6000,0.394
66.6400,0.392
66.6800,0.389
66.7200,0.393
66.7600,0.391
66.8000,0.434
66.8400,0.404
66.8800,0.413
66.9200,0.417
66.9600,0.415
67.0000,0.446
67.0400,0.437
67.0800,0.452
67.1200,0.483
67.1600,0.463
67.2000,0.455
67.2400,0.443
67.2800,0.492
67.3200,0.489
67.3600,0.509
67.4000,0.482
67.4400,0.514
67.4800,0.534
67.5200,0.516
67.5600,0.564
67.6000,0.521
67.6400,0.542
67.6800,0.579
67.7200,0.565
67.7600,0.580
67.8000,0.580
67.8400,0.627
67.8800,0.609
67.9200,0.647
67.9600,0.654
68.0000,0.612
68.0400,0.636
68.0800,0.651
68.1200,0.649
68.1600,0.710
68.2000,0.693
68.2400,0.726
68.2800,0.723
68.3200,0.813
68.3600,0.817
68.4000,0.834
68.4400,0.846
68.4800,0.937
68.5200,0.942
68.5600,0.943
68.6000,1.051
68.6400,1.198
68.6800,1.317
68.7200,1.660
68.7600,2.082
68.8000,2.227
68.8400,2.446
68.8800,2.569
68.9200,3.030
68.9600,3.963
69.0000,7.329
69.0400,24.476
69.0800,74.685
69.1200,112.573
69.1600,105.792
69.2000,72.178
69.2400,33.184
69.2800,43.899
69.3200,60.213
69.3600,56.260
69.4000,36.015
69.4400,11.665
69.4800,4.500
69.5200,3.046
69.5600,2.337
69.6000,1.978
69.6400,1.676
69.6800,1.490
69.7200,1.353
69.7600,1.264
69.8000,1.189
69.8400,1.115
69.8800,1.094
69.9200,1.011
69.9600,1.004
70.0000,0.926
70.0400,0.906
70.0800,0.862
70.1200,0.861
70.1600,0.801
70.2000,0.822
70.2400,0.802
70.2800,0.781
70.3200,0.721
70.3600,0.730
70.4000,0.721
70.4400,0.709
70.4800,0.666
70.5200,0.677
70.5600,0.619
70.6000,0.622
70.6400,0.605
70.6800,0.594
70.7200,0.631
70.7600,0.549
70.8000,0.581
70.8400,0.569
70.8800,0.514
70.9200,0.504
70.9600,0.507
71.0000,0.503
71.0400,0.513
71.0800,0.481
71.1200,0.461
71.1600,0.456
71.2000,0.444
71.2400,0.471
71.2800,0.431
71.3200,0.455
71.3600,0.436
71.4000,0.417
71.4400,0.428
71.4800,0.427
71.5200,0.407
71.5600,0.391
71.6000,0.400
71.6400,0.396
71.6800,0.403
71.7200,0.392
71.7600,0.368
71.8000,0.350
71.8400,0.366
71.8800,0.358
71.9200,0.346
71.9600,0.362
72.0000,0.338
72.0400,0.357
72.0800,0.340
72.1200,0.327
72.1600,0.327
72.2000,0.332
72.2400,0.329
72.2800,0.329
72.3200,0.323
72.3600,0.321
72.4000,0.305
72.4400,0.306
72.4800,0.307
72.5200,0.282
72.5600,0.282
72.6000,0.289
72.6400,0.286
72.6800,0.292
72.7200,0.287
72.7600,0.284
72.8000,0.272
72.8400,0.295
72.8800,0.275
72.9200,0.268
72.9600,0.266
73.0000,0.262
73.0400,0.238
73.0800,0.252
73.1200,0.246
73.1600,0.249
73.2000,0.258
73.2400,0.247
73.2800,0.255
73.3200,0.279
73.3600,0.268
73.4000,0.248
73.4400,0.254
73.4800,0.253
73.5200,0.244
73.5600,0.259
73.6000,0.237
73.6400,0.234
73.6800,0.238
73.7200,0.242
73.7600,0.241
73.8000,0.246
73.8400,0.246
73.8800,0.229
73.9200,0.238
73.9600,0.215
74.0000,0.223
74.0400,0.233
74.0800,0.204
74.1200,0.238
74.1600,0.227
74.2000,0.223
74.2400,0.252
74.2800,0.219
74.3200,0.223
74.3600,0.219
74.4000,0.224
74.4400,0.223
74.4800,0.209
74.5200,0.210
74.5600,0.231
74.6000,0.227
74.6400,0.222
74.6800,0.219
74.7200,0.240
74.7600,0.220
74.8000,0.195
74.8400,0.232
74.8800,0.205
74.9200,0.208
74.9600,0.218
75.0000,0.211
75.0400,0.200
75.0800,0.214
75.1200,0.208
75.1600,0.203
75.2000,0.212
75.2400,0.205
75.2800,0.196
75.3200,0.199
75.3600,0.201
75.4000,0.201
75.4400,0.196
75.4800,0.190
75.5200,0.201
75.5600,0.194
75.6000,0.186
75.6400,0.179
75.6800,0.199
75.7200,0.184
75.7600,0.189
75.8000,0.200
75.8400,0.193
75.8800,0.182
75.9200,0.181
75.9600,0.193
76.0000,0.199
76.0400,0.183
76.0800,0.192
76.1200,0.188
76.1600,0.197
76.2000,0.204
76.2400,0.192
76.2800,0.195
76.3200,0.201
76.3600,0.199
76.4000,0.205
76.4400,0.194
76.4800,0.186
76.5200,0.201
76.5600,0.197
76.6000,0.202
76.6400,0.179
76.6800,0.203
76.7200,0.184
76.7600,0.184
76.8000,0.213
76.8400,0.207
76.8800,0.207
76.9200,0.212
76.9600,0.201
77.0000,0.225
77.0400,0.235
77.0800,0.232
77.1200,0.231
77.1600,0.246
77.2000,0.279
77.2400,0.329
77.2800,0.361
77.3200,0.413
77.3600,0.481
77.4000,0.570
77.4400,0.603
77.4800,0.608
77.5200,0.574
77.5600,0.518
77.6000,0.488
77.6400,0.482
77.6800,0.506
77.7200,0.443
77.7600,0.424
77.8000,0.354
77.8400,0.288
77.8800,0.238
77.9200,0.254
77.9600,0.231
78.0000,0.212
78.0400,0.220
78.0800,0.215
78.1200,0.201
78.1600,0.177
78.2000,0.197
78.2400,0.207
78.2800,0.204
78.3200,0.186
78.3600,0.167
78.4000,0.164
78.4400,0.179
78.4800,0.199
78.5200,0.177
78.5600,0.161
78.6000,0.192
78.6400,0.154
78.6800,0.178
78.7200,0.174
78.7600,0.175
78.8000,0.176
78.8400,0.171
78.8800,0.145
78.9200,0.184
78.9600,0.155
79.0000,0.168
79.0400,0.153
79.0800,0.162
79.1200,0.168
79.1600,0.153
79.2000,0.166
79.2400,0.148
79.2800,0.175
79.3200,0.164
79.3600,0.169
79.4000,0.162
79.4400,0.155
79.4800,0.173
79.5200,0.153
79.5600,0.165
79.6000,0.172
79.6400,0.166
79.6800,0.162
79.7200,0.162
79.7600,0.160
79.8000,0.180
79.8400,0.159
79.8800,0.171
79.9200,0.158
79.9600,0.164
80.0000,0.167
