theta,intensity
5.0000,1.948
5.0400,2.024
5.0800,2.006
5.1200,1.889
5.1600,2.036
5.2000,1.850
5.2400,2.019
5.2800,1.989
5.3200,1.912
5.3600,1.882
5.4000,1.907
5.4400,2.024
5.4800,1.893
5.5200,1.849
5.5600,1.848
5.6000,1.828
5.6400,1.900
5.6800,1.941
5.7200,1.925
5.7600,1.803
5.8000,1.793
5.8400,1.801
5.8800,1.806
5.9200,1.784
5.9600,1.753
6.0000,1.820
6.0400,1.770
6.0800,1.750
6.1200,1.752
6.1600,1.711
6.2000,1.752
6.2400,1.732
6.2800,1.702
6.3200,1.735
6.3600,1.682
6.4000,1.686
6.4400,1.618
6.4800,1.643
6.5200,1.607
6.5600,1.653
6.6000,1.588
6.6400,1.575
6.6800,1.522
6.7200,1.598
6.7600,1.495
6.8000,1.517
6.8400,1.532
6.8800,1.521
6.9200,1.566
6.9600,1.556
7.0000,1.471
7.0400,1.529
7.0800,1.520
7.1200,1.504
7.1600,1.477
7.2000,1.469
7.2400,1.495
7.2800,1.501
7.3200,1.459
7.3600,1.407
7.4000,1.381
7.4400,1.464
7.4800,1.446
7.5200,1.453
7.5600,1.471
7.6000,1.448
7.6400,1.442
7.6800,1.438
7.7200,1.465
7.7600,1.447
7.8000,1.456
7.8400,1.442
7.8800,1.477
7.9200,1.460
7.9600,1.480
8.0000,1.467
8.0400,1.414
8.0800,1.476
8.1200,1.422
8.1600,1.487
8.2000,1.441
8.2400,1.463
8.2800,1.444
8.3200,1.443
8.3600,1.462
8.4000,1.462
8.4400,1.407
8.4800,1.499
8.5200,1.423
8.5600,1.427
8.6000,1.443
8.6400,1.415
8.6800,1.422
8.7200,1.383
8.7600,1.379
8.8000,1.459
8.8400,1.446
8.8800,1.426
8.9200,1.423
8.9600,1.387
9.0000,1.421
9.0400,1.435
9.0800,1.387
9.1200,1.486
9.1600,1.459
9.2000,1.393
9.2400,1.367
9.2800,1.430
9.3200,1.422
9.3600,1.379
9.4000,1.418
9.4400,1.396
9.4800,1.372
9.5200,1.327
9.5600,1.415
9.6000,1.410
9.6400,1.363
9.6800,1.379
9.7200,1.376
9.7600,1.371
9.8000,1.320
9.8400,1.411
9.8800,1.495
9.9200,1.412
9.9600,1.350
10.0000,1.382
10.0400,1.367
10.0800,1.391
10.1200,1.350
10.1600,1.346
10.2000,1.428
10.2400,1.411
10.2800,1.338
10.3200,1.361
10.3600,1.373
10.4000,1.329
10.4400,1.357
10.4800,1.406
10.5200,1.381
10.5600,1.333
10.6000,1.370
10.6400,1.339
10.6800,1.377
10.7200,1.417
10.7600,1.337
10.8000,1.332
10.8400,1.338
10.8800,1.338
10.9200,1.341
10.9600,1.339
11.0000,1.343
11.0400,1.335
11.0800,1.326
11.1200,1.384
11.1600,1.378
11.2000,1.377
11.2400,1.346
11.2800,1.307
11.3200,1.379
11.3600,1.346
11.4000,1.373
11.4400,1.302
11.4800,1.328
11.5200,1.326
11.5600,1.330
11.6000,1.329
11.6400,1.357
11.6800,1.318
11.7200,1.340
11.7600,1.298
11.8000,1.289
11.8400,1.341
11.8800,1.314
11.9200,1.293
11.9600,1.322
12.0000,1.257
12.0400,1.294
12.0800,1.262
12.1200,1.296
12.1600,1.307
12.2000,1.308
12.2400,1.355
12.2800,1.309
12.3200,1.316
12.3600,1.330
12.4000,1.284
12.4400,1.314
12.4800,1.313
12.5200,1.307
12.5600,1.327
12.6000,1.335
12.6400,1.239
12.6800,1.262
12.7200,1.244
12.7600,1.273
12.8000,1.301
12.8400,1.281
12.8800,1.316
12.9200,1.311
12.9600,1.277
13.0000,1.322
13.0400,1.254
13.0800,1.282
13.1200,1.288
13.1600,1.315
13.2000,1.204
13.2400,1.256
13.2800,1.276
13.3200,1.332
13.3600,1.244
13.4000,1.262
13.4400,1.242
13.4800,1.241
13.5200,1.258
13.5600,1.262
13.6000,1.225
13.6400,1.273
13.6800,1.231
13.7200,1.237
13.7600,1.291
13.8000,1.262
13.8400,1.280
13.8800,1.271
13.9200,1.262
13.9600,1.293
14.0000,1.202
14.0400,1.230
14.0800,1.237
14.1200,1.219
14.1600,1.270
14.2000,1.237
14.2400,1.244
14.2800,1.208
14.3200,1.261
14.3600,1.233
14.4000,1.216
14.4400,1.212
14.4800,1.245
14.5200,1.222
14.5600,1.238
14.6000,1.250
14.6400,1.269
14.6800,1.260
14.7200,1.278
14.7600,1.189
14.8000,1.211
14.8400,1.233
14.8800,1.249
14.9200,1.255
14.9600,1.230
15.0000,1.217
15.0400,1.209
15.0800,1.282
15.1200,1.225
15.1600,1.193
15.2000,1.232
15.2400,1.208
15.2800,1.233
15.3200,1.214
15.3600,1.227
15.4000,1.222
15.4400,1.195
15.4800,1.249
15.5200,1.235
15.5600,1.194
15.6000,1.212
15.6400,1.227
15.6800,1.188
15.7200,1.163
15.7600,1.192
15.8000,1.239
15.8400,1.224
15.8800,1.217
15.9200,1.177
15.9600,1.207
16.0000,1.217
16.0400,1.246
16.0800,1.185
16.1200,1.207
16.1600,1.203
16.2000,1.187
16.2400,1.159
16.2800,1.198
16.3200,1.186
16.3600,1.194
16.4000,1.165
16.4400,1.175
16.4800,1.187
16.5200,1.203
16.5600,1.155
16.6000,1.201
16.6400,1.237
16.6800,1.184
16.7200,1.215
16.7600,1.162
16.8000,1.185
16.8400,1.193
16.8800,1.168
16.9200,1.136
16.9600,1.175
17.0000,1.191
17.0400,1.211
17.0800,1.203
17.1200,1.163
17.1600,1.187
17.2000,1.206
17.2400,1.159
17.2800,1.180
17.3200,1.157
17.3600,1.164
17.4000,1.212
17.4400,1.188
17.4800,1.159
17.5200,1.180
17.5600,1.160
17.6000,1.227
17.6400,1.152
17.6800,1.176
17.7200,1.120
17.7600,1.137
17.8000,1.165
17.8400,1.206
17.8800,1.154
17.9200,1.149
17.9600,1.186
18.0000,1.145
18.0400,1.196
18.0800,1.152
18.1200,1.220
18.1600,1.189
18.2000,1.184
18.2400,1.142
18.2800,1.187
18.3200,1.161
18.3600,1.167
18.4000,1.168
18.4400,1.145
18.4800,1.145
18.5200,1.196
18.5600,1.122
18.6000,1.153
18.6400,1.146
18.6800,1.163
18.7200,1.125
18.7600,1.138
18.8000,1.136
18.8400,1.154
18.8800,1.163
18.9200,1.169
18.9600,1.191
19.0000,1.170
19.0400,1.095
19.0800,1.099
19.1200,1.135
19.1600,1.211
19.2000,1.159
19.2400,1.188
19.2800,1.175
19.3200,1.177
19.3600,1.168
19.4000,1.161
19.4400,1.155
19.4800,1.136
19.5200,1.163
19.5600,1.193
19.6000,1.108
19.6400,1.135
19.6800,1.166
19.7200,1.155
19.7600,1.172
19.8000,1.163
19.8400,1.157
19.8800,1.172
19.9200,1.187
19.9600,1.135
20.0000,1.155
20.0400,1.115
20.0800,1.079
20.1200,1.087
20.1600,1.125
20.2000,1.139
20.2400,1.136
20.2800,1.166
20.3200,1.178
20.3600,1.177
20.4000,1.142
20.4400,1.121
20.4800,1.167
20.5200,1.146
20.5600,1.173
20.6000,1.128
20.6400,1.115
20.6800,1.121
20.7200,1.140
20.7600,1.156
20.8000,1.130
20.8400,1.160
20.8800,1.146
20.9200,1.145
20.9600,1.116
21.0000,1.133
21.0400,1.112
21.0800,1.145
21.1200,1.113
21.1600,1.096
21.2000,1.076
21.2400,1.083
21.2800,1.071
21.3200,1.065
21.3600,1.150
21.4000,1.060
21.4400,1.095
21.4800,1.103
21.5200,1.090
21.5600,1.121
21.6000,1.096
21.6400,1.094
21.6800,1.094
21.7200,1.083
21.7600,1.125
21.8000,1.085
21.8400,1.058
21.8800,1.079
21.9200,1.139
21.9600,1.067
22.0000,1.095
22.0400,1.100
22.0800,1.062
22.1200,1.080
22.1600,1.070
22.2000,1.083
22.2400,1.057
22.2800,1.120
22.3200,1.047
22.3600,1.082
22.4000,1.104
22.4400,1.075
22.4800,1.088
22.5200,1.044
22.5600,1.042
22.6000,1.070
22.6400,1.090
22.6800,1.046
22.7200,1.033
22.7600,1.068
22.8000,1.098
22.8400,1.059
22.8800,1.064
22.9200,1.039
22.9600,1.058
23.0000,1.085
23.0400,1.038
23.0800,1.042
23.1200,1.005
23.1600,1.053
23.2000,1.073
23.2400,1.032
23.2800,1.014
23.3200,0.988
23.3600,1.029
23.4000,0.997
23.4400,1.058
23.4800,1.046
23.5200,1.003
23.5600,1.020
23.6000,1.009
23.6400,1.025
23.6800,1.030
23.7200,0.986
23.7600,1.017
23.8000,1.032
23.8400,0.968
23.8800,1.000
23.9200,1.023
23.9600,0.983
24.0000,0.954
24.0400,0.961
24.0800,1.016
24.1200,1.026
24.1600,1.022
24.2000,1.041
24.2400,0.977
24.2800,0.937
24.3200,0.969
24.3600,0.958
24.4000,0.996
24.4400,0.985
24.4800,1.015
24.5200,0.970
24.5600,0.976
24.6000,0.980
24.6400,1.002
24.6800,0.995
24.7200,0.986
24.7600,1.015
24.8000,0.957
24.8400,0.995
24.8800,0.959
24.9200,0.982
24.9600,0.961
25.0000,0.959
25.0400,0.952
25.0800,0.977
25.1200,0.969
25.1600,0.939
25.2000,0.946
25.2400,0.931
25.2800,0.910
25.3200,0.893
25.3600,0.881
25.4000,0.934
25.4400,0.912
25.4800,0.935
25.5200,0.943
25.5600,0.966
25.6000,0.944
25.6400,0.932
25.6800,0.906
25.7200,0.918
25.7600,0.933
25.8000,0.913
25.8400,0.876
25.8800,0.887
25.9200,0.903
25.9600,0.883
26.0000,0.900
26.0400,0.910
26.0800,0.858
26.1200,0.869
26.1600,0.906
26.2000,0.877
26.2400,0.900
26.2800,0.886
26.3200,0.867
26.3600,0.890
26.4000,0.896
26.4400,0.889
26.4800,0.837
26.5200,0.845
26.5600,0.893
26.6000,0.873
26.6400,0.846
26.6800,0.842
26.7200,0.863
26.7600,0.855
26.8000,0.829
26.8400,0.783
26.8800,0.834
26.9200,0.803
26.9600,0.807
27.0000,0.802
27.0400,0.847
27.0800,0.818
27.1200,0.827
27.1600,0.814
27.2000,0.792
27.2400,0.814
27.2800,0.788
27.3200,0.803
27.3600,0.798
27.4000,0.764
27.4400,0.776
27.4800,0.753
27.5200,0.817
27.5600,0.777
27.6000,0.789
27.6400,0.794
27.6800,0.762
27.7200,0.773
27.7600,0.739
27.8000,0.782
27.8400,0.751
27.8800,0.753
27.9200,0.757
27.9600,0.749
28.0000,0.765
28.0400,0.754
28.0800,0.772
28.1200,0.739
28.1600,0.771
28.2000,0.744
28.2400,0.715
28.2800,0.736
28.3200,0.712
28.3600,0.715
28.4000,0.722
28.4400,0.702
28.4800,0.745
28.5200,0.732
28.5600,0.715
28.6000,0.725
28.6400,0.699
28.6800,0.706
28.7200,0.718
28.7600,0.714
28.8000,0.710
28.8400,0.715
28.8800,0.697
28.9200,0.708
28.9600,0.712
29.0000,0.712
29.0400,0.661
29.0800,0.683
29.1200,0.690
29.1600,0.729
29.2000,0.715
29.2400,0.674
29.2800,0.700
29.3200,0.680
29.3600,0.687
29.4000,0.677
29.4400,0.681
29.4800,0.658
29.5200,0.694
29.5600,0.712
29.6000,0.691
29.6400,0.639
29.6800,0.678
29.7200,0.664
29.7600,0.635
29.8000,0.659
29.8400,0.651
29.8800,0.642
29.9200,0.660
29.9600,0.688
30.0000,0.645
30.0400,0.652
30.0800,0.655
30.1200,0.664
30.1600,0.694
30.2000,0.623
30.2400,0.649
30.2800,0.647
30.3200,0.673
30.3600,0.645
30.4000,0.630
30.4400,0.650
30.4800,0.664
30.5200,0.638
30.5600,0.616
30.6000,0.642
30.6400,0.626
30.6800,0.617
30.7200,0.632
30.7600,0.611
30.8000,0.624
30.8400,0.636
30.8800,0.635
30.9200,0.602
30.9600,0.597
31.0000,0.627
31.0400,0.655
31.0800,0.613
31.1200,0.601
31.1600,0.597
31.2000,0.624
31.2400,0.653
31.2800,0.599
31.3200,0.601
31.3600,0.625
31.4000,0.609
31.4400,0.573
31.4800,0.584
31.5200,0.634
31.5600,0.634
31.6000,0.609
31.6400,0.590
31.6800,0.607
31.7200,0.584
31.7600,0.633
31.8000,0.595
31.8400,0.604
31.8800,0.626
31.9200,0.595
31.9600,0.578
32.0000,0.617
32.0400,0.603
32.0800,0.557
32.1200,0.582
32.1600,0.569
32.2000,0.585
32.2400,0.573
32.2800,0.588
32.3200,0.586
32.3600,0.589
32.4000,0.571
32.4400,0.592
32.4800,0.579
32.5200,0.571
32.5600,0.590
32.6000,0.564
32.6400,0.540
32.6800,0.580
32.7200,0.558
32.7600,0.591
32.8000,0.569
32.8400,0.586
32.8800,0.560
32.9200,0.575
32.9600,0.550
33.0000,0.601
33.0400,0.587
33.0800,0.528
33.1200,0.588
33.1600,0.559
33.2000,0.547
33.2400,0.582
33.2800,0.575
33.3200,0.571
33.3600,0.572
33.4000,0.548
33.4400,0.590
33.4800,0.559
33.5200,0.560
33.5600,0.560
33.6000,0.548
33.6400,0.551
33.6800,0.538
33.7200,0.567
33.7600,0.541
33.8000,0.541
33.8400,0.535
33.8800,0.546
33.9200,0.526
33.9600,0.529
34.0000,0.537
34.0400,0.539
34.0800,0.548
34.1200,0.511
34.1600,0.531
34.2000,0.543
34.2400,0.536
34.2800,0.546
34.3200,0.560
34.3600,0.527
34.4000,0.528
34.4400,0.552
34.4800,0.526
34.5200,0.502
34.5600,0.501
34.6000,0.540
34.6400,0.520
34.6800,0.516
34.7200,0.528
34.7600,0.527
34.8000,0.514
34.8400,0.527
34.8800,0.537
34.9200,0.510
34.9600,0.474
35.0000,0.486
35.0400,0.506
35.0800,0.483
35.1200,0.509
35.1600,0.527
35.2000,0.513
35.2400,0.504
35.2800,0.522
35.3200,0.511
35.3600,0.504
35.4000,0.510
35.4400,0.490
35.4800,0.556
35.5200,0.517
35.5600,0.508
35.6000,0.493
35.6400,0.482
35.6800,0.481
35.7200,0.479
35.7600,0.530
35.8000,0.508
35.8400,0.492
35.8800,0.500
35.9200,0.518
35.9600,0.477
36.0000,0.502
36.0400,0.538
36.0800,0.489
36.1200,0.483
36.1600,0.485
36.2000,0.461
36.2400,0.479
36.2800,0.504
36.3200,0.507
36.3600,0.482
36.4000,0.499
36.4400,0.481
36.4800,0.469
36.5200,0.497
36.5600,0.476
36.6000,0.461
36.6400,0.504
36.6800,0.459
36.7200,0.494
36.7600,0.471
36.8000,0.484
36.8400,0.475
36.8800,0.505
36.9200,0.466
36.9600,0.483
37.0000,0.475
37.0400,0.458
37.0800,0.474
37.1200,0.479
37.1600,0.523
37.2000,0.488
37.2400,0.487
37.2800,0.483
37.3200,0.468
37.3600,0.488
37.4000,0.496
37.4400,0.499
37.4800,0.452
37.5200,0.472
37.5600,0.480
37.6000,0.490
37.6400,0.525
37.6800,0.491
37.7200,0.458
37.7600,0.467
37.8000,0.484
37.8400,0.471
37.8800,0.468
37.9200,0.502
37.9600,0.472
38.0000,0.439
38.0400,0.471
38.0800,0.491
38.1200,0.494
38.1600,0.453
38.2000,0.500
38.2400,0.459
38.2800,0.477
38.3200,0.457
38.3600,0.493
38.4000,0.509
38.4400,0.514
38.4800,0.477
38.5200,0.496
38.5600,0.517
38.6000,0.480
38.6400,0.444
38.6800,0.509
38.7200,0.506
38.7600,0.507
38.8000,0.520
38.8400,0.525
38.8800,0.519
38.9200,0.510
38.9600,0.516
39.0000,0.534
39.0400,0.510
39.0800,0.520
39.1200,0.529
39.1600,0.557
39.2000,0.575
39.2400,0.629
39.2800,0.589
39.3200,0.621
39.3600,0.632
39.4000,0.623
39.4400,0.649
39.4800,0.662
39.5200,0.696
39.5600,0.760
39.6000,0.783
39.6400,0.816
39.6800,0.895
39.7200,1.067
39.7600,1.206
39.8000,1.396
39.8400,1.614
39.8800,2.038
39.9200,2.571
39.9600,3.397
40.0000,4.940
40.0400,6.863
40.0800,9.046
40.1200,10.898
40.1600,11.765
40.2000,11.208
40.2400,10.058
40.2800,8.137
40.3200,6.379
40.3600,4.502
40.4000,3.356
40.4400,2.434
40.4800,1.872
40.5200,1.504
40.5600,1.280
40.6000,1.083
40.6400,0.930
40.6800,0.867
40.7200,0.798
40.7600,0.752
40.8000,0.698
40.8400,0.631
40.8800,0.635
40.9200,0.615
40.9600,0.604
41.0000,0.519
41.0400,0.555
41.0800,0.537
41.1200,0.570
41.1600,0.494
41.2000,0.518
41.2400,0.491
41.2800,0.497
41.3200,0.499
41.3600,0.494
41.4000,0.450
41.4400,0.445
41.4800,0.454
41.5200,0.472
41.5600,0.437
41.6000,0.458
41.6400,0.427
41.6800,0.445
41.7200,0.421
41.7600,0.461
41.8000,0.465
41.8400,0.449
41.8800,0.414
41.9200,0.419
41.9600,0.400
42.0000,0.432
42.0400,0.421
42.0800,0.457
42.1200,0.409
42.1600,0.413
42.2000,0.458
42.2400,0.429
42.2800,0.435
42.3200,0.423
42.3600,0.413
42.4000,0.418
42.4400,0.394
42.4800,0.400
42.5200,0.417
42.5600,0.430
42.6000,0.413
42.6400,0.431
42.6800,0.416
42.7200,0.405
42.7600,0.409
42.8000,0.397
42.8400,0.401
42.8800,0.402
42.9200,0.409
42.9600,0.410
43.0000,0.403
43.0400,0.405
43.0800,0.393
43.1200,0.383
43.1600,0.406
43.2000,0.398
43.2400,0.386
43.2800,0.393
43.3200,0.401
43.3600,0.381
43.4000,0.426
43.4400,0.381
43.4800,0.401
43.5200,0.405
43.5600,0.403
43.6000,0.389
43.6400,0.384
43.6800,0.370
43.7200,0.378
43.7600,0.386
43.8000,0.379
43.8400,0.397
43.8800,0.365
43.9200,0.375
43.9600,0.385
44.0000,0.373
44.0400,0.395
44.0800,0.353
44.1200,0.378
44.1600,0.359
44.2000,0.369
44.2400,0.403
44.2800,0.380
44.3200,0.363
44.3600,0.380
44.4000,0.406
44.4400,0.384
44.4800,0.376
44.5200,0.372
44.5600,0.363
44.6000,0.408
44.6400,0.364
44.6800,0.358
44.7200,0.393
44.7600,0.352
44.8000,0.363
44.8400,0.400
44.8800,0.384
44.9200,0.392
44.9600,0.389
45.0000,0.379
45.0400,0.383
45.0800,0.396
45.1200,0.369
45.1600,0.398
45.2000,0.378
45.2400,0.398
45.2800,0.391
45.3200,0.394
45.3600,0.366
45.4000,0.360
45.4400,0.397
45.4800,0.374
45.5200,0.407
45.5600,0.403
45.6000,0.409
45.6400,0.416
45.6800,0.412
45.7200,0.405
45.7600,0.422
45.8000,0.433
45.8400,0.452
45.8800,0.449
45.9200,0.491
45.9600,0.507
46.0000,0.500
46.0400,0.505
46.0800,0.562
46.1200,0.602
46.1600,0.592
46.2000,0.708
46.2400,0.774
46.2800,0.864
46.3200,0.920
46.3600,1.097
46.4000,1.242
46.4400,1.481
46.4800,1.792
46.5200,2.188
46.5600,2.539
46.6000,2.981
46.6400,3.401
46.6800,3.591
46.7200,3.670
46.7600,3.538
46.8000,3.239
46.8400,2.935
46.8800,2.466
46.9200,2.105
46.9600,1.693
47.0000,1.481
47.0400,1.200
47.0800,1.049
47.1200,0.852
47.1600,0.821
47.2000,0.707
47.2400,0.592
47.2800,0.589
47.3200,0.572
47.3600,0.503
47.4000,0.454
47.4400,0.471
47.4800,0.424
47.5200,0.392
47.5600,0.434
47.6000,0.429
47.6400,0.393
47.6800,0.398
47.7200,0.359
47.7600,0.372
47.8000,0.341
47.8400,0.373
47.8800,0.357
47.9200,0.350
47.9600,0.337
48.0000,0.332
48.0400,0.319
48.0800,0.324
48.1200,0.305
48.1600,0.325
48.2000,0.330
48.2400,0.323
48.2800,0.304
48.3200,0.318
48.3600,0.320
48.4000,0.310
48.4400,0.286
48.4800,0.310
48.5200,0.313
48.5600,0.315
48.6000,0.290
48.6400,0.301
48.6800,0.310
48.7200,0.305
48.7600,0.261
48.8000,0.281
48.8400,0.302
48.8800,0.311
48.9200,0.265
48.9600,0.310
49.0000,0.310
49.0400,0.273
49.0800,0.287
49.1200,0.287
49.1600,0.292
49.2000,0.312
49.2400,0.286
49.2800,0.271
49.3200,0.273
49.3600,0.282
49.4000,0.291
49.4400,0.277
49.4800,0.283
49.5200,0.263
49.5600,0.257
49.6000,0.263
49.6400,0.266
49.6800,0.302
49.7200,0.287
49.7600,0.289
49.8000,0.284
49.8400,0.258
49.8800,0.283
49.9200,0.277
49.9600,0.282
50.0000,0.270
50.0400,0.284
50.0800,0.308
50.1200,0.280
50.1600,0.271
50.2000,0.266
50.2400,0.278
50.2800,0.252
50.3200,0.265
50.3600,0.272
50.4000,0.278
50.4400,0.257
50.4800,0.250
50.5200,0.266
50.5600,0.266
50.6000,0.285
50.6400,0.252
50.6800,0.260
50.7200,0.275
50.7600,0.274
50.8000,0.275
50.8400,0.259
50.8800,0.249
50.9200,0.254
50.9600,0.278
51.0000,0.265
51.0400,0.257
51.0800,0.244
51.1200,0.266
51.1600,0.272
51.2000,0.269
51.2400,0.252
51.2800,0.265
51.3200,0.274
51.3600,0.260
51.4000,0.272
51.4400,0.275
51.4800,0.251
51.5200,0.240
51.5600,0.266
51.6000,0.255
51.6400,0.234
51.6800,0.265
51.7200,0.246
51.7600,0.258
51.8000,0.235
51.8400,0.240
51.8800,0.251
51.9200,0.253
51.9600,0.259
52.0000,0.265
52.0400,0.252
52.0800,0.255
52.1200,0.250
52.1600,0.260
52.2000,0.258
52.2400,0.240
52.2800,0.242
52.3200,0.223
52.3600,0.239
52.4000,0.241
52.4400,0.256
52.4800,0.259
52.5200,0.244
52.5600,0.247
52.6000,0.238
52.6400,0.255
52.6800,0.249
52.7200,0.237
52.7600,0.254
52.8000,0.254
52.8400,0.245
52.8800,0.235
52.9200,0.245
52.9600,0.228
53.0000,0.245
53.0400,0.240
53.0800,0.238
53.1200,0.262
53.1600,0.245
53.2000,0.244
53.2400,0.214
53.2800,0.240
53.3200,0.249
53.3600,0.227
53.4000,0.234
53.4400,0.234
53.4800,0.219
53.5200,0.264
53.5600,0.234
53.6000,0.237
53.6400,0.243
53.6800,0.226
53.7200,0.249
53.7600,0.215
53.8000,0.236
53.8400,0.243
53.8800,0.227
53.9200,0.228
53.9600,0.244
54.0000,0.247
54.0400,0.237
54.0800,0.238
54.1200,0.230
54.1600,0.214
54.2000,0.226
54.2400,0.234
54.2800,0.233
54.3200,0.233
54.3600,0.248
54.4000,0.239
54.4400,0.213
54.4800,0.237
54.5200,0.226
54.5600,0.244
54.6000,0.232
54.6400,0.216
54.6800,0.234
54.7200,0.219
54.7600,0.226
54.8000,0.227
54.8400,0.228
54.8800,0.225
54.9200,0.220
54.9600,0.228
55.0000,0.221
55.0400,0.232
55.0800,0.235
55.1200,0.220
55.1600,0.225
55.2000,0.225
55.2400,0.221
55.2800,0.209
55.3200,0.225
55.3600,0.230
55.4000,0.217
55.4400,0.233
55.4800,0.224
55.5200,0.215
55.5600,0.231
55.6000,0.207
55.6400,0.229
55.6800,0.214
55.7200,0.251
55.7600,0.223
55.8000,0.239
55.8400,0.232
55.8800,0.225
55.9200,0.227
55.9600,0.224
56.0000,0.236
56.0400,0.219
56.0800,0.227
56.1200,0.218
56.1600,0.199
56.2000,0.223
56.2400,0.232
56.2800,0.219
56.3200,0.225
56.3600,0.231
56.4000,0.186
56.4400,0.225
56.4800,0.208
56.5200,0.231
56.5600,0.229
56.6000,0.215
56.6400,0.212
56.6800,0.195
56.7200,0.217
56.7600,0.218
56.8000,0.219
56.8400,0.220
56.8800,0.216
56.9200,0.231
56.9600,0.229
57.0000,0.228
57.0400,0.221
57.0800,0.215
57.1200,0.201
57.1600,0.211
57.2000,0.210
57.2400,0.210
57.2800,0.187
57.3200,0.180
57.3600,0.218
57.4000,0.214
57.4400,0.228
57.4800,0.225
57.5200,0.201
57.5600,0.236
57.6000,0.215
57.6400,0.205
57.6800,0.198
57.7200,0.187
57.7600,0.223
57.8000,0.221
57.8400,0.205
57.8800,0.215
57.9200,0.212
57.9600,0.207
58.0000,0.214
58.0400,0.215
58.0800,0.206
58.1200,0.224
58.1600,0.210
58.2000,0.215
58.2400,0.207
58.2800,0.219
58.3200,0.207
58.3600,0.207
58.4000,0.233
58.4400,0.237
58.4800,0.208
58.5200,0.191
58.5600,0.205
58.6000,0.215
58.6400,0.178
58.6800,0.219
58.7200,0.206
58.7600,0.210
58.8000,0.217
58.8400,0.201
58.8800,0.206
58.9200,0.197
58.9600,0.189
59.0000,0.194
59.0400,0.216
59.0800,0.219
59.1200,0.211
59.1600,0.204
59.2000,0.198
59.2400,0.199
59.2800,0.213
59.3200,0.212
59.3600,0.213
59.4000,0.204
59.4400,0.205
59.4800,0.210
59.5200,0.191
59.5600,0.200
59.6000,0.196
59.6400,0.189
59.6800,0.204
59.7200,0.200
59.7600,0.208
59.8000,0.219
59.8400,0.218
59.8800,0.210
59.9200,0.200
59.9600,0.198
60.0000,0.221
60.0400,0.200
60.0800,0.190
60.1200,0.207
60.1600,0.212
60.2000,0.192
60.2400,0.200
60.2800,0.185
60.3200,0.211
60.3600,0.218
60.4000,0.213
60.4400,0.222
60.4800,0.191
60.5200,0.216
60.5600,0.202
60.6000,0.204
60.6400,0.208
60.6800,0.211
60.7200,0.215
60.7600,0.208
60.8000,0.207
60.8400,0.204
60.8800,0.203
60.9200,0.213
60.9600,0.213
61.0000,0.212
61.0400,0.210
61.0800,0.198
61.1200,0.222
61.1600,0.222
61.2000,0.208
61.2400,0.219
61.2800,0.197
61.3200,0.198
61.3600,0.200
61.4000,0.205
61.4400,0.198
61.4800,0.208
61.5200,0.206
61.5600,0.186
61.6000,0.202
61.6400,0.206
61.6800,0.209
61.7200,0.220
61.7600,0.199
61.8000,0.202
61.8400,0.218
61.8800,0.197
61.9200,0.217
61.9600,0.212
62.0000,0.209
62.0400,0.207
62.0800,0.187
62.1200,0.211
62.1600,0.215
62.2000,0.202
62.2400,0.220
62.2800,0.204
62.3200,0.194
62.3600,0.191
62.4000,0.225
62.4400,0.197
62.4800,0.204
62.5200,0.206
62.5600,0.202
62.6000,0.201
62.6400,0.195
62.6800,0.235
62.7200,0.212
62.7600,0.221
62.8000,0.198
62.8400,0.219
62.8800,0.202
62.9200,0.221
62.9600,0.202
63.0000,0.209
63.0400,0.212
63.0800,0.203
63.1200,0.229
63.1600,0.205
63.2000,0.206
63.2400,0.215
63.2800,0.228
63.3200,0.216
63.3600,0.215
63.4000,0.210
63.4400,0.207
63.4800,0.228
63.5200,0.211
63.5600,0.211
63.6000,0.226
63.6400,0.214
63.6800,0.208
63.7200,0.223
63.7600,0.220
63.8000,0.207
63.8400,0.219
63.8800,0.223
63.9200,0.227
63.9600,0.208
64.0000,0.222
64.0400,0.202
64.0800,0.208
64.1200,0.215
64.1600,0.238
64.2000,0.228
64.2400,0.241
64.2800,0.212
64.3200,0.242
64.3600,0.227
64.4000,0.240
64.4400,0.229
64.4800,0.241
64.5200,0.220
64.5600,0.229
64.6000,0.210
64.6400,0.226
64.6800,0.247
64.7200,0.254
64.7600,0.236
64.8000,0.254
64.8400,0.229
64.8800,0.249
64.9200,0.222
64.9600,0.247
65.0000,0.251
65.0400,0.262
65.0800,0.250
65.1200,0.254
65.1600,0.251
65.2000,0.239
65.2400,0.240
65.2800,0.246
65.3200,0.262
65.3600,0.244
65.4000,0.257
65.4400,0.267
65.4800,0.240
65.5200,0.254
65.5600,0.268
65.6000,0.277
65.6400,0.285
65.6800,0.257
65.7200,0.266
65.7600,0.268
65.8000,0.271
65.8400,0.264
65.8800,0.285
65.9200,0.280
65.9600,0.308
66.0000,0.295
66.0400,0.267
66.0800,0.279
66.1200,0.276
66.1600,0.282
66.2000,0.308
66.2400,0.304
66.2800,0.301
66.3200,0.326
66.3600,0.327
66.4000,0.299
66.4400,0.330
66.4800,0.350
66.5200,0.331
66.5600,0.340
66.6000,0.319
66.6400,0.350
66.6800,0.331
66.7200,0.324
66.7600,0.377
66.8000,0.340
66.8400,0.352
66.8800,0.365
66.9200,0.365
66.9600,0.392
67.0000,0.388
67.0400,0.394
67.0800,0.381
67.1200,0.388
67.1600,0.410
67.2000,0.434
67.2400,0.448
67.2800,0.436
67.3200,0.460
67.3600,0.466
67.4000,0.498
67.4400,0.468
67.4800,0.482
67.5200,0.503
67.5600,0.520
67.6000,0.570
67.6400,0.599
67.6800,0.617
67.7200,0.699
67.7600,0.752
67.8000,0.769
67.8400,0.877
67.8800,0.969
67.9200,1.075
67.9600,1.191
68.0000,1.394
68.0400,1.589
68.0800,1.786
68.1200,1.874
68.1600,1.934
68.2000,1.978
68.2400,1.916
68.2800,1.852
68.3200,1.777
68.3600,1.686
68.4000,1.584
68.4400,1.468
68.4800,1.329
68.5200,1.243
68.5600,1.144
68.6000,1.106
68.6400,1.173
68.6800,1.179
68.7200,1.306
68.7600,1.579
68.8000,1.911
68.8400,2.037
68.8800,2.168
68.9200,2.352
68.9600,2.739
69.0000,3.935
69.0400,7.686
69.0800,25.394
69.1200,70.514
69.1600,98.401
69.2000,86.093
69.2400,53.687
69.2800,28.097
69.3200,41.195
69.3600,53.107
69.4000,45.397
69.4400,26.569
69.4800,8.722
69.5200,3.941
69.5600,2.636
69.6000,1.942
69.6400,1.606
69.6800,1.429
69.7200,1.268
69.7600,1.168
69.8000,1.003
69.8400,1.024
69.8800,0.942
69.9200,0.846
69.9600,0.819
70.0000,0.804
70.0400,0.794
70.0800,0.776
70.1200,0.711
70.1600,0.687
70.2000,0.652
70.2400,0.657
70.2800,0.623
70.3200,0.608
70.3600,0.608
70.4000,0.602
70.4400,0.566
70.4800,0.544
70.5200,0.533
70.5600,0.540
70.6000,0.489
70.6400,0.504
70.6800,0.497
70.7200,0.475
70.7600,0.479
70.8000,0.442
70.8400,0.487
70.8800,0.427
70.9200,0.427
70.9600,0.461
71.0000,0.445
71.0400,0.415
71.0800,0.413
71.1200,0.415
71.1600,0.395
71.2000,0.396
71.2400,0.398
71.2800,0.373
71.3200,0.373
71.3600,0.341
71.4000,0.351
71.4400,0.351
71.4800,0.366
71.5200,0.346
71.5600,0.358
71.6000,0.324
71.6400,0.342
71.6800,0.353
71.7200,0.310
71.7600,0.295
71.8000,0.301
71.8400,0.301
71.8800,0.323
71.9200,0.300
71.9600,0.326
72.0000,0.295
72.0400,0.275
72.0800,0.281
72.1200,0.297
72.1600,0.293
72.2000,0.267
72.2400,0.274
72.2800,0.268
72.3200,0.272
72.3600,0.290
72.4000,0.275
72.4400,0.268
72.4800,0.254
72.5200,0.279
72.5600,0.262
72.6000,0.236
72.6400,0.253
72.6800,0.250
72.7200,0.239
72.7600,0.243
72.8000,0.255
72.8400,0.234
72.8800,0.254
72.9200,0.236
72.9600,0.244
73.0000,0.241
73.0400,0.242
73.0800,0.240
73.1200,0.226
73.1600,0.239
73.2000,0.222
73.2400,0.233
73.2800,0.224
73.3200,0.224
73.3600,0.228
73.4000,0.218
73.4400,0.235
73.4800,0.217
73.5200,0.205
73.5600,0.215
73.6000,0.208
73.6400,0.221
73.6800,0.224
73.7200,0.198
73.7600,0.238
73.8000,0.206
73.8400,0.218
73.8800,0.192
73.9200,0.209
73.9600,0.206
74.0000,0.203
74.0400,0.209
74.0800,0.195
74.1200,0.195
74.1600,0.217
74.2000,0.216
74.2400,0.190
74.2800,0.229
74.3200,0.198
74.3600,0.211
74.4000,0.204
74.4400,0.193
74.4800,0.197
74.5200,0.210
74.5600,0.203
74.6000,0.200
74.6400,0.199
74.6800,0.204
74.7200,0.195
74.7600,0.191
74.8000,0.167
74.8400,0.209
74.8800,0.194
74.9200,0.176
74.9600,0.197
75.0000,0.184
75.0400,0.188
75.0800,0.205
75.1200,0.178
75.1600,0.205
75.2000,0.178
75.2400,0.193
75.2800,0.168
75.3200,0.179
75.3600,0.178
75.4000,0.189
75.4400,0.188
75.4800,0.190
75.5200,0.178
75.5600,0.200
75.6000,0.187
75.6400,0.168
75.6800,0.167
75.7200,0.169
75.7600,0.176
75.8000,0.178
75.8400,0.173
75.8800,0.187
75.9200,0.164
75.9600,0.168
76.0000,0.173
76.0400,0.177
76.0800,0.187
76.1200,0.165
76.1600,0.174
76.2000,0.177
76.2400,0.176
76.2800,0.162
76.3200,0.163
76.3600,0.174
76.4000,0.168
76.4400,0.176
76.4800,0.169
76.5200,0.169
76.5600,0.161
76.6000,0.192
76.6400,0.175
76.6800,0.175
76.7200,0.170
76.7600,0.178
76.8000,0.162
76.8400,0.182
76.8800,0.177
76.9200,0.182
76.9600,0.158
77.0000,0.180
77.0400,0.161
77.0800,0.169
77.1200,0.182
77.1600,0.173
77.2000,0.167
77.2400,0.176
77.2800,0.161
77.3200,0.165
77.3600,0.171
77.4000,0.186
77.4400,0.163
77.4800,0.160
77.5200,0.141
77.5600,0.164
77.6000,0.152
77.6400,0.166
77.6800,0.166
77.7200,0.158
77.7600,0.169
77.8000,0.178
77.8400,0.175
77.8800,0.158
77.9200,0.181
77.9600,0.161
78.0000,0.169
78.0400,0.166
78.0800,0.170
78.1200,0.156
78.1600,0.155
78.2000,0.165
78.2400,0.158
78.2800,0.175
78.3200,0.165
78.3600,0.154
78.4000,0.160
78.4400,0.166
78.4800,0.159
78.5200,0.160
78.5600,0.170
78.6000,0.170
78.6400,0.155
78.6800,0.159
78.7200,0.173
78.7600,0.171
78.8000,0.162
78.8400,0.166
78.8800,0.171
78.9200,0.168
78.9600,0.159
79.0000,0.170
79.0400,0.174
79.0800,0.175
79.1200,0.140
79.1600,0.181
79.2000,0.166
79.2400,0.173
79.2800,0.147
79.3200,0.149
79.3600,0.168
79.4000,0.175
79.4400,0.180
79.4800,0.177
79.5200,0.167
79.5600,0.173
79.6000,0.158
79.6400,0.175
79.6800,0.171
79.7200,0.176
79.7600,0.176
79.8000,0.171
79.8400,0.174
79.8800,0.162
79.9200,0.186
79.9600,0.170
80.0000,0.175
