theta,intensity
5.0000,4.400
5.0400,4.379
5.0800,4.304
5.1200,4.377
5.1600,4.312
5.2000,4.259
5.2400,4.180
5.2800,4.487
5.3200,4.358
5.3600,4.428
5.4000,4.236
5.4400,4.286
5.4800,4.277
5.5200,4.327
5.5600,4.275
5.6000,4.415
5.6400,4.219
5.6800,4.344
5.7200,4.317
5.7600,4.390
5.8000,4.298
5.8400,4.196
5.8800,4.316
5.9200,4.287
5.9600,4.236
6.0000,4.307
6.0400,4.281
6.0800,4.168
6.1200,4.218
6.1600,4.138
6.2000,4.093
6.2400,4.102
6.2800,4.187
6.3200,4.262
6.3600,4.209
6.4000,4.098
6.4400,4.169
6.4800,4.175
6.5200,4.121
6.5600,4.035
6.6000,4.042
6.6400,4.081
6.6800,4.109
6.7200,4.029
6.7600,4.065
6.8000,4.153
6.8400,4.105
6.8800,3.934
6.9200,4.028
6.9600,4.006
7.0000,3.905
7.0400,4.018
7.0800,4.047
7.1200,4.015
7.1600,3.982
7.2000,3.970
7.2400,4.085
7.2800,4.034
7.3200,3.954
7.3600,4.021
7.4000,3.961
7.4400,3.896
7.4800,4.039
7.5200,3.939
7.5600,3.906
7.6000,3.956
7.6400,3.868
7.6800,3.900
7.7200,3.797
7.7600,3.921
7.8000,3.957
7.8400,3.885
7.8800,3.922
7.9200,3.901
7.9600,3.965
8.0000,3.972
8.0400,3.777
8.0800,3.846
8.1200,3.900
8.1600,3.805
8.2000,3.821
8.2400,3.922
8.2800,3.890
8.3200,3.825
8.3600,3.886
8.4000,3.757
8.4400,3.923
8.4800,3.873
8.5200,3.914
8.5600,3.858
8.6000,3.759
8.6400,3.827
8.6800,3.757
8.7200,3.908
8.7600,3.716
8.8000,3.781
8.8400,3.679
8.8800,3.853
8.9200,3.762
8.9600,3.708
9.0000,3.793
9.0400,3.741
9.0800,3.725
9.1200,3.833
9.1600,3.801
9.2000,3.767
9.2400,3.654
9.2800,3.682
9.3200,3.833
9.3600,3.728
9.4000,3.694
9.4400,3.777
9.4800,3.732
9.5200,3.753
9.5600,3.775
9.6000,3.607
9.6400,3.635
9.6800,3.740
9.7200,3.651
9.7600,3.665
9.8000,3.612
9.8400,3.684
9.8800,3.701
9.9200,3.652
9.9600,3.682
10.0000,3.676
10.0400,3.617
10.0800,3.664
10.1200,3.551
10.1600,3.628
10.2000,3.577
10.2400,3.608
10.2800,3.568
10.3200,3.654
10.3600,3.671
10.4000,3.568
10.4400,3.602
10.4800,3.631
10.5200,3.616
10.5600,3.501
10.6000,3.557
10.6400,3.575
10.6800,3.640
10.7200,3.590
10.7600,3.627
10.8000,3.620
10.8400,3.458
10.8800,3.712
10.9200,3.609
10.9600,3.464
11.0000,3.557
11.0400,3.567
11.0800,3.509
11.1200,3.596
11.1600,3.577
11.2000,3.524
11.2400,3.447
11.2800,3.545
11.3200,3.490
11.3600,3.597
11.4000,3.612
11.4400,3.580
11.4800,3.425
11.5200,3.474
11.5600,3.495
11.6000,3.519
11.6400,3.481
11.6800,3.588
11.7200,3.467
11.7600,3.502
11.8000,3.418
11.8400,3.498
11.8800,3.437
11.9200,3.411
11.9600,3.517
12.0000,3.446
12.0400,3.590
12.0800,3.450
12.1200,3.459
12.1600,3.475
12.2000,3.366
12.2400,3.454
12.2800,3.406
12.3200,3.506
12.3600,3.371
12.4000,3.289
12.4400,3.455
12.4800,3.439
12.5200,3.451
12.5600,3.443
12.6000,3.526
12.6400,3.379
12.6800,3.395
12.7200,3.358
12.7600,3.473
12.8000,3.315
12.8400,3.419
12.8800,3.288
12.9200,3.414
12.9600,3.455
13.0000,3.340
13.0400,3.438
13.0800,3.426
13.1200,3.364
13.1600,3.200
13.2000,3.383
13.2400,3.304
13.2800,3.406
13.3200,3.289
13.3600,3.458
13.4000,3.274
13.4400,3.321
13.4800,3.324
13.5200,3.326
13.5600,3.276
13.6000,3.332
13.6400,3.323
13.6800,3.323
13.7200,3.398
13.7600,3.396
13.8000,3.302
13.8400,3.370
13.8800,3.325
13.9200,3.300
13.9600,3.239
14.0000,3.339
14.0400,3.270
14.0800,3.318
14.1200,3.230
14.1600,3.197
14.2000,3.210
14.2400,3.240
14.2800,3.342
14.3200,3.184
14.3600,3.275
14.4000,3.370
14.4400,3.219
14.4800,3.176
14.5200,3.334
14.5600,3.197
14.6000,3.189
14.6400,3.349
14.6800,3.259
14.7200,3.199
14.7600,3.293
14.8000,3.223
14.8400,3.232
14.8800,3.188
14.9200,3.163
14.9600,3.108
15.0000,3.348
15.0400,3.288
15.0800,3.197
15.1200,3.330
15.1600,3.217
15.2000,3.246
15.2400,3.192
15.2800,3.247
15.3200,3.306
15.3600,3.345
15.4000,3.227
15.4400,3.227
15.4800,3.158
15.5200,3.176
15.5600,3.188
15.6000,3.208
15.6400,3.238
15.6800,3.179
15.7200,3.040
15.7600,3.211
15.8000,3.169
15.8400,3.168
15.8800,3.191
15.9200,3.105
15.9600,3.224
16.0000,3.154
16.0400,3.113
16.0800,3.319
16.1200,3.184
16.1600,3.139
16.2000,3.127
16.2400,3.290
16.2800,3.181
16.3200,3.182
16.3600,3.140
16.4000,3.118
16.4400,3.117
16.4800,3.172
16.5200,3.035
16.5600,3.153
16.6000,3.102
16.6400,3.029
16.6800,3.099
16.7200,3.105
16.7600,3.005
16.8000,3.101
16.8400,3.082
16.8800,3.002
16.9200,2.977
16.9600,3.081
17.0000,3.007
17.0400,3.163
17.0800,3.130
17.1200,3.062
17.1600,3.053
17.2000,3.044
17.2400,3.069
17.2800,2.990
17.3200,3.030
17.3600,2.978
17.4000,2.963
17.4400,3.070
17.4800,3.143
17.5200,3.042
17.5600,3.060
17.6000,2.985
17.6400,2.946
17.6800,3.007
17.7200,2.978
17.7600,2.990
17.8000,3.020
17.8400,3.007
17.8800,2.933
17.9200,2.967
17.9600,2.922
18.0000,2.937
18.0400,2.947
18.0800,2.936
18.1200,2.943
18.1600,2.962
18.2000,2.999
18.2400,3.002
18.2800,2.950
18.3200,2.942
18.3600,3.058
18.4000,2.940
18.4400,2.982
18.4800,2.849
18.5200,2.887
18.5600,2.971
18.6000,2.908
18.6400,2.879
18.6800,2.910
18.7200,2.882
18.7600,2.976
18.8000,2.928
18.8400,2.860
18.8800,2.879
18.9200,2.896
18.9600,2.841
19.0000,2.920
19.0400,2.873
19.0800,2.909
19.1200,2.957
19.1600,2.821
19.2000,2.738
19.2400,2.866
19.2800,2.860
19.3200,2.824
19.3600,2.769
19.4000,2.823
19.4400,2.839
19.4800,2.889
19.5200,2.802
19.5600,2.785
19.6000,2.767
19.6400,2.727
19.6800,2.758
19.7200,2.815
19.7600,2.781
19.8000,2.844
19.8400,2.899
19.8800,2.759
19.9200,2.808
19.9600,2.906
20.0000,2.806
20.0400,2.797
20.0800,2.673
20.1200,2.698
20.1600,2.770
20.2000,2.732
20.2400,2.746
20.2800,2.749
20.3200,2.799
20.3600,2.769
20.4000,2.836
20.4400,2.705
20.4800,2.747
20.5200,2.749
20.5600,2.750
20.6000,2.715
20.6400,2.692
20.6800,2.802
20.7200,2.718
20.7600,2.751
20.8000,2.801
20.8400,2.776
20.8800,2.785
20.9200,2.753
20.9600,2.735
21.0000,2.702
21.0400,2.847
21.0800,2.671
21.1200,2.770
21.1600,2.595
21.2000,2.697
21.2400,2.635
21.2800,2.616
21.3200,2.678
21.3600,2.669
21.4000,2.626
21.4400,2.596
21.4800,2.785
21.5200,2.784
21.5600,2.613
21.6000,2.594
21.6400,2.707
21.6800,2.596
21.7200,2.596
21.7600,2.632
21.8000,2.705
21.8400,2.634
21.8800,2.592
21.9200,2.618
21.9600,2.652
22.0000,2.636
22.0400,2.688
22.0800,2.597
22.1200,2.616
22.1600,2.745
22.2000,2.602
22.2400,2.744
22.2800,2.778
22.3200,2.623
22.3600,2.705
22.4000,2.641
22.4400,2.725
22.4800,2.575
22.5200,2.653
22.5600,2.675
22.6000,2.711
22.6400,2.614
22.6800,2.599
22.7200,2.611
22.7600,2.696
22.8000,2.573
22.8400,2.585
22.8800,2.560
22.9200,2.503
22.9600,2.572
23.0000,2.478
23.0400,2.638
23.0800,2.605
23.1200,2.578
23.1600,2.582
23.2000,2.585
23.2400,2.499
23.2800,2.504
23.3200,2.505
23.3600,2.559
23.4000,2.624
23.4400,2.758
23.4800,2.517
23.5200,2.573
23.5600,2.569
23.6000,2.501
23.6400,2.679
23.6800,2.566
23.7200,2.651
23.7600,2.601
23.8000,2.554
23.8400,2.533
23.8800,2.558
23.9200,2.564
23.9600,2.480
24.0000,2.483
24.0400,2.477
24.0800,2.450
24.1200,2.451
24.1600,2.474
24.2000,2.541
24.2400,2.503
24.2800,2.495
24.3200,2.487
24.3600,2.542
24.4000,2.471
24.4400,2.507
24.4800,2.525
24.5200,2.497
24.5600,2.450
24.6000,2.429
24.6400,2.468
24.6800,2.476
24.7200,2.397
24.7600,2.412
24.8000,2.438
24.8400,2.407
24.8800,2.505
24.9200,2.513
24.9600,2.490
25.0000,2.406
25.0400,2.516
25.0800,2.396
25.1200,2.510
25.1600,2.447
25.2000,2.387
25.2400,2.334
25.2800,2.383
25.3200,2.338
25.3600,2.403
25.4000,2.371
25.4400,2.376
25.4800,2.340
25.5200,2.430
25.5600,2.381
25.6000,2.423
25.6400,2.363
25.6800,2.333
25.7200,2.273
25.7600,2.358
25.8000,2.318
25.8400,2.333
25.8800,2.346
25.9200,2.317
25.9600,2.480
26.0000,2.413
26.0400,2.320
26.0800,2.358
26.1200,2.395
26.1600,2.388
26.2000,2.331
26.2400,2.337
26.2800,2.375
26.3200,2.307
26.3600,2.326
26.4000,2.315
26.4400,2.273
26.4800,2.316
26.5200,2.328
26.5600,2.263
26.6000,2.368
26.6400,2.455
26.6800,2.277
26.7200,2.294
26.7600,2.340
26.8000,2.359
26.8400,2.490
26.8800,2.654
26.9200,2.625
26.9600,2.593
27.0000,2.409
27.0400,2.241
27.0800,2.335
27.1200,2.209
27.1600,2.234
27.2000,2.223
27.2400,2.297
27.2800,2.188
27.3200,2.264
27.3600,2.173
27.4000,2.253
27.4400,2.160
27.4800,2.179
27.5200,2.259
27.5600,2.167
27.6000,2.198
27.6400,2.148
27.6800,2.179
27.7200,2.197
27.7600,2.203
27.8000,2.089
27.8400,2.218
27.8800,2.218
27.9200,2.172
27.9600,2.172
28.0000,2.162
28.0400,2.175
28.0800,2.175
28.1200,2.234
28.1600,2.210
28.2000,2.230
28.2400,2.150
28.2800,2.322
28.3200,2.206
28.3600,2.211
28.4000,2.249
28.4400,2.282
28.4800,2.295
28.5200,2.209
28.5600,2.308
28.6000,2.182
28.6400,2.208
28.6800,2.180
28.7200,2.243
28.7600,2.250
28.8000,2.233
28.8400,2.179
28.8800,2.140
28.9200,2.138
28.9600,2.077
29.0000,2.120
29.0400,2.164
29.0800,2.200
29.1200,2.197
29.1600,2.103
29.2000,2.070
29.2400,2.083
29.2800,1.998
29.3200,2.155
29.3600,2.074
29.4000,2.063
29.4400,2.095
29.4800,2.031
29.5200,2.065
29.5600,2.104
29.6000,2.015
29.6400,2.021
29.6800,2.093
29.7200,1.998
29.7600,2.052
29.8000,2.017
29.8400,1.967
29.8800,1.957
29.9200,2.012
29.9600,1.984
30.0000,1.902
30.0400,1.956
30.0800,1.975
30.1200,1.948
30.1600,1.945
30.2000,1.949
30.2400,1.994
30.2800,1.848
30.3200,1.887
30.3600,1.984
30.4000,2.041
30.4400,1.993
30.4800,1.957
30.5200,1.993
30.5600,1.995
30.6000,2.061
30.6400,2.036
30.6800,2.036
30.7200,1.909
30.7600,1.899
30.8000,1.941
30.8400,1.967
30.8800,1.907
30.9200,1.951
30.9600,1.813
31.0000,1.837
31.0400,1.882
31.0800,1.870
31.1200,1.870
31.1600,1.878
31.2000,1.918
31.2400,1.826
31.2800,1.920
31.3200,1.840
31.3600,1.863
31.4000,1.878
31.4400,1.965
31.4800,1.880
31.5200,1.906
31.5600,1.860
31.6000,1.916
31.6400,1.903
31.6800,1.846
31.7200,1.807
31.7600,1.864
31.8000,1.911
31.8400,1.969
31.8800,1.849
31.9200,1.831
31.9600,1.791
32.0000,1.806
32.0400,1.826
32.0800,1.845
32.1200,1.919
32.1600,1.884
32.2000,1.887
32.2400,1.864
32.2800,1.936
32.3200,1.988
32.3600,1.956
32.4000,1.921
32.4400,1.951
32.4800,2.026
32.5200,1.976
32.5600,2.035
32.6000,2.005
32.6400,2.110
32.6800,2.236
32.7200,2.377
32.7600,2.661
32.8000,2.957
32.8400,3.272
32.8800,3.787
32.9200,4.505
32.9600,5.428
33.0000,6.132
33.0400,6.887
33.0800,7.139
33.1200,6.985
33.1600,6.132
33.2000,5.295
33.2400,4.625
33.2800,3.786
33.3200,3.175
33.3600,2.800
33.4000,2.538
33.4400,2.398
33.4800,2.160
33.5200,2.201
33.5600,2.061
33.6000,1.989
33.6400,1.867
33.6800,1.867
33.7200,1.903
33.7600,1.850
33.8000,1.769
33.8400,1.814
33.8800,1.815
33.9200,1.809
33.9600,1.811
34.0000,1.742
34.0400,1.716
34.0800,1.723
34.1200,1.654
34.1600,1.776
34.2000,1.682
34.2400,1.724
34.2800,1.629
34.3200,1.688
34.3600,1.737
34.4000,1.643
34.4400,1.654
34.4800,1.676
34.5200,1.681
34.5600,1.654
34.6000,1.608
34.6400,1.737
34.6800,1.638
34.7200,1.619
34.7600,1.766
34.8000,1.663
34.8400,1.750
34.8800,1.669
34.9200,1.653
34.9600,1.592
35.0000,1.560
35.0400,1.639
35.0800,1.582
35.1200,1.724
35.1600,1.703
35.2000,1.692
35.2400,1.570
35.2800,1.599
35.3200,1.539
35.3600,1.599
35.4000,1.632
35.4400,1.593
35.4800,1.691
35.5200,1.779
35.5600,1.801
35.6000,1.765
35.6400,1.804
35.6800,1.678
35.7200,1.702
35.7600,1.641
35.8000,1.687
35.8400,1.596
35.8800,1.676
35.9200,1.591
35.9600,1.653
36.0000,1.644
36.0400,1.648
36.0800,1.619
36.1200,1.655
36.1600,1.584
36.2000,1.566
36.2400,1.666
36.2800,1.603
36.3200,1.642
36.3600,1.605
36.4000,1.625
36.4400,1.630
36.4800,1.629
36.5200,1.628
36.5600,1.627
36.6000,1.667
36.6400,1.665
36.6800,1.718
36.7200,1.696
36.7600,1.670
36.8000,1.667
36.8400,1.716
36.8800,1.706
36.9200,1.780
36.9600,1.843
37.0000,1.759
37.0400,1.880
37.0800,1.809
37.1200,1.866
37.1600,1.920
37.2000,1.982
37.2400,2.025
37.2800,2.107
37.3200,2.047
37.3600,2.182
37.4000,2.366
37.4400,2.642
37.4800,3.121
37.5200,3.676
37.5600,4.671
37.6000,6.555
37.6400,9.620
37.6800,12.698
37.7200,14.670
37.7600,15.588
37.8000,15.456
37.8400,14.530
37.8800,12.946
37.9200,11.428
37.9600,10.611
38.0000,9.462
38.0400,8.715
38.0800,8.178
38.1200,7.311
38.1600,7.039
38.2000,6.779
38.2400,7.147
38.2800,8.746
38.3200,11.163
38.3600,12.636
38.4000,11.761
38.4400,10.160
38.4800,8.425
38.5200,6.335
38.5600,4.707
38.6000,3.824
38.6400,3.328
38.6800,2.925
38.7200,2.651
38.7600,2.375
38.8000,2.264
38.8400,2.209
38.8800,2.155
38.9200,2.139
38.9600,2.216
39.0000,2.205
39.0400,2.157
39.0800,2.148
39.1200,2.047
39.1600,1.919
39.2000,1.796
39.2400,1.837
39.2800,1.862
39.3200,1.780
39.3600,1.818
39.4000,1.713
39.4400,1.725
39.4800,1.740
39.5200,1.649
39.5600,1.559
39.6000,1.542
39.6400,1.600
39.6800,1.518
39.7200,1.538
39.7600,1.531
39.8000,1.526
39.8400,1.595
39.8800,1.570
39.9200,1.498
39.9600,1.548
40.0000,1.382
40.0400,1.494
40.0800,1.511
40.1200,1.569
40.1600,1.518
40.2000,1.502
40.2400,1.472
40.2800,1.532
40.3200,1.573
40.3600,1.557
40.4000,1.578
40.4400,1.506
40.4800,1.422
40.5200,1.429
40.5600,1.441
40.6000,1.418
40.6400,1.443
40.6800,1.428
40.7200,1.447
40.7600,1.337
40.8000,1.349
40.8400,1.397
40.8800,1.336
40.9200,1.348
40.9600,1.367
41.0000,1.386
41.0400,1.308
41.0800,1.423
41.1200,1.353
41.1600,1.382
41.2000,1.378
41.2400,1.378
41.2800,1.347
41.3200,1.296
41.3600,1.323
41.4000,1.388
41.4400,1.340
41.4800,1.297
41.5200,1.361
41.5600,1.290
41.6000,1.363
41.6400,1.300
41.6800,1.259
41.7200,1.323
41.7600,1.335
41.8000,1.369
41.8400,1.287
41.8800,1.301
41.9200,1.281
41.9600,1.299
42.0000,1.299
42.0400,1.270
42.0800,1.288
42.1200,1.316
42.1600,1.286
42.2000,1.279
42.2400,1.333
42.2800,1.278
42.3200,1.264
42.3600,1.229
42.4000,1.336
42.4400,1.308
42.4800,1.276
42.5200,1.378
42.5600,1.323
42.6000,1.309
42.6400,1.258
42.6800,1.246
42.7200,1.292
42.7600,1.264
42.8000,1.304
42.8400,1.317
42.8800,1.371
42.9200,1.262
42.9600,1.305
43.0000,1.320
43.0400,1.339
43.0800,1.379
43.1200,1.396
43.1600,1.327
43.2000,1.442
43.2400,1.421
43.2800,1.517
43.3200,1.520
43.3600,1.553
43.4000,1.608
43.4400,1.673
43.4800,1.848
43.5200,1.939
43.5600,2.159
43.6000,2.382
43.6400,2.751
43.6800,3.107
43.7200,3.542
43.7600,4.177
43.8000,4.687
43.8400,5.140
43.8800,5.412
43.9200,5.442
43.9600,5.352
44.0000,5.077
44.0400,4.840
44.0800,4.474
44.1200,4.163
44.1600,3.805
44.2000,3.610
44.2400,3.180
44.2800,2.954
44.3200,2.710
44.3600,2.394
44.4000,2.215
44.4400,1.905
44.4800,1.682
44.5200,1.613
44.5600,1.494
44.6000,1.400
44.6400,1.307
44.6800,1.278
44.7200,1.271
44.7600,1.285
44.8000,1.256
44.8400,1.262
44.8800,1.191
44.9200,1.097
44.9600,1.135
45.0000,1.155
45.0400,1.096
45.0800,1.128
45.1200,1.101
45.1600,1.103
45.2000,1.108
45.2400,1.105
45.2800,1.184
45.3200,1.089
45.3600,1.103
45.4000,1.087
45.4400,1.050
45.4800,1.128
45.5200,1.035
45.5600,1.068
45.6000,1.118
45.6400,1.048
45.6800,1.076
45.7200,1.051
45.7600,1.121
45.8000,1.026
45.8400,1.010
45.8800,1.027
45.9200,1.072
45.9600,1.041
46.0000,0.985
46.0400,1.041
46.0800,1.055
46.1200,1.054
46.1600,1.005
46.2000,1.042
46.2400,1.012
46.2800,1.018
46.3200,1.051
46.3600,1.009
46.4000,1.039
46.4400,0.968
46.4800,1.017
46.5200,1.030
46.5600,0.983
46.6000,1.044
46.6400,0.990
46.6800,0.987
46.7200,0.956
46.7600,0.973
46.8000,0.920
46.8400,0.919
46.8800,0.980
46.9200,0.988
46.9600,1.007
47.0000,0.906
47.0400,0.972
47.0800,0.930
47.1200,0.966
47.1600,0.920
47.2000,1.008
47.2400,1.002
47.2800,0.946
47.3200,0.980
47.3600,0.986
47.4000,0.986
47.4400,0.978
47.4800,1.022
47.5200,1.005
47.5600,0.985
47.6000,0.994
47.6400,0.952
47.6800,0.971
47.7200,0.954
47.7600,0.939
47.8000,0.933
47.8400,0.940
47.8800,0.918
47.9200,0.929
47.9600,0.883
48.0000,0.938
48.0400,0.930
48.0800,0.921
48.1200,0.935
48.1600,0.967
48.2000,0.925
48.2400,0.943
48.2800,0.914
48.3200,0.934
48.3600,0.899
48.4000,0.956
48.4400,0.901
48.4800,0.915
48.5200,0.920
48.5600,0.890
48.6000,0.903
48.6400,0.906
48.6800,0.940
48.7200,0.866
48.7600,0.933
48.8000,0.973
48.8400,0.887
48.8800,0.918
48.9200,0.886
48.9600,0.885
49.0000,0.950
49.0400,0.888
49.0800,0.905
49.1200,0.936
49.1600,0.867
49.2000,0.935
49.2400,0.930
49.2800,0.920
49.3200,0.868
49.3600,0.869
49.4000,0.888
49.4400,0.896
49.4800,0.925
49.5200,0.953
49.5600,0.971
49.6000,0.861
49.6400,0.826
49.6800,0.895
49.7200,0.850
49.7600,0.903
49.8000,0.946
49.8400,0.884
49.8800,0.832
49.9200,0.917
49.9600,0.927
50.0000,0.894
50.0400,0.859
50.0800,0.872
50.1200,0.833
50.1600,0.852
50.2000,0.919
50.2400,0.824
50.2800,0.893
50.3200,0.849
50.3600,0.853
50.4000,0.890
50.4400,0.806
50.4800,0.823
50.5200,0.841
50.5600,0.841
50.6000,0.810
50.6400,0.831
50.6800,0.834
50.7200,0.888
50.7600,0.825
50.8000,0.811
50.8400,0.845
50.8800,0.795
50.9200,0.835
50.9600,0.801
51.0000,0.845
51.0400,0.833
51.0800,0.834
51.1200,0.792
51.1600,0.894
51.2000,0.823
51.2400,0.865
51.2800,0.892
51.3200,0.850
51.3600,0.761
51.4000,0.813
51.4400,0.794
51.4800,0.801
51.5200,0.815
51.5600,0.817
51.6000,0.840
51.6400,0.828
51.6800,0.859
51.7200,0.804
51.7600,0.781
51.8000,0.857
51.8400,0.878
51.8800,0.809
51.9200,0.798
51.9600,0.820
52.0000,0.822
52.0400,0.792
52.0800,0.749
52.1200,0.783
52.1600,0.806
52.2000,0.866
52.2400,0.793
52.2800,0.799
52.3200,0.798
52.3600,0.742
52.4000,0.799
52.4400,0.787
52.4800,0.834
52.5200,0.834
52.5600,0.838
52.6000,0.832
52.6400,0.766
52.6800,0.826
52.7200,0.771
52.7600,0.761
52.8000,0.825
52.8400,0.784
52.8800,0.792
52.9200,0.772
52.9600,0.798
53.0000,0.772
53.0400,0.784
53.0800,0.781
53.1200,0.844
53.1600,0.853
53.2000,0.713
53.2400,0.721
53.2800,0.755
53.3200,0.789
53.3600,0.790
53.4000,0.718
53.4400,0.733
53.4800,0.745
53.5200,0.769
53.5600,0.749
53.6000,0.761
53.6400,0.819
53.6800,0.733
53.7200,0.794
53.7600,0.739
53.8000,0.787
53.8400,0.827
53.8800,0.785
53.9200,0.833
53.9600,0.801
54.0000,0.850
54.0400,0.765
54.0800,0.812
54.1200,0.790
54.1600,0.773
54.2000,0.809
54.2400,0.781
54.2800,0.727
54.3200,0.775
54.3600,0.789
54.4000,0.751
54.4400,0.797
54.4800,0.783
54.5200,0.850
54.5600,0.737
54.6000,0.885
54.6400,0.818
54.6800,0.864
54.7200,0.816
54.7600,0.845
54.8000,0.919
54.8400,0.888
54.8800,0.988
54.9200,0.913
54.9600,1.139
55.0000,1.177
55.0400,1.271
55.0800,1.450
55.1200,1.581
55.1600,1.862
55.2000,2.200
55.2400,2.380
55.2800,2.688
55.3200,2.819
55.3600,2.893
55.4000,2.784
55.4400,2.630
55.4800,2.433
55.5200,2.127
55.5600,1.890
55.6000,1.755
55.6400,1.447
55.6800,1.265
55.7200,1.191
55.7600,1.092
55.8000,1.032
55.8400,0.922
55.8800,0.899
55.9200,0.856
55.9600,0.857
56.0000,0.786
56.0400,0.798
56.0800,0.805
56.1200,0.804
56.1600,0.744
56.2000,0.724
56.2400,0.744
56.2800,0.743
56.3200,0.697
56.3600,0.744
56.4000,0.747
56.4400,0.750
56.4800,0.682
56.5200,0.697
56.5600,0.705
56.6000,0.706
56.6400,0.765
56.6800,0.732
56.7200,0.723
56.7600,0.699
56.8000,0.683
56.8400,0.718
56.8800,0.714
56.9200,0.687
56.9600,0.663
57.0000,0.693
57.0400,0.690
57.0800,0.689
57.1200,0.660
57.1600,0.634
57.2000,0.614
57.2400,0.609
57.2800,0.683
57.3200,0.699
57.3600,0.644
57.4000,0.668
57.4400,0.679
57.4800,0.633
57.5200,0.630
57.5600,0.665
57.6000,0.666
57.6400,0.634
57.6800,0.648
57.7200,0.681
57.7600,0.639
57.8000,0.672
57.8400,0.604
57.8800,0.682
57.9200,0.676
57.9600,0.570
58.0000,0.624
58.0400,0.647
58.0800,0.614
58.1200,0.651
58.1600,0.628
58.2000,0.675
58.2400,0.679
58.2800,0.662
58.3200,0.674
58.3600,0.648
58.4000,0.644
58.4400,0.619
58.4800,0.597
58.5200,0.650
58.5600,0.623
58.6000,0.652
58.6400,0.629
58.6800,0.602
58.7200,0.647
58.7600,0.655
58.8000,0.674
58.8400,0.636
58.8800,0.683
58.9200,0.605
58.9600,0.620
59.0000,0.611
59.0400,0.611
59.0800,0.608
59.1200,0.614
59.1600,0.647
59.2000,0.587
59.2400,0.636
59.2800,0.655
59.3200,0.582
59.3600,0.604
59.4000,0.632
59.4400,0.587
59.4800,0.595
59.5200,0.625
59.5600,0.614
59.6000,0.553
59.6400,0.599
59.6800,0.614
59.7200,0.575
59.7600,0.537
59.8000,0.622
59.8400,0.586
59.8800,0.579
59.9200,0.560
59.9600,0.554
60.0000,0.608
60.0400,0.567
60.0800,0.586
60.1200,0.588
60.1600,0.615
60.2000,0.603
60.2400,0.581
60.2800,0.580
60.3200,0.594
60.3600,0.622
60.4000,0.559
60.4400,0.545
60.4800,0.573
60.5200,0.583
60.5600,0.591
60.6000,0.579
60.6400,0.604
60.6800,0.565
60.7200,0.526
60.7600,0.599
60.8000,0.580
60.8400,0.582
60.8800,0.522
60.9200,0.584
60.9600,0.635
61.0000,0.549
61.0400,0.563
61.0800,0.579
61.1200,0.567
61.1600,0.607
61.2000,0.587
61.2400,0.549
61.2800,0.595
61.3200,0.533
61.3600,0.551
61.4000,0.577
61.4400,0.580
61.4800,0.553
61.5200,0.560
61.5600,0.568
61.6000,0.584
61.6400,0.558
61.6800,0.569
61.7200,0.558
61.7600,0.560
61.8000,0.568
61.8400,0.568
61.8800,0.563
61.9200,0.566
61.9600,0.557
62.0000,0.537
62.0400,0.555
62.0800,0.578
62.1200,0.568
62.1600,0.567
62.2000,0.575
62.2400,0.578
62.2800,0.559
62.3200,0.567
62.3600,0.573
62.4000,0.594
62.4400,0.607
62.4800,0.572
62.5200,0.625
62.5600,0.617
62.6000,0.609
62.6400,0.619
62.6800,0.612
62.7200,0.615
62.7600,0.584
62.8000,0.608
62.8400,0.559
62.8800,0.578
62.9200,0.626
62.9600,0.605
63.0000,0.572
63.0400,0.604
63.0800,0.625
63.1200,0.670
63.1600,0.679
63.2000,0.654
63.2400,0.701
63.2800,0.715
63.3200,0.722
63.3600,0.813
63.4000,0.874
63.4400,0.960
63.4800,1.178
63.5200,1.398
63.5600,1.565
63.6000,1.803
63.6400,2.026
63.6800,2.209
63.7200,2.269
63.7600,2.308
63.8000,2.353
63.8400,2.384
63.8800,2.154
63.9200,2.034
63.9600,2.019
64.0000,1.971
64.0400,1.874
64.0800,1.670
64.1200,1.565
64.1600,1.566
64.2000,1.449
64.2400,1.347
64.2800,1.242
64.3200,1.163
64.3600,1.155
64.4000,1.123
64.4400,0.982
64.4800,0.961
64.5200,0.871
64.5600,0.838
64.6000,0.779
64.6400,0.755
64.6800,0.763
64.7200,0.719
64.7600,0.613
64.8000,0.634
64.8400,0.629
64.8800,0.613
64.9200,0.630
64.9600,0.654
65.0000,0.579
65.0400,0.578
65.0800,0.601
65.1200,0.586
65.1600,0.564
65.2000,0.624
65.2400,0.591
65.2800,0.574
65.3200,0.620
65.3600,0.625
65.4000,0.629
65.4400,0.627
65.4800,0.671
65.5200,0.682
65.5600,0.705
65.6000,0.803
65.6400,0.861
65.6800,0.867
65.7200,0.954
65.7600,1.023
65.8000,0.978
65.8400,1.219
65.8800,1.301
65.9200,1.389
65.9600,1.370
66.0000,1.382
66.0400,1.338
66.0800,1.273
66.1200,1.182
66.1600,1.151
66.2000,1.047
66.2400,0.900
66.2800,0.954
66.3200,0.793
66.3600,0.789
66.4000,0.695
66.4400,0.670
66.4800,0.625
66.5200,0.635
66.5600,0.630
66.6000,0.594
66.6400,0.629
66.6800,0.542
66.7200,0.602
66.7600,0.533
66.8000,0.528
66.8400,0.513
66.8800,0.544
66.9200,0.515
66.9600,0.521
67.0000,0.531
67.0400,0.481
67.0800,0.511
67.1200,0.483
67.1600,0.514
67.2000,0.472
67.2400,0.505
67.2800,0.491
67.3200,0.486
67.3600,0.488
67.4000,0.474
67.4400,0.499
67.4800,0.492
67.5200,0.443
67.5600,0.450
67.6000,0.512
67.6400,0.461
67.6800,0.456
67.7200,0.482
67.7600,0.470
67.8000,0.442
67.8400,0.465
67.8800,0.451
67.9200,0.455
67.9600,0.517
68.0000,0.478
68.0400,0.459
68.0800,0.526
68.1200,0.463
68.1600,0.495
68.2000,0.512
68.2400,0.485
68.2800,0.500
68.3200,0.485
68.3600,0.492
68.4000,0.449
68.4400,0.493
68.4800,0.546
68.5200,0.471
68.5600,0.514
68.6000,0.462
68.6400,0.558
68.6800,0.481
68.7200,0.505
68.7600,0.478
68.8000,0.560
68.8400,0.543
68.8800,0.560
68.9200,0.633
68.9600,0.677
69.0000,0.694
69.0400,0.733
69.0800,0.832
69.1200,0.923
69.1600,1.110
69.2000,1.298
69.2400,1.493
69.2800,1.605
69.3200,1.604
69.3600,1.520
69.4000,1.359
69.4400,1.404
69.4800,1.225
69.5200,1.176
69.5600,1.032
69.6000,0.863
69.6400,0.730
69.6800,0.666
69.7200,0.614
69.7600,0.627
69.8000,0.570
69.8400,0.611
69.8800,0.518
69.9200,0.495
69.9600,0.492
70.0000,0.513
70.0400,0.536
70.0800,0.464
70.1200,0.464
70.1600,0.484
70.2000,0.431
70.2400,0.449
70.2800,0.432
70.3200,0.435
70.3600,0.418
70.4000,0.394
70.4400,0.451
70.4800,0.419
70.5200,0.419
70.5600,0.449
70.6000,0.430
70.6400,0.441
70.6800,0.413
70.7200,0.420
70.7600,0.407
70.8000,0.443
70.8400,0.403
70.8800,0.371
70.9200,0.419
70.9600,0.393
71.0000,0.369
71.0400,0.372
71.0800,0.433
71.1200,0.397
71.1600,0.434
71.2000,0.408
71.2400,0.412
71.2800,0.378
71.3200,0.426
71.3600,0.428
71.4000,0.424
71.4400,0.422
71.4800,0.381
71.5200,0.443
71.5600,0.401
71.6000,0.404
71.6400,0.445
71.6800,0.454
71.7200,0.414
71.7600,0.406
71.8000,0.421
71.8400,0.377
71.8800,0.404
71.9200,0.394
71.9600,0.422
72.0000,0.414
72.0400,0.415
72.0800,0.396
72.1200,0.411
72.1600,0.394
72.2000,0.419
72.2400,0.406
72.2800,0.386
72.3200,0.374
72.3600,0.449
72.4000,0.390
72.4400,0.381
72.4800,0.354
72.5200,0.389
72.5600,0.411
72.6000,0.398
72.6400,0.343
72.6800,0.341
72.7200,0.379
72.7600,0.418
72.8000,0.438
72.8400,0.367
72.8800,0.384
72.9200,0.388
72.9600,0.417
73.0000,0.382
73.0400,0.371
73.0800,0.358
73.1200,0.417
73.1600,0.402
73.2000,0.375
73.2400,0.364
73.2800,0.425
73.3200,0.387
73.3600,0.400
73.4000,0.374
73.4400,0.420
73.4800,0.372
73.5200,0.372
73.5600,0.352
73.6000,0.385
73.6400,0.358
73.6800,0.364
73.7200,0.391
73.7600,0.384
73.8000,0.364
73.8400,0.399
73.8800,0.390
73.9200,0.392
73.9600,0.398
74.0000,0.379
74.0400,0.391
74.0800,0.379
74.1200,0.412
74.1600,0.395
74.2000,0.439
74.2400,0.396
74.2800,0.420
74.3200,0.382
74.3600,0.389
74.4000,0.353
74.4400,0.354
74.4800,0.406
74.5200,0.389
74.5600,0.392
74.6000,0.419
74.6400,0.391
74.6800,0.400
74.7200,0.359
74.7600,0.369
74.8000,0.387
74.8400,0.439
74.8800,0.376
74.9200,0.388
74.9600,0.368
75.0000,0.409
75.0400,0.393
75.0800,0.399
75.1200,0.365
75.1600,0.375
75.2000,0.356
75.2400,0.395
75.2800,0.399
75.3200,0.370
75.3600,0.397
75.4000,0.419
75.4400,0.445
75.4800,0.406
75.5200,0.393
75.5600,0.419
75.6000,0.413
75.6400,0.478
75.6800,0.458
75.7200,0.483
75.7600,0.485
75.8000,0.455
75.8400,0.514
75.8800,0.552
75.9200,0.562
75.9600,0.561
76.0000,0.598
76.0400,0.670
76.0800,0.741
76.1200,0.830
76.1600,0.878
76.2000,1.070
76.2400,1.197
76.2800,1.428
76.3200,1.546
76.3600,1.490
76.4000,1.761
76.4400,1.760
76.4800,1.811
76.5200,1.862
76.5600,1.796
76.6000,1.839
76.6400,1.724
76.6800,1.698
76.7200,1.666
76.7600,1.544
76.8000,1.505
76.8400,1.430
76.8800,1.424
76.9200,1.255
76.9600,1.170
77.0000,1.141
77.0400,1.107
77.0800,1.016
77.1200,1.029
77.1600,0.946
77.2000,0.945
77.2400,0.905
77.2800,0.856
77.3200,0.795
77.3600,0.769
77.4000,0.730
77.4400,0.717
77.4800,0.640
77.5200,0.650
77.5600,0.609
77.6000,0.572
77.6400,0.494
77.6800,0.510
77.7200,0.480
77.7600,0.485
77.8000,0.467
77.8400,0.441
77.8800,0.427
77.9200,0.400
77.9600,0.393
78.0000,0.388
78.0400,0.370
78.0800,0.412
78.1200,0.368
78.1600,0.364
78.2000,0.395
78.2400,0.408
78.2800,0.399
78.3200,0.351
78.3600,0.394
78.4000,0.386
78.4400,0.352
78.4800,0.410
78.5200,0.352
78.5600,0.374
78.6000,0.396
78.6400,0.396
78.6800,0.344
78.7200,0.329
78.7600,0.389
78.8000,0.388
78.8400,0.378
78.8800,0.368
78.9200,0.368
78.9600,0.338
79.0000,0.348
79.0400,0.378
79.0800,0.350
79.1200,0.364
79.1600,0.363
79.2000,0.348
79.2400,0.371
79.2800,0.364
79.3200,0.356
79.3600,0.362
79.4000,0.329
79.4400,0.354
79.4800,0.336
79.5200,0.347
79.5600,0.359
79.6000,0.342
79.6400,0.365
79.6800,0.355
79.7200,0.350
79.7600,0.368
79.8000,0.361
79.8400,0.395
79.8800,0.361
79.9200,0.380
79.9600,0.386
80.0000,0.393
