theta,intensity
5.0000,1.748
5.0400,2.161
5.0800,2.220
5.1200,2.028
5.1600,2.013
5.2000,2.007
5.2400,2.056
5.2800,2.074
5.3200,1.963
5.3600,2.007
5.4000,2.043
5.4400,1.972
5.4800,2.036
5.5200,1.990
5.5600,1.966
5.6000,1.990
5.6400,1.955
5.6800,1.966
5.7200,1.985
5.7600,2.012
5.8000,1.943
5.8400,1.943
5.8800,1.886
5.9200,1.833
5.9600,1.899
6.0000,1.880
6.0400,1.851
6.0800,1.838
6.1200,1.858
6.1600,1.857
6.2000,1.828
6.2400,1.779
6.2800,1.793
6.3200,1.779
6.3600,1.782
6.4000,1.815
6.4400,1.767
6.4800,1.772
6.5200,1.688
6.5600,1.735
6.6000,1.707
6.6400,1.660
6.6800,1.596
6.7200,1.681
6.7600,1.631
6.8000,1.619
6.8400,1.634
6.8800,1.634
6.9200,1.623
6.9600,1.652
7.0000,1.512
7.0400,1.626
7.0800,1.574
7.1200,1.582
7.1600,1.507
7.2000,1.544
7.2400,1.538
7.2800,1.509
7.3200,1.517
7.3600,1.514
7.4000,1.555
7.4400,1.493
7.4800,1.502
7.5200,1.523
7.5600,1.502
7.6000,1.483
7.6400,1.433
7.6800,1.472
7.7200,1.454
7.7600,1.488
7.8000,1.463
7.8400,1.476
7.8800,1.528
7.9200,1.458
7.9600,1.429
8.0000,1.421
8.0400,1.443
8.0800,1.405
8.1200,1.433
8.1600,1.452
8.2000,1.406
8.2400,1.414
8.2800,1.417
8.3200,1.434
8.3600,1.404
8.4000,1.442
8.4400,1.454
8.4800,1.458
8.5200,1.457
8.5600,1.436
8.6000,1.406
8.6400,1.442
8.6800,1.430
8.7200,1.453
8.7600,1.386
8.8000,1.387
8.8400,1.401
8.8800,1.391
8.9200,1.422
8.9600,1.365
9.0000,1.401
9.0400,1.378
9.0800,1.407
9.1200,1.366
9.1600,1.378
9.2000,1.403
9.2400,1.387
9.2800,1.349
9.3200,1.390
9.3600,1.382
9.4000,1.371
9.4400,1.361
9.4800,1.405
9.5200,1.412
9.5600,1.365
9.6000,1.409
9.6400,1.360
9.6800,1.378
9.7200,1.358
9.7600,1.404
9.8000,1.379
9.8400,1.385
9.8800,1.396
9.9200,1.399
9.9600,1.376
10.0000,1.323
10.0400,1.313
10.0800,1.322
10.1200,1.428
10.1600,1.370
10.2000,1.393
10.2400,1.336
10.2800,1.391
10.3200,1.362
10.3600,1.340
10.4000,1.336
10.4400,1.366
10.4800,1.334
10.5200,1.315
10.5600,1.306
10.6000,1.359
10.6400,1.347
10.6800,1.366
10.7200,1.341
10.7600,1.330
10.8000,1.347
10.8400,1.327
10.8800,1.346
10.9200,1.332
10.9600,1.332
11.0000,1.310
11.0400,1.335
11.0800,1.371
11.1200,1.307
11.1600,1.335
11.2000,1.325
11.2400,1.326
11.2800,1.350
11.3200,1.298
11.3600,1.333
11.4000,1.278
11.4400,1.345
11.4800,1.314
11.5200,1.297
11.5600,1.374
11.6000,1.372
11.6400,1.299
11.6800,1.303
11.7200,1.351
11.7600,1.335
11.8000,1.318
11.8400,1.298
11.8800,1.314
11.9200,1.344
11.9600,1.290
12.0000,1.269
12.0400,1.255
12.0800,1.280
12.1200,1.289
12.1600,1.276
12.2000,1.323
12.2400,1.331
12.2800,1.285
12.3200,1.328
12.3600,1.317
12.4000,1.272
12.4400,1.284
12.4800,1.252
12.5200,1.319
12.5600,1.282
12.6000,1.308
12.6400,1.256
12.6800,1.262
12.7200,1.284
12.7600,1.271
12.8000,1.241
12.8400,1.279
12.8800,1.263
12.9200,1.291
12.9600,1.275
13.0000,1.309
13.0400,1.300
13.0800,1.297
13.1200,1.248
13.1600,1.249
13.2000,1.287
13.2400,1.256
13.2800,1.278
13.3200,1.206
13.3600,1.239
13.4000,1.301
13.4400,1.239
13.4800,1.221
13.5200,1.246
13.5600,1.319
13.6000,1.247
13.6400,1.241
13.6800,1.225
13.7200,1.230
13.7600,1.264
13.8000,1.243
13.8400,1.250
13.8800,1.240
13.9200,1.223
13.9600,1.185
14.0000,1.174
14.0400,1.198
14.0800,1.194
14.1200,1.205
14.1600,1.234
14.2000,1.288
14.2400,1.235
14.2800,1.242
14.3200,1.229
14.3600,1.233
14.4000,1.218
14.4400,1.220
14.4800,1.229
14.5200,1.190
14.5600,1.203
14.6000,1.187
14.6400,1.241
14.6800,1.188
14.7200,1.238
14.7600,1.227
14.8000,1.196
14.8400,1.231
14.8800,1.212
14.9200,1.186
14.9600,1.196
15.0000,1.200
15.0400,1.183
15.0800,1.200
15.1200,1.182
15.1600,1.196
15.2000,1.186
15.2400,1.174
15.2800,1.187
15.3200,1.226
15.3600,1.175
15.4000,1.175
15.4400,1.186
15.4800,1.169
15.5200,1.196
15.5600,1.198
15.6000,1.226
15.6400,1.218
15.6800,1.229
15.7200,1.178
15.7600,1.182
15.8000,1.177
15.8400,1.192
15.8800,1.205
15.9200,1.200
15.9600,1.202
16.0000,1.232
16.0400,1.174
16.0800,1.170
16.1200,1.162
16.1600,1.214
16.2000,1.180
16.2400,1.197
16.2800,1.164
16.3200,1.163
16.3600,1.188
16.4000,1.161
16.4400,1.101
16.4800,1.173
16.5200,1.161
16.5600,1.161
16.6000,1.156
16.6400,1.185
16.6800,1.210
16.7200,1.166
16.7600,1.167
16.8000,1.119
16.8400,1.191
16.8800,1.167
16.9200,1.149
16.9600,1.168
17.0000,1.128
17.0400,1.155
17.0800,1.130
17.1200,1.141
17.1600,1.183
17.2000,1.137
17.2400,1.159
17.2800,1.164
17.3200,1.170
17.3600,1.168
17.4000,1.147
17.4400,1.175
17.4800,1.123
17.5200,1.164
17.5600,1.152
17.6000,1.151
17.6400,1.157
17.6800,1.175
17.7200,1.155
17.7600,1.163
17.8000,1.104
17.8400,1.189
17.8800,1.162
17.9200,1.121
17.9600,1.168
18.0000,1.122
18.0400,1.114
18.0800,1.160
18.1200,1.145
18.1600,1.128
18.2000,1.089
18.2400,1.146
18.2800,1.173
18.3200,1.108
18.3600,1.108
18.4000,1.120
18.4400,1.160
18.4800,1.115
18.5200,1.137
18.5600,1.169
18.6000,1.127
18.6400,1.133
18.6800,1.080
18.7200,1.099
18.7600,1.094
18.8000,1.101
18.8400,1.112
18.8800,1.108
18.9200,1.114
18.9600,1.118
19.0000,1.163
19.0400,1.104
19.0800,1.069
19.1200,1.129
19.1600,1.154
19.2000,1.167
19.2400,1.107
19.2800,1.134
19.3200,1.181
19.3600,1.115
19.4000,1.123
19.4400,1.125
19.4800,1.127
19.5200,1.129
19.5600,1.121
19.6000,1.098
19.6400,1.143
19.6800,1.125
19.7200,1.114
19.7600,1.110
19.8000,1.113
19.8400,1.148
19.8800,1.114
19.9200,1.096
19.9600,1.104
20.0000,1.079
20.0400,1.122
20.0800,1.132
20.1200,1.154
20.1600,1.112
20.2000,1.062
20.2400,1.069
20.2800,1.072
20.3200,1.119
20.3600,1.112
20.4000,1.083
20.4400,1.067
20.4800,1.081
20.5200,1.052
20.5600,1.055
20.6000,1.074
20.6400,1.112
20.6800,1.083
20.7200,1.073
20.7600,1.069
20.8000,1.057
20.8400,1.082
20.8800,1.117
20.9200,1.097
20.9600,1.090
21.0000,1.095
21.0400,1.077
21.0800,1.069
21.1200,1.024
21.1600,1.078
21.2000,1.066
21.2400,1.094
21.2800,1.097
21.3200,1.096
21.3600,1.083
21.4000,1.101
21.4400,1.062
21.4800,1.026
21.5200,1.016
21.5600,1.074
21.6000,1.015
21.6400,1.037
21.6800,1.052
21.7200,1.090
21.7600,1.050
21.8000,1.090
21.8400,1.102
21.8800,1.054
21.9200,1.044
21.9600,1.010
22.0000,1.027
22.0400,0.987
22.0800,1.025
22.1200,1.041
22.1600,0.997
22.2000,1.009
22.2400,1.005
22.2800,1.035
22.3200,1.005
22.3600,1.019
22.4000,1.049
22.4400,1.055
22.4800,1.002
22.5200,0.977
22.5600,1.027
22.6000,1.065
22.6400,0.979
22.6800,1.002
22.7200,0.985
22.7600,1.002
22.8000,1.017
22.8400,1.002
22.8800,0.982
22.9200,1.012
22.9600,1.013
23.0000,0.971
23.0400,0.991
23.0800,0.974
23.1200,1.009
23.1600,0.974
23.2000,0.988
23.2400,0.966
23.2800,0.978
23.3200,0.990
23.3600,0.981
23.4000,0.983
23.4400,0.998
23.4800,1.012
23.5200,0.927
23.5600,0.944
23.6000,0.923
23.6400,0.932
23.6800,0.946
23.7200,0.969
23.7600,0.973
23.8000,0.958
23.8400,0.946
23.8800,0.977
23.9200,0.961
23.9600,1.027
24.0000,1.039
24.0400,1.102
24.0800,1.137
24.1200,1.197
24.1600,1.320
24.2000,1.367
24.2400,1.455
24.2800,1.496
24.3200,1.486
24.3600,1.461
24.4000,1.412
24.4400,1.367
24.4800,1.303
24.5200,1.258
24.5600,1.170
24.6000,1.081
24.6400,1.103
24.6800,1.027
24.7200,0.971
24.7600,1.036
24.8000,0.979
24.8400,0.922
24.8800,0.939
24.9200,0.929
24.9600,0.940
25.0000,0.897
25.0400,0.885
25.0800,0.912
25.1200,0.875
25.1600,0.887
25.2000,0.888
25.2400,0.866
25.2800,0.871
25.3200,0.883
25.3600,0.896
25.4000,0.861
25.4400,0.883
25.4800,0.847
25.5200,0.850
25.5600,0.857
25.6000,0.862
25.6400,0.878
25.6800,0.901
25.7200,0.837
25.7600,0.865
25.8000,0.880
25.8400,0.833
25.8800,0.824
25.9200,0.818
25.9600,0.799
26.0000,0.821
26.0400,0.803
26.0800,0.821
26.1200,0.869
26.1600,0.808
26.2000,0.812
26.2400,0.847
26.2800,0.831
26.3200,0.801
26.3600,0.814
26.4000,0.785
26.4400,0.811
26.4800,0.810
26.5200,0.841
26.5600,0.804
26.6000,0.801
26.6400,0.774
26.6800,0.777
26.7200,0.802
26.7600,0.793
26.8000,0.789
26.8400,0.784
26.8800,0.754
26.9200,0.758
26.9600,0.790
27.0000,0.779
27.0400,0.784
27.0800,0.802
27.1200,0.741
27.1600,0.758
27.2000,0.751
27.2400,0.760
27.2800,0.766
27.3200,0.779
27.3600,0.752
27.4000,0.742
27.4400,0.745
27.4800,0.763
27.5200,0.734
27.5600,0.741
27.6000,0.743
27.6400,0.751
27.6800,0.775
27.7200,0.744
27.7600,0.748
27.8000,0.755
27.8400,0.747
27.8800,0.759
27.9200,0.736
27.9600,0.721
28.0000,0.713
28.0400,0.747
28.0800,0.721
28.1200,0.708
28.1600,0.726
28.2000,0.710
28.2400,0.720
28.2800,0.684
28.3200,0.746
28.3600,0.772
28.4000,0.737
28.4400,0.721
28.4800,0.739
28.5200,0.689
28.5600,0.739
28.6000,0.731
28.6400,0.744
28.6800,0.719
28.7200,0.712
28.7600,0.731
28.8000,0.711
28.8400,0.717
28.8800,0.706
28.9200,0.768
28.9600,0.725
29.0000,0.758
29.0400,0.780
29.0800,0.758
29.1200,0.784
29.1600,0.767
29.2000,0.807
29.2400,0.813
29.2800,0.881
29.3200,1.000
29.3600,1.144
29.4000,1.348
29.4400,1.591
29.4800,1.869
29.5200,1.918
29.5600,1.870
29.6000,1.669
29.6400,1.360
29.6800,1.139
29.7200,0.966
29.7600,0.872
29.8000,0.771
29.8400,0.775
29.8800,0.768
29.9200,0.722
29.9600,0.710
30.0000,0.708
30.0400,0.661
30.0800,0.664
30.1200,0.690
30.1600,0.665
30.2000,0.706
30.2400,0.656
30.2800,0.657
30.3200,0.640
30.3600,0.671
30.4000,0.646
30.4400,0.681
30.4800,0.637
30.5200,0.649
30.5600,0.627
30.6000,0.680
30.6400,0.678
30.6800,0.650
30.7200,0.677
30.7600,0.621
30.8000,0.635
30.8400,0.642
30.8800,0.639
30.9200,0.624
30.9600,0.642
31.0000,0.638
31.0400,0.622
31.0800,0.659
31.1200,0.666
31.1600,0.655
31.2000,0.634
31.2400,0.629
31.2800,0.635
31.3200,0.606
31.3600,0.590
31.4000,0.626
31.4400,0.630
31.4800,0.640
31.5200,0.613
31.5600,0.618
31.6000,0.645
31.6400,0.653
31.6800,0.606
31.7200,0.619
31.7600,0.591
31.8000,0.609
31.8400,0.622
31.8800,0.610
31.9200,0.618
31.9600,0.604
32.0000,0.580
32.0400,0.567
32.0800,0.589
32.1200,0.618
32.1600,0.622
32.2000,0.593
32.2400,0.589
32.2800,0.614
32.3200,0.588
32.3600,0.596
32.4000,0.603
32.4400,0.595
32.4800,0.585
32.5200,0.585
32.5600,0.627
32.6000,0.582
32.6400,0.625
32.6800,0.598
32.7200,0.596
32.7600,0.587
32.8000,0.548
32.8400,0.582
32.8800,0.585
32.9200,0.582
32.9600,0.608
33.0000,0.565
33.0400,0.559
33.0800,0.586
33.1200,0.572
33.1600,0.586
33.2000,0.584
33.2400,0.608
33.2800,0.559
33.3200,0.567
33.3600,0.583
33.4000,0.562
33.4400,0.574
33.4800,0.544
33.5200,0.557
33.5600,0.538
33.6000,0.549
33.6400,0.559
33.6800,0.520
33.7200,0.561
33.7600,0.560
33.8000,0.550
33.8400,0.571
33.8800,0.532
33.9200,0.548
33.9600,0.560
34.0000,0.556
34.0400,0.588
34.0800,0.553
34.1200,0.548
34.1600,0.552
34.2000,0.563
34.2400,0.554
34.2800,0.534
34.3200,0.556
34.3600,0.553
34.4000,0.530
34.4400,0.540
34.4800,0.541
34.5200,0.514
34.5600,0.549
34.6000,0.510
34.6400,0.553
34.6800,0.557
34.7200,0.555
34.7600,0.562
34.8000,0.530
34.8400,0.542
34.8800,0.518
34.9200,0.561
34.9600,0.542
35.0000,0.526
35.0400,0.541
35.0800,0.548
35.1200,0.532
35.1600,0.531
35.2000,0.523
35.2400,0.539
35.2800,0.542
35.3200,0.564
35.3600,0.530
35.4000,0.529
35.4400,0.540
35.4800,0.569
35.5200,0.536
35.5600,0.522
35.6000,0.501
35.6400,0.515
35.6800,0.544
35.7200,0.556
35.7600,0.534
35.8000,0.507
35.8400,0.531
35.8800,0.511
35.9200,0.511
35.9600,0.517
36.0000,0.520
36.0400,0.491
36.0800,0.544
36.1200,0.506
36.1600,0.528
36.2000,0.531
36.2400,0.515
36.2800,0.531
36.3200,0.499
36.3600,0.518
36.4000,0.536
36.4400,0.513
36.4800,0.495
36.5200,0.510
36.5600,0.507
36.6000,0.522
36.6400,0.539
36.6800,0.532
36.7200,0.536
36.7600,0.511
36.8000,0.504
36.8400,0.520
36.8800,0.488
36.9200,0.540
36.9600,0.521
37.0000,0.570
37.0400,0.546
37.0800,0.539
37.1200,0.548
37.1600,0.508
37.2000,0.525
37.2400,0.565
37.2800,0.544
37.3200,0.541
37.3600,0.544
37.4000,0.562
37.4400,0.589
37.4800,0.566
37.5200,0.543
37.5600,0.570
37.6000,0.611
37.6400,0.593
37.6800,0.588
37.7200,0.621
37.7600,0.639
37.8000,0.658
37.8400,0.660
37.8800,0.690
37.9200,0.740
37.9600,0.770
38.0000,0.817
38.0400,0.869
38.0800,0.943
38.1200,0.989
38.1600,1.159
38.2000,1.296
38.2400,1.575
38.2800,2.044
38.3200,2.654
38.3600,3.784
38.4000,5.543
38.4400,8.067
38.4800,10.721
38.5200,13.394
38.5600,15.296
38.6000,16.041
38.6400,15.834
38.6800,14.594
38.7200,12.448
38.7600,10.567
38.8000,8.675
38.8400,6.969
38.8800,5.537
38.9200,4.343
38.9600,3.580
39.0000,2.918
39.0400,2.398
39.0800,2.004
39.1200,1.669
39.1600,1.449
39.2000,1.352
39.2400,1.199
39.2800,1.035
39.3200,1.040
39.3600,0.932
39.4000,0.846
39.4400,0.830
39.4800,0.820
39.5200,0.794
39.5600,0.718
39.6000,0.730
39.6400,0.662
39.6800,0.691
39.7200,0.675
39.7600,0.684
39.8000,0.618
39.8400,0.628
39.8800,0.594
39.9200,0.612
39.9600,0.613
40.0000,0.592
40.0400,0.567
40.0800,0.561
40.1200,0.549
40.1600,0.569
40.2000,0.564
40.2400,0.549
40.2800,0.559
40.3200,0.569
40.3600,0.550
40.4000,0.526
40.4400,0.525
40.4800,0.536
40.5200,0.524
40.5600,0.513
40.6000,0.530
40.6400,0.498
40.6800,0.521
40.7200,0.524
40.7600,0.537
40.8000,0.528
40.8400,0.565
40.8800,0.517
40.9200,0.499
40.9600,0.504
41.0000,0.506
41.0400,0.556
41.0800,0.539
41.1200,0.524
41.1600,0.557
41.2000,0.547
41.2400,0.559
41.2800,0.558
41.3200,0.559
41.3600,0.565
41.4000,0.565
41.4400,0.584
41.4800,0.585
41.5200,0.610
41.5600,0.653
41.6000,0.628
41.6400,0.704
41.6800,0.699
41.7200,0.752
41.7600,0.838
41.8000,0.901
41.8400,0.982
41.8800,1.170
41.9200,1.344
41.9600,1.705
42.0000,2.101
42.0400,2.606
42.0800,3.413
42.1200,4.544
42.1600,5.502
42.2000,6.268
42.2400,6.603
42.2800,6.233
42.3200,5.637
42.3600,4.699
42.4000,3.678
42.4400,2.811
42.4800,2.203
42.5200,1.653
42.5600,1.334
42.6000,1.087
42.6400,0.953
42.6800,0.827
42.7200,0.774
42.7600,0.694
42.8000,0.649
42.8400,0.602
42.8800,0.573
42.9200,0.540
42.9600,0.550
43.0000,0.509
43.0400,0.504
43.0800,0.513
43.1200,0.462
43.1600,0.438
43.2000,0.442
43.2400,0.463
43.2800,0.452
43.3200,0.453
43.3600,0.419
43.4000,0.403
43.4400,0.414
43.4800,0.391
43.5200,0.403
43.5600,0.392
43.6000,0.414
43.6400,0.400
43.6800,0.375
43.7200,0.388
43.7600,0.410
43.8000,0.377
43.8400,0.385
43.8800,0.397
43.9200,0.346
43.9600,0.398
44.0000,0.376
44.0400,0.372
44.0800,0.366
44.1200,0.378
44.1600,0.381
44.2000,0.367
44.2400,0.379
44.2800,0.367
44.3200,0.351
44.3600,0.361
44.4000,0.385
44.4400,0.361
44.4800,0.361
44.5200,0.362
44.5600,0.365
44.6000,0.343
44.6400,0.349
44.6800,0.335
44.7200,0.352
44.7600,0.358
44.8000,0.342
44.8400,0.348
44.8800,0.328
44.9200,0.350
44.9600,0.342
45.0000,0.363
45.0400,0.350
45.0800,0.327
45.1200,0.336
45.1600,0.347
45.2000,0.359
45.2400,0.330
45.2800,0.350
45.3200,0.343
45.3600,0.346
45.4000,0.341
45.4400,0.354
45.4800,0.337
45.5200,0.330
45.5600,0.356
45.6000,0.328
45.6400,0.317
45.6800,0.334
45.7200,0.315
45.7600,0.312
45.8000,0.304
45.8400,0.301
45.8800,0.338
45.9200,0.315
45.9600,0.306
46.0000,0.329
46.0400,0.340
46.0800,0.342
46.1200,0.324
46.1600,0.343
46.2000,0.328
46.2400,0.336
46.2800,0.325
46.3200,0.340
46.3600,0.311
46.4000,0.308
46.4400,0.339
46.4800,0.310
46.5200,0.317
46.5600,0.342
46.6000,0.325
46.6400,0.322
46.6800,0.298
46.7200,0.295
46.7600,0.335
46.8000,0.336
46.8400,0.352
46.8800,0.347
46.9200,0.312
46.9600,0.315
47.0000,0.319
47.0400,0.321
47.0800,0.315
47.1200,0.298
47.1600,0.312
47.2000,0.302
47.2400,0.304
47.2800,0.305
47.3200,0.307
47.3600,0.314
47.4000,0.316
47.4400,0.318
47.4800,0.330
47.5200,0.305
47.5600,0.303
47.6000,0.281
47.6400,0.315
47.6800,0.311
47.7200,0.289
47.7600,0.299
47.8000,0.350
47.8400,0.298
47.8800,0.302
47.9200,0.293
47.9600,0.298
48.0000,0.313
48.0400,0.300
48.0800,0.277
48.1200,0.305
48.1600,0.289
48.2000,0.306
48.2400,0.319
48.2800,0.320
48.3200,0.289
48.3600,0.289
48.4000,0.301
48.4400,0.321
48.4800,0.317
48.5200,0.330
48.5600,0.314
48.6000,0.316
48.6400,0.324
48.6800,0.323
48.7200,0.315
48.7600,0.303
48.8000,0.320
48.8400,0.345
48.8800,0.316
48.9200,0.345
48.9600,0.340
49.0000,0.398
49.0400,0.415
49.0800,0.454
49.1200,0.491
49.1600,0.578
49.2000,0.740
49.2400,0.813
49.2800,0.839
49.3200,0.962
49.3600,0.990
49.4000,0.988
49.4400,0.968
49.4800,0.965
49.5200,1.025
49.5600,1.051
49.6000,1.153
49.6400,1.082
49.6800,1.145
49.7200,1.142
49.7600,1.104
49.8000,1.090
49.8400,1.066
49.8800,1.027
49.9200,1.005
49.9600,0.901
50.0000,0.871
50.0400,0.872
50.0800,0.834
50.1200,0.777
50.1600,0.750
50.2000,0.718
50.2400,0.665
50.2800,0.606
50.3200,0.598
50.3600,0.579
50.4000,0.565
50.4400,0.546
50.4800,0.485
50.5200,0.455
50.5600,0.479
50.6000,0.442
50.6400,0.434
50.6800,0.391
50.7200,0.414
50.7600,0.384
50.8000,0.400
50.8400,0.365
50.8800,0.317
50.9200,0.356
50.9600,0.375
51.0000,0.312
51.0400,0.332
51.0800,0.352
51.1200,0.308
51.1600,0.309
51.2000,0.294
51.2400,0.303
51.2800,0.301
51.3200,0.301
51.3600,0.318
51.4000,0.292
51.4400,0.322
51.4800,0.286
51.5200,0.257
51.5600,0.271
51.6000,0.267
51.6400,0.275
51.6800,0.283
51.7200,0.253
51.7600,0.273
51.8000,0.275
51.8400,0.264
51.8800,0.281
51.9200,0.255
51.9600,0.270
52.0000,0.292
52.0400,0.281
52.0800,0.254
52.1200,0.279
52.1600,0.269
52.2000,0.269
52.2400,0.249
52.2800,0.262
52.3200,0.258
52.3600,0.256
52.4000,0.226
52.4400,0.267
52.4800,0.275
52.5200,0.291
52.5600,0.273
52.6000,0.256
52.6400,0.241
52.6800,0.260
52.7200,0.235
52.7600,0.267
52.8000,0.269
52.8400,0.256
52.8800,0.260
52.9200,0.265
52.9600,0.253
53.0000,0.258
53.0400,0.246
53.0800,0.258
53.1200,0.260
53.1600,0.269
53.2000,0.249
53.2400,0.248
53.2800,0.257
53.3200,0.250
53.3600,0.228
53.4000,0.273
53.4400,0.259
53.4800,0.231
53.5200,0.251
53.5600,0.241
53.6000,0.229
53.6400,0.263
53.6800,0.237
53.7200,0.242
53.7600,0.229
53.8000,0.260
53.8400,0.252
53.8800,0.221
53.9200,0.244
53.9600,0.248
54.0000,0.236
54.0400,0.232
54.0800,0.260
54.1200,0.242
54.1600,0.257
54.2000,0.255
54.2400,0.244
54.2800,0.250
54.3200,0.245
54.3600,0.246
54.4000,0.250
54.4400,0.252
54.4800,0.243
54.5200,0.249
54.5600,0.256
54.6000,0.233
54.6400,0.238
54.6800,0.245
54.7200,0.230
54.7600,0.240
54.8000,0.226
54.8400,0.233
54.8800,0.251
54.9200,0.207
54.9600,0.227
55.0000,0.235
55.0400,0.225
55.0800,0.231
55.1200,0.237
55.1600,0.215
55.2000,0.242
55.2400,0.210
55.2800,0.212
55.3200,0.256
55.3600,0.228
55.4000,0.221
55.4400,0.216
55.4800,0.222
55.5200,0.229
55.5600,0.224
55.6000,0.240
55.6400,0.231
55.6800,0.229
55.7200,0.224
55.7600,0.222
55.8000,0.224
55.8400,0.225
55.8800,0.231
55.9200,0.236
55.9600,0.218
56.0000,0.227
56.0400,0.236
56.0800,0.243
56.1200,0.220
56.1600,0.208
56.2000,0.214
56.2400,0.208
56.2800,0.231
56.3200,0.244
56.3600,0.211
56.4000,0.219
56.4400,0.246
56.4800,0.231
56.5200,0.227
56.5600,0.213
56.6000,0.210
56.6400,0.242
56.6800,0.218
56.7200,0.238
56.7600,0.230
56.8000,0.218
56.8400,0.210
56.8800,0.236
56.9200,0.212
56.9600,0.239
57.0000,0.217
57.0400,0.215
57.0800,0.249
57.1200,0.211
57.1600,0.232
57.2000,0.206
57.2400,0.216
57.2800,0.206
57.3200,0.205
57.3600,0.210
57.4000,0.233
57.4400,0.230
57.4800,0.226
57.5200,0.227
57.5600,0.230
57.6000,0.229
57.6400,0.214
57.6800,0.229
57.7200,0.230
57.7600,0.236
57.8000,0.230
57.8400,0.205
57.8800,0.208
57.9200,0.217
57.9600,0.211
58.0000,0.208
58.0400,0.216
58.0800,0.203
58.1200,0.213
58.1600,0.224
58.2000,0.220
58.2400,0.195
58.2800,0.233
58.3200,0.240
58.3600,0.231
58.4000,0.237
58.4400,0.242
58.4800,0.254
58.5200,0.270
58.5600,0.247
58.6000,0.261
58.6400,0.292
58.6800,0.303
58.7200,0.316
58.7600,0.334
58.8000,0.352
58.8400,0.341
58.8800,0.353
58.9200,0.342
58.9600,0.346
59.0000,0.332
59.0400,0.329
59.0800,0.335
59.1200,0.322
59.1600,0.308
59.2000,0.302
59.2400,0.306
59.2800,0.297
59.3200,0.298
59.3600,0.289
59.4000,0.275
59.4400,0.253
59.4800,0.278
59.5200,0.285
59.5600,0.243
59.6000,0.260
59.6400,0.234
59.6800,0.245
59.7200,0.254
59.7600,0.275
59.8000,0.249
59.8400,0.251
59.8800,0.246
59.9200,0.246
59.9600,0.242
60.0000,0.222
60.0400,0.245
60.0800,0.236
60.1200,0.248
60.1600,0.252
60.2000,0.224
60.2400,0.224
60.2800,0.243
60.3200,0.257
60.3600,0.261
60.4000,0.264
60.4400,0.247
60.4800,0.241
60.5200,0.258
60.5600,0.274
60.6000,0.262
60.6400,0.278
60.6800,0.295
60.7200,0.322
60.7600,0.347
60.8000,0.369
60.8400,0.374
60.8800,0.451
60.9200,0.485
60.9600,0.549
61.0000,0.630
61.0400,0.784
61.0800,0.954
61.1200,1.147
61.1600,1.284
61.2000,1.446
61.2400,1.548
61.2800,1.551
61.3200,1.462
61.3600,1.325
61.4000,1.162
61.4400,1.008
61.4800,0.877
61.5200,0.711
61.5600,0.603
61.6000,0.533
61.6400,0.448
61.6800,0.421
61.7200,0.351
61.7600,0.347
61.8000,0.311
61.8400,0.319
61.8800,0.287
61.9200,0.281
61.9600,0.277
62.0000,0.246
62.0400,0.282
62.0800,0.222
62.1200,0.243
62.1600,0.238
62.2000,0.231
62.2400,0.257
62.2800,0.245
62.3200,0.240
62.3600,0.238
62.4000,0.214
62.4400,0.240
62.4800,0.235
62.5200,0.204
62.5600,0.229
62.6000,0.218
62.6400,0.216
62.6800,0.216
62.7200,0.224
62.7600,0.212
62.8000,0.212
62.8400,0.226
62.8800,0.238
62.9200,0.212
62.9600,0.223
63.0000,0.231
63.0400,0.224
63.0800,0.210
63.1200,0.221
63.1600,0.228
63.2000,0.236
63.2400,0.208
63.2800,0.225
63.3200,0.229
63.3600,0.238
63.4000,0.210
63.4400,0.232
63.4800,0.237
63.5200,0.227
63.5600,0.209
63.6000,0.226
63.6400,0.221
63.6800,0.244
63.7200,0.219
63.7600,0.236
63.8000,0.234
63.8400,0.218
63.8800,0.224
63.9200,0.222
63.9600,0.210
64.0000,0.227
64.0400,0.225
64.0800,0.235
64.1200,0.214
64.1600,0.214
64.2000,0.224
64.2400,0.241
64.2800,0.240
64.3200,0.221
64.3600,0.229
64.4000,0.226
64.4400,0.233
64.4800,0.248
64.5200,0.234
64.5600,0.235
64.6000,0.233
64.6400,0.228
64.6800,0.217
64.7200,0.244
64.7600,0.244
64.8000,0.227
64.8400,0.225
64.8800,0.235
64.9200,0.257
64.9600,0.245
65.0000,0.253
65.0400,0.250
65.0800,0.251
65.1200,0.245
65.1600,0.254
65.2000,0.258
65.2400,0.236
65.2800,0.251
65.3200,0.242
65.3600,0.260
65.4000,0.256
65.4400,0.250
65.4800,0.247
65.5200,0.242
65.5600,0.246
65.6000,0.282
65.6400,0.255
65.6800,0.280
65.7200,0.274
65.7600,0.274
65.8000,0.259
65.8400,0.275
65.8800,0.295
65.9200,0.273
65.9600,0.286
66.0000,0.294
66.0400,0.291
66.0800,0.283
66.1200,0.301
66.1600,0.318
66.2000,0.304
66.2400,0.298
66.2800,0.291
66.3200,0.314
66.3600,0.312
66.4000,0.339
66.4400,0.351
66.4800,0.352
66.5200,0.362
66.5600,0.383
66.6000,0.431
66.6400,0.435
66.6800,0.476
66.7200,0.507
66.7600,0.547
66.8000,0.632
66.8400,0.700
66.8800,0.792
66.9200,0.883
66.9600,0.975
67.0000,1.036
67.0400,1.185
67.0800,1.240
67.1200,1.303
67.1600,1.383
67.2000,1.479
67.2400,1.492
67.2800,1.420
67.3200,1.435
67.3600,1.409
67.4000,1.414
67.4400,1.295
67.4800,1.296
67.5200,1.243
67.5600,1.121
67.6000,1.110
67.6400,1.013
67.6800,0.917
67.7200,0.966
67.7600,0.929
67.8000,0.836
67.8400,0.815
67.8800,0.797
67.9200,0.765
67.9600,0.712
68.0000,0.691
68.0400,0.685
68.0800,0.687
68.1200,0.653
68.1600,0.630
68.2000,0.632
68.2400,0.631
68.2800,0.661
68.3200,0.613
68.3600,0.615
68.4000,0.624
68.4400,0.623
68.4800,0.661
68.5200,0.642
68.5600,0.651
68.6000,0.699
68.6400,0.729
68.6800,0.786
68.7200,0.844
68.7600,1.010
68.8000,1.139
68.8400,1.337
68.8800,1.410
68.9200,1.500
68.9600,1.844
69.0000,2.748
69.0400,5.498
69.0800,16.942
69.1200,39.256
69.1600,51.842
69.2000,48.450
69.2400,31.849
69.2800,17.509
69.3200,23.186
69.3600,28.172
69.4000,25.700
69.4400,15.384
69.4800,5.399
69.5200,2.543
69.5600,1.698
69.6000,1.388
69.6400,1.151
69.6800,1.012
69.7200,0.913
69.7600,0.855
69.8000,0.766
69.8400,0.731
69.8800,0.677
69.9200,0.707
69.9600,0.615
70.0000,0.634
70.0400,0.603
70.0800,0.594
70.1200,0.521
70.1600,0.532
70.2000,0.533
70.2400,0.536
70.2800,0.493
70.3200,0.490
70.3600,0.486
70.4000,0.448
70.4400,0.477
70.4800,0.502
70.5200,0.456
70.5600,0.467
70.6000,0.449
70.6400,0.428
70.6800,0.426
70.7200,0.427
70.7600,0.426
70.8000,0.373
70.8400,0.370
70.8800,0.372
70.9200,0.396
70.9600,0.425
71.0000,0.375
71.0400,0.344
71.0800,0.352
71.1200,0.361
71.1600,0.375
71.2000,0.351
71.2400,0.331
71.2800,0.320
71.3200,0.311
71.3600,0.340
71.4000,0.345
71.4400,0.339
71.4800,0.317
71.5200,0.313
71.5600,0.297
71.6000,0.318
71.6400,0.303
71.6800,0.321
71.7200,0.292
71.7600,0.317
71.8000,0.293
71.8400,0.303
71.8800,0.297
71.9200,0.309
71.9600,0.291
72.0000,0.285
72.0400,0.291
72.0800,0.269
72.1200,0.290
72.1600,0.258
72.2000,0.294
72.2400,0.275
72.2800,0.281
72.3200,0.267
72.3600,0.278
72.4000,0.260
72.4400,0.269
72.4800,0.269
72.5200,0.256
72.5600,0.263
72.6000,0.267
72.6400,0.257
72.6800,0.271
72.7200,0.271
72.7600,0.235
72.8000,0.260
72.8400,0.258
72.8800,0.234
72.9200,0.258
72.9600,0.240
73.0000,0.265
73.0400,0.245
73.0800,0.243
73.1200,0.252
73.1600,0.241
73.2000,0.245
73.2400,0.252
73.2800,0.237
73.3200,0.244
73.3600,0.260
73.4000,0.245
73.4400,0.271
73.4800,0.256
73.5200,0.261
73.5600,0.236
73.6000,0.257
73.6400,0.261
73.6800,0.248
73.7200,0.258
73.7600,0.241
73.8000,0.262
73.8400,0.282
73.8800,0.260
73.9200,0.269
73.9600,0.280
74.0000,0.307
74.0400,0.300
74.0800,0.331
74.1200,0.350
74.1600,0.369
74.2000,0.408
74.2400,0.428
74.2800,0.447
74.3200,0.496
74.3600,0.576
74.4000,0.715
74.4400,0.785
74.4800,0.967
74.5200,1.152
74.5600,1.356
74.6000,1.660
74.6400,1.889
74.6800,2.053
74.7200,2.198
74.7600,2.305
74.8000,2.257
74.8400,2.230
74.8800,2.073
74.9200,1.944
74.9600,1.744
75.0000,1.538
75.0400,1.354
75.0800,1.155
75.1200,1.027
75.1600,0.901
75.2000,0.739
75.2400,0.659
75.2800,0.573
75.3200,0.527
75.3600,0.481
75.4000,0.439
75.4400,0.386
75.4800,0.352
75.5200,0.329
75.5600,0.307
75.6000,0.304
75.6400,0.285
75.6800,0.279
75.7200,0.267
75.7600,0.257
75.8000,0.263
75.8400,0.265
75.8800,0.224
75.9200,0.239
75.9600,0.254
76.0000,0.238
76.0400,0.211
76.0800,0.226
76.1200,0.218
76.1600,0.205
76.2000,0.217
76.2400,0.215
76.2800,0.213
76.3200,0.219
76.3600,0.221
76.4000,0.214
76.4400,0.203
76.4800,0.202
76.5200,0.201
76.5600,0.194
76.6000,0.206
76.6400,0.194
76.6800,0.215
76.7200,0.190
76.7600,0.206
76.8000,0.194
76.8400,0.169
76.8800,0.185
76.9200,0.194
76.9600,0.196
77.0000,0.181
77.0400,0.180
77.0800,0.186
77.1200,0.176
77.1600,0.191
77.2000,0.169
77.2400,0.191
77.2800,0.188
77.3200,0.178
77.3600,0.189
77.4000,0.182
77.4400,0.186
77.4800,0.174
77.5200,0.195
77.5600,0.198
77.6000,0.198
77.6400,0.168
77.6800,0.183
77.7200,0.188
77.7600,0.180
77.8000,0.183
77.8400,0.181
77.8800,0.173
77.9200,0.175
77.9600,0.184
78.0000,0.179
78.0400,0.172
78.0800,0.168
78.1200,0.201
78.1600,0.164
78.2000,0.173
78.2400,0.162
78.2800,0.158
78.3200,0.180
78.3600,0.161
78.4000,0.191
78.4400,0.177
78.4800,0.153
78.5200,0.178
78.5600,0.161
78.6000,0.173
78.6400,0.179
78.6800,0.164
78.7200,0.172
78.7600,0.180
78.8000,0.170
78.8400,0.174
78.8800,0.191
78.9200,0.163
78.9600,0.173
79.0000,0.166
79.0400,0.154
79.0800,0.147
79.1200,0.160
79.1600,0.157
79.2000,0.186
79.2400,0.169
79.2800,0.165
79.3200,0.168
79.3600,0.177
79.4000,0.157
79.4400,0.184
79.4800,0.173
79.5200,0.163
79.5600,0.159
79.6000,0.162
79.6400,0.184
79.6800,0.187
79.7200,0.164
79.7600,0.174
79.8000,0.170
79.8400,0.158
79.8800,0.181
79.9200,0.160
79.9600,0.169
80.0000,0.168
