theta,intensity
5.0000,9.025
5.0400,8.846
5.0800,9.004
5.1200,8.817
5.1600,8.789
5.2000,8.885
5.2400,8.844
5.2800,8.802
5.3200,8.594
5.3600,8.411
5.4000,8.708
5.4400,8.383
5.4800,8.379
5.5200,8.453
5.5600,8.430
5.6000,8.345
5.6400,8.327
5.6800,8.143
5.7200,8.114
5.7600,7.967
5.8000,7.977
5.8400,7.775
5.8800,7.782
5.9200,7.768
5.9600,7.766
6.0000,7.551
6.0400,7.376
6.0800,7.219
6.1200,7.311
6.1600,7.232
6.2000,7.088
6.2400,7.013
6.2800,7.001
6.3200,6.725
6.3600,6.736
6.4000,6.738
6.4400,6.615
6.4800,6.549
6.5200,6.434
6.5600,6.310
6.6000,6.161
6.6400,6.171
6.6800,6.109
6.7200,6.114
6.7600,5.934
6.8000,5.856
6.8400,5.898
6.8800,5.929
6.9200,5.645
6.9600,5.684
7.0000,5.731
7.0400,5.661
7.0800,5.508
7.1200,5.559
7.1600,5.365
7.2000,5.272
7.2400,5.270
7.2800,5.243
7.3200,5.176
7.3600,5.161
7.4000,5.059
7.4400,5.067
7.4800,5.002
7.5200,4.948
7.5600,4.829
7.6000,4.889
7.6400,4.946
7.6800,4.879
7.7200,4.736
7.7600,4.799
7.8000,4.680
7.8400,4.667
7.8800,4.510
7.9200,4.612
7.9600,4.642
8.0000,4.533
8.0400,4.378
8.0800,4.543
8.1200,4.420
8.1600,4.278
8.2000,4.373
8.2400,4.370
8.2800,4.330
8.3200,4.264
8.3600,4.236
8.4000,4.247
8.4400,4.134
8.4800,4.204
8.5200,4.052
8.5600,4.140
8.6000,4.160
8.6400,4.077
8.6800,3.953
8.7200,4.058
8.7600,4.032
8.8000,4.009
8.8400,3.978
8.8800,4.038
8.9200,3.918
8.9600,3.969
9.0000,3.948
9.0400,3.935
9.0800,3.857
9.1200,3.964
9.1600,3.859
9.2000,3.869
9.2400,3.850
9.2800,3.844
9.3200,3.669
9.3600,3.860
9.4000,3.824
9.4400,3.784
9.4800,3.807
9.5200,3.752
9.5600,3.774
9.6000,3.696
9.6400,3.726
9.6800,3.756
9.7200,3.564
9.7600,3.633
9.8000,3.618
9.8400,3.586
9.8800,3.656
9.9200,3.714
9.9600,3.596
10.0000,3.662
10.0400,3.656
10.0800,3.695
10.1200,3.617
10.1600,3.560
10.2000,3.595
10.2400,3.475
10.2800,3.550
10.3200,3.562
10.3600,3.609
10.4000,3.522
10.4400,3.526
10.4800,3.587
10.5200,3.452
10.5600,3.455
10.6000,3.446
10.6400,3.501
10.6800,3.599
10.7200,3.568
10.7600,3.520
10.8000,3.404
10.8400,3.503
10.8800,3.392
10.9200,3.492
10.9600,3.366
11.0000,3.295
11.0400,3.360
11.0800,3.428
11.1200,3.356
11.1600,3.406
11.2000,3.388
11.2400,3.462
11.2800,3.474
11.3200,3.409
11.3600,3.472
11.4000,3.471
11.4400,3.365
11.4800,3.435
11.5200,3.479
11.5600,3.469
11.6000,3.373
11.6400,3.332
11.6800,3.325
11.7200,3.434
11.7600,3.437
11.8000,3.452
11.8400,3.393
11.8800,3.373
11.9200,3.382
11.9600,3.512
12.0000,3.408
12.0400,3.361
12.0800,3.351
12.1200,3.409
12.1600,3.347
12.2000,3.325
12.2400,3.363
12.2800,3.383
12.3200,3.415
12.3600,3.454
12.4000,3.370
12.4400,3.233
12.4800,3.348
12.5200,3.312
12.5600,3.275
12.6000,3.303
12.6400,3.402
12.6800,3.268
12.7200,3.208
12.7600,3.352
12.8000,3.320
12.8400,3.238
12.8800,3.190
12.9200,3.269
12.9600,3.347
13.0000,3.381
13.0400,3.245
13.0800,3.155
13.1200,3.239
13.1600,3.305
13.2000,3.241
13.2400,3.082
13.2800,3.166
13.3200,3.239
13.3600,3.120
13.4000,3.117
13.4400,3.094
13.4800,3.186
13.5200,3.209
13.5600,3.134
13.6000,3.207
13.6400,3.080
13.6800,3.139
13.7200,3.165
13.7600,3.200
13.8000,3.202
13.8400,3.186
13.8800,3.192
13.9200,3.213
13.9600,3.183
14.0000,3.157
14.0400,3.142
14.0800,3.193
14.1200,3.236
14.1600,3.202
14.2000,3.123
14.2400,3.134
14.2800,3.216
14.3200,3.246
14.3600,3.183
14.4000,3.238
14.4400,3.184
14.4800,3.111
14.5200,3.158
14.5600,3.111
14.6000,3.057
14.6400,3.103
14.6800,3.115
14.7200,3.152
14.7600,3.044
14.8000,3.100
14.8400,3.071
14.8800,2.965
14.9200,3.128
14.9600,3.070
15.0000,3.143
15.0400,3.192
15.0800,3.091
15.1200,3.124
15.1600,3.195
15.2000,2.963
15.2400,3.153
15.2800,2.987
15.3200,2.971
15.3600,3.074
15.4000,3.036
15.4400,3.034
15.4800,3.082
15.5200,2.933
15.5600,2.976
15.6000,2.979
15.6400,3.077
15.6800,3.076
15.7200,3.063
15.7600,2.908
15.8000,3.126
15.8400,3.010
15.8800,3.052
15.9200,2.962
15.9600,3.104
16.0000,2.958
16.0400,2.915
16.0800,3.011
16.1200,2.882
16.1600,2.886
16.2000,3.044
16.2400,2.879
16.2800,3.068
16.3200,2.996
16.3600,2.955
16.4000,3.009
16.4400,2.966
16.4800,3.000
16.5200,2.995
16.5600,2.926
16.6000,2.934
16.6400,2.983
16.6800,2.962
16.7200,2.930
16.7600,2.912
16.8000,2.858
16.8400,2.920
16.8800,2.863
16.9200,2.978
16.9600,2.961
17.0000,2.884
17.0400,2.904
17.0800,2.999
17.1200,2.911
17.1600,2.983
17.2000,2.896
17.2400,2.838
17.2800,2.860
17.3200,2.927
17.3600,2.874
17.4000,2.891
17.4400,2.836
17.4800,2.894
17.5200,2.826
17.5600,2.892
17.6000,2.801
17.6400,2.924
17.6800,2.879
17.7200,2.769
17.7600,2.863
17.8000,2.843
17.8400,2.844
17.8800,2.818
17.9200,2.836
17.9600,2.836
18.0000,2.819
18.0400,2.831
18.0800,2.839
18.1200,2.795
18.1600,2.835
18.2000,2.823
18.2400,2.866
18.2800,2.765
18.3200,2.786
18.3600,2.756
18.4000,2.847
18.4400,2.812
18.4800,2.773
18.5200,2.719
18.5600,2.728
18.6000,2.794
18.6400,2.726
18.6800,2.729
18.7200,2.768
18.7600,2.659
18.8000,2.799
18.8400,2.781
18.8800,2.724
18.9200,2.767
18.9600,2.685
19.0000,2.701
19.0400,2.703
19.0800,2.637
19.1200,2.674
19.1600,2.852
19.2000,2.732
19.2400,2.606
19.2800,2.711
19.3200,2.707
19.3600,2.707
19.4000,2.790
19.4400,2.698
19.4800,2.589
19.5200,2.688
19.5600,2.628
19.6000,2.705
19.6400,2.666
19.6800,2.642
19.7200,2.644
19.7600,2.644
19.8000,2.627
19.8400,2.627
19.8800,2.687
19.9200,2.696
19.9600,2.687
20.0000,2.722
20.0400,2.647
20.0800,2.691
20.1200,2.589
20.1600,2.577
20.2000,2.598
20.2400,2.713
20.2800,2.588
20.3200,2.583
20.3600,2.592
20.4000,2.513
20.4400,2.472
20.4800,2.484
20.5200,2.603
20.5600,2.667
20.6000,2.526
20.6400,2.553
20.6800,2.548
20.7200,2.546
20.7600,2.592
20.8000,2.533
20.8400,2.506
20.8800,2.626
20.9200,2.567
20.9600,2.521
21.0000,2.599
21.0400,2.572
21.0800,2.457
21.1200,2.533
21.1600,2.506
21.2000,2.494
21.2400,2.431
21.2800,2.431
21.3200,2.563
21.3600,2.588
21.4000,2.557
21.4400,2.494
21.4800,2.500
21.5200,2.527
21.5600,2.517
21.6000,2.556
21.6400,2.451
21.6800,2.495
21.7200,2.520
21.7600,2.512
21.8000,2.409
21.8400,2.460
21.8800,2.436
21.9200,2.516
21.9600,2.396
22.0000,2.463
22.0400,2.483
22.0800,2.429
22.1200,2.436
22.1600,2.478
22.2000,2.518
22.2400,2.522
22.2800,2.461
22.3200,2.510
22.3600,2.453
22.4000,2.418
22.4400,2.479
22.4800,2.422
22.5200,2.433
22.5600,2.297
22.6000,2.503
22.6400,2.417
22.6800,2.461
22.7200,2.399
22.7600,2.484
22.8000,2.505
22.8400,2.423
22.8800,2.436
22.9200,2.432
22.9600,2.300
23.0000,2.456
23.0400,2.415
23.0800,2.402
23.1200,2.401
23.1600,2.464
23.2000,2.404
23.2400,2.404
23.2800,2.427
23.3200,2.380
23.3600,2.394
23.4000,2.398
23.4400,2.297
23.4800,2.387
23.5200,2.319
23.5600,2.315
23.6000,2.409
23.6400,2.426
23.6800,2.404
23.7200,2.320
23.7600,2.275
23.8000,2.343
23.8400,2.356
23.8800,2.399
23.9200,2.449
23.9600,2.264
24.0000,2.336
24.0400,2.307
24.0800,2.448
24.1200,2.349
24.1600,2.291
24.2000,2.324
24.2400,2.334
24.2800,2.285
24.3200,2.384
24.3600,2.352
24.4000,2.370
24.4400,2.395
24.4800,2.360
24.5200,2.281
24.5600,2.330
24.6000,2.274
24.6400,2.371
24.6800,2.268
24.7200,2.370
24.7600,2.323
24.8000,2.209
24.8400,2.311
24.8800,2.279
24.9200,2.266
24.9600,2.270
25.0000,2.261
25.0400,2.302
25.0800,2.176
25.1200,2.246
25.1600,2.265
25.2000,2.299
25.2400,2.259
25.2800,2.245
25.3200,2.197
25.3600,2.226
25.4000,2.231
25.4400,2.261
25.4800,2.193
25.5200,2.154
25.5600,2.293
25.6000,2.195
25.6400,2.233
25.6800,2.165
25.7200,2.212
25.7600,2.222
25.8000,2.246
25.8400,2.187
25.8800,2.142
25.9200,2.176
25.9600,2.201
26.0000,2.292
26.0400,2.141
26.0800,2.203
26.1200,2.188
26.1600,2.171
26.2000,2.104
26.2400,2.087
26.2800,2.125
26.3200,2.184
26.3600,2.214
26.4000,2.196
26.4400,2.114
26.4800,2.116
26.5200,2.163
26.5600,2.088
26.6000,2.206
26.6400,2.140
26.6800,2.126
26.7200,2.112
26.7600,2.148
26.8000,2.040
26.8400,2.082
26.8800,2.196
26.9200,2.105
26.9600,2.159
27.0000,2.069
27.0400,2.094
27.0800,2.130
27.1200,2.059
27.1600,1.996
27.2000,2.127
27.2400,2.177
27.2800,2.068
27.3200,1.989
27.3600,2.038
27.4000,2.194
27.4400,2.131
27.4800,2.107
27.5200,2.049
27.5600,2.013
27.6000,2.078
27.6400,2.097
27.6800,2.030
27.7200,2.035
27.7600,2.069
27.8000,2.152
27.8400,2.023
27.8800,2.053
27.9200,2.018
27.9600,2.097
28.0000,2.121
28.0400,2.114
28.0800,2.070
28.1200,2.137
28.1600,2.039
28.2000,2.040
28.2400,2.097
28.2800,2.158
28.3200,2.090
28.3600,2.083
28.4000,2.067
28.4400,2.148
28.4800,2.142
28.5200,2.120
28.5600,2.108
28.6000,2.173
28.6400,2.148
28.6800,2.081
28.7200,2.141
28.7600,2.136
28.8000,2.113
28.8400,1.981
28.8800,2.069
28.9200,2.048
28.9600,2.070
29.0000,2.005
29.0400,2.032
29.0800,2.013
29.1200,2.008
29.1600,1.986
29.2000,1.949
29.2400,1.956
29.2800,1.965
29.3200,2.040
29.3600,1.955
29.4000,1.951
29.4400,1.999
29.4800,2.046
29.5200,2.040
29.5600,2.063
29.6000,2.085
29.6400,2.130
29.6800,2.311
29.7200,2.239
29.7600,2.523
29.8000,2.670
29.8400,3.074
29.8800,3.478
29.9200,3.860
29.9600,4.192
30.0000,4.356
30.0400,4.301
30.0800,4.045
30.1200,3.625
30.1600,3.197
30.2000,2.757
30.2400,2.359
30.2800,2.205
30.3200,2.150
30.3600,2.075
30.4000,1.974
30.4400,1.931
30.4800,1.899
30.5200,1.863
30.5600,1.842
30.6000,1.827
30.6400,1.860
30.6800,1.830
30.7200,1.850
30.7600,1.879
30.8000,1.791
30.8400,1.730
30.8800,1.817
30.9200,1.751
30.9600,1.839
31.0000,1.771
31.0400,1.742
31.0800,1.753
31.1200,1.797
31.1600,1.710
31.2000,1.654
31.2400,1.678
31.2800,1.742
31.3200,1.725
31.3600,1.715
31.4000,1.712
31.4400,1.752
31.4800,1.710
31.5200,1.695
31.5600,1.678
31.6000,1.660
31.6400,1.706
31.6800,1.708
31.7200,1.645
31.7600,1.702
31.8000,1.649
31.8400,1.720
31.8800,1.713
31.9200,1.644
31.9600,1.615
32.0000,1.760
32.0400,1.663
32.0800,1.660
32.1200,1.619
32.1600,1.619
32.2000,1.613
32.2400,1.667
32.2800,1.690
32.3200,1.651
32.3600,1.658
32.4000,1.583
32.4400,1.712
32.4800,1.554
32.5200,1.546
32.5600,1.602
32.6000,1.562
32.6400,1.627
32.6800,1.589
32.7200,1.650
32.7600,1.656
32.8000,1.555
32.8400,1.681
32.8800,1.723
32.9200,1.612
32.9600,1.621
33.0000,1.551
33.0400,1.573
33.0800,1.567
33.1200,1.507
33.1600,1.535
33.2000,1.583
33.2400,1.612
33.2800,1.585
33.3200,1.548
33.3600,1.521
33.4000,1.582
33.4400,1.559
33.4800,1.522
33.5200,1.571
33.5600,1.507
33.6000,1.504
33.6400,1.535
33.6800,1.505
33.7200,1.538
33.7600,1.545
33.8000,1.509
33.8400,1.572
33.8800,1.546
33.9200,1.524
33.9600,1.602
34.0000,1.532
34.0400,1.507
34.0800,1.597
34.1200,1.511
34.1600,1.570
34.2000,1.509
34.2400,1.554
34.2800,1.537
34.3200,1.541
34.3600,1.529
34.4000,1.465
34.4400,1.553
34.4800,1.478
34.5200,1.502
34.5600,1.536
34.6000,1.493
34.6400,1.446
34.6800,1.504
34.7200,1.499
34.7600,1.442
34.8000,1.374
34.8400,1.421
34.8800,1.454
34.9200,1.451
34.9600,1.455
35.0000,1.432
35.0400,1.482
35.0800,1.512
35.1200,1.409
35.1600,1.486
35.2000,1.480
35.2400,1.486
35.2800,1.436
35.3200,1.476
35.3600,1.495
35.4000,1.405
35.4400,1.438
35.4800,1.464
35.5200,1.464
35.5600,1.375
35.6000,1.433
35.6400,1.498
35.6800,1.509
35.7200,1.401
35.7600,1.410
35.8000,1.420
35.8400,1.421
35.8800,1.452
35.9200,1.409
35.9600,1.448
36.0000,1.399
36.0400,1.451
36.0800,1.427
36.1200,1.461
36.1600,1.422
36.2000,1.432
36.2400,1.427
36.2800,1.428
36.3200,1.444
36.3600,1.409
36.4000,1.427
36.4400,1.395
36.4800,1.322
36.5200,1.366
36.5600,1.430
36.6000,1.443
36.6400,1.366
36.6800,1.448
36.7200,1.463
36.7600,1.376
36.8000,1.457
36.8400,1.425
36.8800,1.459
36.9200,1.293
36.9600,1.380
37.0000,1.332
37.0400,1.430
37.0800,1.448
37.1200,1.418
37.1600,1.428
37.2000,1.427
37.2400,1.415
37.2800,1.366
37.3200,1.443
37.3600,1.405
37.4000,1.473
37.4400,1.448
37.4800,1.494
37.5200,1.375
37.5600,1.361
37.6000,1.417
37.6400,1.454
37.6800,1.447
37.7200,1.463
37.7600,1.461
37.8000,1.405
37.8400,1.463
37.8800,1.459
37.9200,1.455
37.9600,1.535
38.0000,1.456
38.0400,1.510
38.0800,1.445
38.1200,1.482
38.1600,1.581
38.2000,1.511
38.2400,1.624
38.2800,1.507
38.3200,1.607
38.3600,1.612
38.4000,1.652
38.4400,1.635
38.4800,1.613
38.5200,1.729
38.5600,1.840
38.6000,1.856
38.6400,2.011
38.6800,2.019
38.7200,2.165
38.7600,2.298
38.8000,2.295
38.8400,2.451
38.8800,2.558
38.9200,2.690
38.9600,2.891
39.0000,2.825
39.0400,2.848
39.0800,2.951
39.1200,2.890
39.1600,2.686
39.2000,2.589
39.2400,2.476
39.2800,2.283
39.3200,2.271
39.3600,2.108
39.4000,2.039
39.4400,2.014
39.4800,1.910
39.5200,1.929
39.5600,1.855
39.6000,1.759
39.6400,1.786
39.6800,1.802
39.7200,1.632
39.7600,1.681
39.8000,1.661
39.8400,1.659
39.8800,1.591
39.9200,1.611
39.9600,1.605
40.0000,1.585
40.0400,1.555
40.0800,1.555
40.1200,1.486
40.1600,1.470
40.2000,1.490
40.2400,1.467
40.2800,1.502
40.3200,1.433
40.3600,1.458
40.4000,1.462
40.4400,1.450
40.4800,1.403
40.5200,1.419
40.5600,1.463
40.6000,1.474
40.6400,1.408
40.6800,1.473
40.7200,1.349
40.7600,1.494
40.8000,1.402
40.8400,1.426
40.8800,1.363
40.9200,1.395
40.9600,1.367
41.0000,1.404
41.0400,1.434
41.0800,1.417
41.1200,1.363
41.1600,1.394
41.2000,1.365
41.2400,1.403
41.2800,1.366
41.3200,1.438
41.3600,1.403
41.4000,1.403
41.4400,1.355
41.4800,1.381
41.5200,1.514
41.5600,1.341
41.6000,1.402
41.6400,1.434
41.6800,1.523
41.7200,1.463
41.7600,1.494
41.8000,1.471
41.8400,1.574
41.8800,1.555
41.9200,1.583
41.9600,1.658
42.0000,1.652
42.0400,1.743
42.0800,1.841
42.1200,1.893
42.1600,1.983
42.2000,2.162
42.2400,2.266
42.2800,2.315
42.3200,2.449
42.3600,2.552
42.4000,2.568
42.4400,2.836
42.4800,3.098
42.5200,3.388
42.5600,3.877
42.6000,4.647
42.6400,5.556
42.6800,6.845
42.7200,8.815
42.7600,11.225
42.8000,13.845
42.8400,16.652
42.8800,19.217
42.9200,20.783
42.9600,21.371
43.0000,21.346
43.0400,20.458
43.0800,18.042
43.1200,15.468
43.1600,12.449
43.2000,9.741
43.2400,7.380
43.2800,5.272
43.3200,4.010
43.3600,3.043
43.4000,2.569
43.4400,2.170
43.4800,1.982
43.5200,1.854
43.5600,1.761
43.6000,1.643
43.6400,1.717
43.6800,1.579
43.7200,1.529
43.7600,1.460
43.8000,1.445
43.8400,1.388
43.8800,1.362
43.9200,1.311
43.9600,1.367
44.0000,1.328
44.0400,1.352
44.0800,1.325
44.1200,1.307
44.1600,1.202
44.2000,1.277
44.2400,1.267
44.2800,1.204
44.3200,1.241
44.3600,1.279
44.4000,1.235
44.4400,1.225
44.4800,1.288
44.5200,1.257
44.5600,1.250
44.6000,1.185
44.6400,1.278
44.6800,1.261
44.7200,1.277
44.7600,1.188
44.8000,1.335
44.8400,1.247
44.8800,1.320
44.9200,1.324
44.9600,1.317
45.0000,1.309
45.0400,1.291
45.0800,1.398
45.1200,1.338
45.1600,1.359
45.2000,1.365
45.2400,1.416
45.2800,1.382
45.3200,1.440
45.3600,1.450
45.4000,1.455
45.4400,1.483
45.4800,1.371
45.5200,1.424
45.5600,1.357
45.6000,1.391
45.6400,1.342
45.6800,1.289
45.7200,1.205
45.7600,1.262
45.8000,1.234
45.8400,1.217
45.8800,1.116
45.9200,1.146
45.9600,1.184
46.0000,1.171
46.0400,1.143
46.0800,1.059
46.1200,1.134
46.1600,1.081
46.2000,1.063
46.2400,1.035
46.2800,1.021
46.3200,1.017
46.3600,1.022
46.4000,1.057
46.4400,1.035
46.4800,0.986
46.5200,1.051
46.5600,0.984
46.6000,1.031
46.6400,0.994
46.6800,0.984
46.7200,0.975
46.7600,0.967
46.8000,0.989
46.8400,1.008
46.8800,0.956
46.9200,0.961
46.9600,0.926
47.0000,0.986
47.0400,0.969
47.0800,0.902
47.1200,0.936
47.1600,0.927
47.2000,0.907
47.2400,0.949
47.2800,0.965
47.3200,0.919
47.3600,0.863
47.4000,0.943
47.4400,0.869
47.4800,0.930
47.5200,0.900
47.5600,0.939
47.6000,0.920
47.6400,0.940
47.6800,0.873
47.7200,0.954
47.7600,0.854
47.8000,0.857
47.8400,0.882
47.8800,0.879
47.9200,0.868
47.9600,0.879
48.0000,0.920
48.0400,0.881
48.0800,0.870
48.1200,0.916
48.1600,0.911
48.2000,0.890
48.2400,0.848
48.2800,0.851
48.3200,0.911
48.3600,0.833
48.4000,0.905
48.4400,0.886
48.4800,0.856
48.5200,0.897
48.5600,0.916
48.6000,0.865
48.6400,0.868
48.6800,0.854
48.7200,0.846
48.7600,0.864
48.8000,0.908
48.8400,0.925
48.8800,0.895
48.9200,0.857
48.9600,0.911
49.0000,0.868
49.0400,0.930
49.0800,0.890
49.1200,0.934
49.1600,0.921
49.2000,0.909
49.2400,0.997
49.2800,0.928
49.3200,0.917
49.3600,0.889
49.4000,0.919
49.4400,0.939
49.4800,0.907
49.5200,0.897
49.5600,0.875
49.6000,0.873
49.6400,0.882
49.6800,0.894
49.7200,0.891
49.7600,0.776
49.8000,0.819
49.8400,0.825
49.8800,0.758
49.9200,0.776
49.9600,0.803
50.0000,0.805
50.0400,0.797
50.0800,0.800
50.1200,0.792
50.1600,0.791
50.2000,0.776
50.2400,0.761
50.2800,0.783
50.3200,0.770
50.3600,0.793
50.4000,0.763
50.4400,0.760
50.4800,0.780
50.5200,0.784
50.5600,0.745
50.6000,0.759
50.6400,0.775
50.6800,0.729
50.7200,0.713
50.7600,0.758
50.8000,0.724
50.8400,0.733
50.8800,0.785
50.9200,0.787
50.9600,0.784
51.0000,0.773
51.0400,0.746
51.0800,0.718
51.1200,0.721
51.1600,0.732
51.2000,0.723
51.2400,0.772
51.2800,0.739
51.3200,0.734
51.3600,0.674
51.4000,0.681
51.4400,0.759
51.4800,0.705
51.5200,0.705
51.5600,0.708
51.6000,0.729
51.6400,0.706
51.6800,0.707
51.7200,0.734
51.7600,0.712
51.8000,0.727
51.8400,0.721
51.8800,0.727
51.9200,0.728
51.9600,0.709
52.0000,0.741
52.0400,0.676
52.0800,0.716
52.1200,0.730
52.1600,0.726
52.2000,0.737
52.2400,0.686
52.2800,0.755
52.3200,0.724
52.3600,0.716
52.4000,0.695
52.4400,0.710
52.4800,0.714
52.5200,0.732
52.5600,0.748
52.6000,0.729
52.6400,0.715
52.6800,0.677
52.7200,0.702
52.7600,0.704
52.8000,0.721
52.8400,0.742
52.8800,0.723
52.9200,0.786
52.9600,0.777
53.0000,0.800
53.0400,0.863
53.0800,0.913
53.1200,0.913
53.1600,0.960
53.2000,0.958
53.2400,1.006
53.2800,1.076
53.3200,1.080
53.3600,1.039
53.4000,1.062
53.4400,0.998
53.4800,0.902
53.5200,0.941
53.5600,0.840
53.6000,0.797
53.6400,0.812
53.6800,0.783
53.7200,0.749
53.7600,0.736
53.8000,0.726
53.8400,0.692
53.8800,0.695
53.9200,0.638
53.9600,0.669
54.0000,0.680
54.0400,0.649
54.0800,0.669
54.1200,0.663
54.1600,0.689
54.2000,0.674
54.2400,0.636
54.2800,0.647
54.3200,0.656
54.3600,0.671
54.4000,0.671
54.4400,0.714
54.4800,0.650
54.5200,0.686
54.5600,0.650
54.6000,0.648
54.6400,0.651
54.6800,0.690
54.7200,0.669
54.7600,0.687
54.8000,0.645
54.8400,0.657
54.8800,0.640
54.9200,0.653
54.9600,0.624
55.0000,0.634
55.0400,0.665
55.0800,0.620
55.1200,0.599
55.1600,0.637
55.2000,0.626
55.2400,0.623
55.2800,0.591
55.3200,0.662
55.3600,0.617
55.4000,0.621
55.4400,0.625
55.4800,0.693
55.5200,0.626
55.5600,0.601
55.6000,0.637
55.6400,0.638
55.6800,0.611
55.7200,0.604
55.7600,0.635
55.8000,0.674
55.8400,0.606
55.8800,0.620
55.9200,0.617
55.9600,0.580
56.0000,0.610
56.0400,0.633
56.0800,0.624
56.1200,0.611
56.1600,0.595
56.2000,0.641
56.2400,0.671
56.2800,0.604
56.3200,0.604
56.3600,0.597
56.4000,0.605
56.4400,0.616
56.4800,0.618
56.5200,0.600
56.5600,0.626
56.6000,0.582
56.6400,0.646
56.6800,0.623
56.7200,0.593
56.7600,0.612
56.8000,0.636
56.8400,0.584
56.8800,0.639
56.9200,0.597
56.9600,0.610
57.0000,0.595
57.0400,0.583
57.0800,0.601
57.1200,0.591
57.1600,0.556
57.2000,0.612
57.2400,0.584
57.2800,0.621
57.3200,0.622
57.3600,0.634
57.4000,0.576
57.4400,0.575
57.4800,0.592
57.5200,0.587
57.5600,0.605
57.6000,0.572
57.6400,0.568
57.6800,0.561
57.7200,0.501
57.7600,0.581
57.8000,0.581
57.8400,0.595
57.8800,0.512
57.9200,0.536
57.9600,0.586
58.0000,0.550
58.0400,0.552
58.0800,0.574
58.1200,0.559
58.1600,0.572
58.2000,0.522
58.2400,0.520
58.2800,0.564
58.3200,0.561
58.3600,0.543
58.4000,0.568
58.4400,0.495
58.4800,0.540
58.5200,0.575
58.5600,0.520
58.6000,0.587
58.6400,0.529
58.6800,0.535
58.7200,0.575
58.7600,0.557
58.8000,0.557
58.8400,0.528
58.8800,0.542
58.9200,0.551
58.9600,0.570
59.0000,0.533
59.0400,0.603
59.0800,0.547
59.1200,0.541
59.1600,0.551
59.2000,0.535
59.2400,0.552
59.2800,0.578
59.3200,0.570
59.3600,0.534
59.4000,0.571
59.4400,0.531
59.4800,0.493
59.5200,0.528
59.5600,0.519
59.6000,0.540
59.6400,0.524
59.6800,0.593
59.7200,0.556
59.7600,0.556
59.8000,0.534
59.8400,0.547
59.8800,0.565
59.9200,0.517
59.9600,0.505
60.0000,0.545
60.0400,0.534
60.0800,0.527
60.1200,0.525
60.1600,0.521
60.2000,0.526
60.2400,0.577
60.2800,0.539
60.3200,0.505
60.3600,0.600
60.4000,0.503
60.4400,0.522
60.4800,0.518
60.5200,0.491
60.5600,0.557
60.6000,0.496
60.6400,0.576
60.6800,0.526
60.7200,0.531
60.7600,0.538
60.8000,0.520
60.8400,0.521
60.8800,0.561
60.9200,0.536
60.9600,0.526
61.0000,0.514
61.0400,0.523
61.0800,0.507
61.1200,0.530
61.1600,0.519
61.2000,0.534
61.2400,0.585
61.2800,0.559
61.3200,0.595
61.3600,0.522
61.4000,0.559
61.4400,0.583
61.4800,0.566
61.5200,0.554
61.5600,0.600
61.6000,0.539
61.6400,0.597
61.6800,0.582
61.7200,0.622
61.7600,0.661
61.8000,0.692
61.8400,0.702
61.8800,0.749
61.9200,0.847
61.9600,0.891
62.0000,0.961
62.0400,1.073
62.0800,1.217
62.1200,1.314
62.1600,1.479
62.2000,1.596
62.2400,1.793
62.2800,1.813
62.3200,1.874
62.3600,1.937
62.4000,2.027
62.4400,1.943
62.4800,1.954
62.5200,1.802
62.5600,1.837
62.6000,1.711
62.6400,1.597
62.6800,1.412
62.7200,1.322
62.7600,1.171
62.8000,1.075
62.8400,0.939
62.8800,0.862
62.9200,0.716
62.9600,0.655
63.0000,0.636
63.0400,0.636
63.0800,0.616
63.1200,0.579
63.1600,0.562
63.2000,0.511
63.2400,0.533
63.2800,0.522
63.3200,0.490
63.3600,0.514
63.4000,0.518
63.4400,0.494
63.4800,0.473
63.5200,0.491
63.5600,0.490
63.6000,0.495
63.6400,0.486
63.6800,0.469
63.7200,0.458
63.7600,0.460
63.8000,0.475
63.8400,0.480
63.8800,0.477
63.9200,0.491
63.9600,0.529
64.0000,0.487
64.0400,0.475
64.0800,0.440
64.1200,0.502
64.1600,0.463
64.2000,0.466
64.2400,0.436
64.2800,0.474
64.3200,0.500
64.3600,0.435
64.4000,0.488
64.4400,0.473
64.4800,0.456
64.5200,0.476
64.5600,0.464
64.6000,0.445
64.6400,0.467
64.6800,0.486
64.7200,0.419
64.7600,0.490
64.8000,0.475
64.8400,0.473
64.8800,0.446
64.9200,0.479
64.9600,0.470
65.0000,0.482
65.0400,0.487
65.0800,0.443
65.1200,0.479
65.1600,0.421
65.2000,0.505
65.2400,0.514
65.2800,0.453
65.3200,0.498
65.3600,0.453
65.4000,0.512
65.4400,0.502
65.4800,0.492
65.5200,0.487
65.5600,0.508
65.6000,0.506
65.6400,0.562
65.6800,0.577
65.7200,0.501
65.7600,0.522
65.8000,0.567
65.8400,0.567
65.8800,0.557
65.9200,0.611
65.9600,0.563
66.0000,0.569
66.0400,0.574
66.0800,0.633
66.1200,0.568
66.1600,0.621
66.2000,0.569
66.2400,0.572
66.2800,0.558
66.3200,0.589
66.3600,0.603
66.4000,0.559
66.4400,0.536
66.4800,0.565
66.5200,0.533
66.5600,0.536
66.6000,0.549
66.6400,0.500
66.6800,0.496
66.7200,0.504
66.7600,0.499
66.8000,0.532
66.8400,0.496
66.8800,0.490
66.9200,0.468
66.9600,0.489
67.0000,0.500
67.0400,0.437
67.0800,0.476
67.1200,0.424
67.1600,0.453
67.2000,0.429
67.2400,0.445
67.2800,0.445
67.3200,0.405
67.3600,0.451
67.4000,0.414
67.4400,0.384
67.4800,0.425
67.5200,0.471
67.5600,0.437
67.6000,0.407
67.6400,0.442
67.6800,0.416
67.7200,0.446
67.7600,0.435
67.8000,0.443
67.8400,0.461
67.8800,0.413
67.9200,0.381
67.9600,0.426
68.0000,0.424
68.0400,0.393
68.0800,0.414
68.1200,0.376
68.1600,0.399
68.2000,0.345
68.2400,0.414
68.2800,0.394
68.3200,0.405
68.3600,0.379
68.4000,0.400
68.4400,0.398
68.4800,0.388
68.5200,0.392
68.5600,0.383
68.6000,0.413
68.6400,0.418
68.6800,0.438
68.7200,0.391
68.7600,0.387
68.8000,0.376
68.8400,0.348
68.8800,0.397
68.9200,0.390
68.9600,0.379
69.0000,0.359
69.0400,0.367
69.0800,0.382
69.1200,0.397
69.1600,0.379
69.2000,0.353
69.2400,0.360
69.2800,0.423
69.3200,0.374
69.3600,0.383
69.4000,0.373
69.4400,0.385
69.4800,0.389
69.5200,0.386
69.5600,0.355
69.6000,0.368
69.6400,0.382
69.6800,0.339
69.7200,0.375
69.7600,0.381
69.8000,0.406
69.8400,0.395
69.8800,0.413
69.9200,0.371
69.9600,0.368
70.0000,0.386
70.0400,0.400
70.0800,0.394
70.1200,0.418
70.1600,0.410
70.2000,0.434
70.2400,0.403
70.2800,0.412
70.3200,0.421
70.3600,0.469
70.4000,0.459
70.4400,0.499
70.4800,0.559
70.5200,0.536
70.5600,0.567
70.6000,0.603
70.6400,0.672
70.6800,0.691
70.7200,0.598
70.7600,0.677
70.8000,0.603
70.8400,0.608
70.8800,0.660
70.9200,0.605
70.9600,0.590
71.0000,0.570
71.0400,0.534
71.0800,0.489
71.1200,0.561
71.1600,0.475
71.2000,0.443
71.2400,0.421
71.2800,0.421
71.3200,0.450
71.3600,0.429
71.4000,0.405
71.4400,0.407
71.4800,0.408
71.5200,0.371
71.5600,0.382
71.6000,0.365
71.6400,0.392
71.6800,0.376
71.7200,0.336
71.7600,0.341
71.8000,0.347
71.8400,0.371
71.8800,0.387
71.9200,0.379
71.9600,0.362
72.0000,0.376
72.0400,0.354
72.0800,0.396
72.1200,0.393
72.1600,0.376
72.2000,0.387
72.2400,0.396
72.2800,0.378
72.3200,0.409
72.3600,0.347
72.4000,0.347
72.4400,0.366
72.4800,0.352
72.5200,0.362
72.5600,0.369
72.6000,0.385
72.6400,0.350
72.6800,0.368
72.7200,0.382
72.7600,0.353
72.8000,0.372
72.8400,0.338
72.8800,0.332
72.9200,0.410
72.9600,0.343
73.0000,0.336
73.0400,0.351
73.0800,0.358
73.1200,0.333
73.1600,0.378
73.2000,0.396
73.2400,0.344
73.2800,0.329
73.3200,0.337
73.3600,0.338
73.4000,0.361
73.4400,0.333
73.4800,0.336
73.5200,0.311
73.5600,0.332
73.6000,0.345
73.6400,0.346
73.6800,0.333
73.7200,0.372
73.7600,0.319
73.8000,0.307
73.8400,0.328
73.8800,0.315
73.9200,0.324
73.9600,0.336
74.0000,0.330
74.0400,0.342
74.0800,0.325
74.1200,0.330
74.1600,0.352
74.2000,0.317
74.2400,0.344
74.2800,0.355
74.3200,0.329
74.3600,0.285
74.4000,0.324
74.4400,0.323
74.4800,0.327
74.5200,0.369
74.5600,0.334
74.6000,0.327
74.6400,0.334
74.6800,0.317
74.7200,0.316
74.7600,0.321
74.8000,0.336
74.8400,0.296
74.8800,0.328
74.9200,0.286
74.9600,0.351
75.0000,0.319
75.0400,0.302
75.0800,0.342
75.1200,0.330
75.1600,0.344
75.2000,0.333
75.2400,0.290
75.2800,0.352
75.3200,0.339
75.3600,0.367
75.4000,0.341
75.4400,0.314
75.4800,0.338
75.5200,0.307
75.5600,0.312
75.6000,0.309
75.6400,0.310
75.6800,0.316
75.7200,0.329
75.7600,0.344
75.8000,0.297
75.8400,0.332
75.8800,0.326
75.9200,0.330
75.9600,0.347
76.0000,0.360
76.0400,0.328
76.0800,0.326
76.1200,0.308
76.1600,0.344
76.2000,0.325
76.2400,0.337
76.2800,0.345
76.3200,0.309
76.3600,0.328
76.4000,0.334
76.4400,0.346
76.4800,0.377
76.5200,0.353
76.5600,0.333
76.6000,0.339
76.6400,0.349
76.6800,0.337
76.7200,0.361
76.7600,0.351
76.8000,0.344
76.8400,0.367
76.8800,0.355
76.9200,0.340
76.9600,0.354
77.0000,0.353
77.0400,0.367
77.0800,0.373
77.1200,0.349
77.1600,0.351
77.2000,0.344
77.2400,0.351
77.2800,0.360
77.3200,0.382
77.3600,0.380
77.4000,0.388
77.4400,0.386
77.4800,0.412
77.5200,0.394
77.5600,0.356
77.6000,0.415
77.6400,0.397
77.6800,0.450
77.7200,0.397
77.7600,0.417
77.8000,0.481
77.8400,0.445
77.8800,0.469
77.9200,0.538
77.9600,0.540
78.0000,0.557
78.0400,0.591
78.0800,0.613
78.1200,0.703
78.1600,0.732
78.2000,0.777
78.2400,0.938
78.2800,0.946
78.3200,1.206
78.3600,1.376
78.4000,1.450
78.4400,1.620
78.4800,1.770
78.5200,1.876
78.5600,2.014
78.6000,2.248
78.6400,2.352
78.6800,2.393
78.7200,2.354
78.7600,2.375
78.8000,2.340
78.8400,2.307
78.8800,2.245
78.9200,2.130
78.9600,2.145
79.0000,2.008
79.0400,1.830
79.0800,1.641
79.1200,1.603
79.1600,1.430
79.2000,1.284
79.2400,1.206
79.2800,1.089
79.3200,0.965
79.3600,0.881
79.4000,0.853
79.4400,0.779
79.4800,0.757
79.5200,0.645
79.5600,0.629
79.6000,0.546
79.6400,0.583
79.6800,0.559
79.7200,0.528
79.7600,0.546
79.8000,0.503
79.8400,0.500
79.8800,0.473
79.9200,0.490
79.9600,0.492
80.0000,0.475
