theta,intensity
5.0000,7.356
5.0400,7.312
5.0800,7.390
5.1200,7.335
5.1600,7.209
5.2000,7.114
5.2400,6.902
5.2800,6.920
5.3200,6.706
5.3600,6.845
5.4000,6.715
5.4400,6.589
5.4800,6.383
5.5200,6.301
5.5600,6.215
5.6000,6.167
5.6400,5.860
5.6800,5.684
5.7200,5.960
5.7600,5.873
5.8000,5.523
5.8400,5.595
5.8800,5.392
5.9200,5.454
5.9600,5.101
6.0000,5.128
6.0400,5.100
6.0800,5.009
6.1200,5.041
6.1600,4.747
6.2000,4.767
6.2400,4.793
6.2800,4.577
6.3200,4.728
6.3600,4.582
6.4000,4.351
6.4400,4.521
6.4800,4.495
6.5200,4.436
6.5600,4.383
6.6000,4.410
6.6400,4.374
6.6800,4.289
6.7200,4.464
6.7600,4.201
6.8000,4.263
6.8400,4.117
6.8800,4.285
6.9200,4.130
6.9600,4.197
7.0000,3.996
7.0400,4.068
7.0800,4.185
7.1200,4.141
7.1600,4.101
7.2000,4.095
7.2400,4.155
7.2800,4.119
7.3200,4.221
7.3600,4.154
7.4000,3.930
7.4400,4.176
7.4800,4.022
7.5200,4.122
7.5600,4.022
7.6000,3.903
7.6400,3.932
7.6800,4.015
7.7200,3.926
7.7600,3.928
7.8000,3.958
7.8400,3.999
7.8800,4.060
7.9200,3.999
7.9600,3.986
8.0000,4.059
8.0400,3.892
8.0800,4.010
8.1200,3.943
8.1600,4.050
8.2000,4.016
8.2400,3.932
8.2800,3.933
8.3200,3.985
8.3600,4.001
8.4000,3.805
8.4400,3.896
8.4800,3.985
8.5200,3.933
8.5600,3.800
8.6000,3.810
8.6400,3.912
8.6800,3.949
8.7200,3.899
8.7600,3.633
8.8000,3.887
8.8400,3.965
8.8800,3.944
8.9200,3.836
8.9600,3.906
9.0000,3.837
9.0400,3.798
9.0800,3.690
9.1200,3.849
9.1600,3.954
9.2000,3.723
9.2400,3.740
9.2800,3.792
9.3200,3.754
9.3600,3.773
9.4000,3.670
9.4400,3.707
9.4800,3.671
9.5200,3.736
9.5600,3.634
9.6000,3.793
9.6400,3.771
9.6800,3.744
9.7200,3.662
9.7600,3.718
9.8000,3.612
9.8400,3.770
9.8800,3.668
9.9200,3.621
9.9600,3.686
10.0000,3.727
10.0400,3.633
10.0800,3.601
10.1200,3.637
10.1600,3.570
10.2000,3.718
10.2400,3.619
10.2800,3.644
10.3200,3.807
10.3600,3.753
10.4000,3.553
10.4400,3.759
10.4800,3.701
10.5200,3.637
10.5600,3.724
10.6000,3.778
10.6400,3.660
10.6800,3.640
10.7200,3.743
10.7600,3.515
10.8000,3.711
10.8400,3.664
10.8800,3.609
10.9200,3.606
10.9600,3.677
11.0000,3.433
11.0400,3.683
11.0800,3.540
11.1200,3.561
11.1600,3.607
11.2000,3.740
11.2400,3.629
11.2800,3.462
11.3200,3.384
11.3600,3.336
11.4000,3.476
11.4400,3.668
11.4800,3.497
11.5200,3.647
11.5600,3.465
11.6000,3.621
11.6400,3.616
11.6800,3.566
11.7200,3.408
11.7600,3.601
11.8000,3.555
11.8400,3.489
11.8800,3.494
11.9200,3.601
11.9600,3.456
12.0000,3.423
12.0400,3.564
12.0800,3.499
12.1200,3.615
12.1600,3.523
12.2000,3.440
12.2400,3.513
12.2800,3.533
12.3200,3.537
12.3600,3.378
12.4000,3.461
12.4400,3.477
12.4800,3.388
12.5200,3.426
12.5600,3.390
12.6000,3.550
12.6400,3.388
12.6800,3.600
12.7200,3.374
12.7600,3.334
12.8000,3.220
12.8400,3.369
12.8800,3.412
12.9200,3.474
12.9600,3.272
13.0000,3.429
13.0400,3.398
13.0800,3.411
13.1200,3.503
13.1600,3.364
13.2000,3.307
13.2400,3.466
13.2800,3.312
13.3200,3.389
13.3600,3.452
13.4000,3.466
13.4400,3.356
13.4800,3.448
13.5200,3.388
13.5600,3.383
13.6000,3.376
13.6400,3.386
13.6800,3.124
13.7200,3.233
13.7600,3.466
13.8000,3.313
13.8400,3.347
13.8800,3.183
13.9200,3.219
13.9600,3.378
14.0000,3.268
14.0400,3.388
14.0800,3.235
14.1200,3.277
14.1600,3.327
14.2000,3.346
14.2400,3.302
14.2800,3.209
14.3200,3.268
14.3600,3.140
14.4000,3.237
14.4400,3.203
14.4800,3.305
14.5200,3.146
14.5600,3.169
14.6000,3.258
14.6400,3.340
14.6800,3.183
14.7200,3.188
14.7600,3.091
14.8000,3.187
14.8400,3.240
14.8800,3.182
14.9200,3.284
14.9600,3.196
15.0000,3.191
15.0400,3.199
15.0800,3.166
15.1200,3.121
15.1600,3.188
15.2000,3.248
15.2400,3.252
15.2800,3.196
15.3200,3.068
15.3600,3.056
15.4000,3.230
15.4400,3.174
15.4800,3.114
15.5200,3.171
15.5600,3.134
15.6000,3.133
15.6400,3.143
15.6800,3.175
15.7200,3.085
15.7600,2.960
15.8000,3.092
15.8400,3.093
15.8800,3.059
15.9200,3.114
15.9600,3.048
16.0000,3.086
16.0400,3.002
16.0800,3.025
16.1200,3.122
16.1600,3.133
16.2000,3.147
16.2400,3.139
16.2800,3.112
16.3200,3.032
16.3600,3.131
16.4000,3.100
16.4400,3.007
16.4800,3.054
16.5200,3.016
16.5600,3.080
16.6000,3.119
16.6400,2.874
16.6800,2.947
16.7200,3.050
16.7600,3.084
16.8000,3.041
16.8400,3.029
16.8800,3.079
16.9200,2.967
16.9600,3.006
17.0000,3.142
17.0400,2.972
17.0800,2.824
17.1200,3.018
17.1600,2.847
17.2000,3.047
17.2400,3.009
17.2800,2.890
17.3200,2.976
17.3600,2.907
17.4000,2.829
17.4400,2.956
17.4800,2.836
17.5200,2.905
17.5600,2.985
17.6000,3.018
17.6400,2.842
17.6800,2.973
17.7200,2.948
17.7600,2.950
17.8000,2.780
17.8400,2.944
17.8800,2.878
17.9200,2.982
17.9600,2.970
18.0000,3.007
18.0400,2.955
18.0800,3.007
18.1200,2.704
18.1600,2.757
18.2000,2.978
18.2400,2.968
18.2800,2.970
18.3200,2.975
18.3600,2.851
18.4000,2.772
18.4400,2.856
18.4800,2.828
18.5200,2.893
18.5600,2.785
18.6000,2.834
18.6400,2.896
18.6800,2.775
18.7200,2.912
18.7600,2.818
18.8000,2.827
18.8400,2.781
18.8800,2.885
18.9200,2.917
18.9600,2.812
19.0000,2.834
19.0400,2.974
19.0800,2.785
19.1200,2.853
19.1600,2.801
19.2000,2.930
19.2400,2.695
19.2800,2.826
19.3200,2.778
19.3600,2.750
19.4000,2.758
19.4400,2.757
19.4800,2.719
19.5200,2.692
19.5600,2.675
19.6000,2.726
19.6400,2.772
19.6800,2.824
19.7200,2.933
19.7600,2.792
19.8000,2.771
19.8400,2.738
19.8800,2.680
19.9200,2.771
19.9600,2.772
20.0000,2.711
20.0400,2.622
20.0800,2.724
20.1200,2.765
20.1600,2.828
20.2000,2.670
20.2400,2.731
20.2800,2.715
20.3200,2.778
20.3600,2.714
20.4000,2.588
20.4400,2.704
20.4800,2.770
20.5200,2.697
20.5600,2.603
20.6000,2.733
20.6400,2.735
20.6800,2.660
20.7200,2.676
20.7600,2.560
20.8000,2.730
20.8400,2.684
20.8800,2.650
20.9200,2.630
20.9600,2.619
21.0000,2.550
21.0400,2.733
21.0800,2.609
21.1200,2.744
21.1600,2.609
21.2000,2.554
21.2400,2.693
21.2800,2.566
21.3200,2.649
21.3600,2.672
21.4000,2.488
21.4400,2.458
21.4800,2.439
21.5200,2.754
21.5600,2.559
21.6000,2.540
21.6400,2.670
21.6800,2.535
21.7200,2.635
21.7600,2.525
21.8000,2.645
21.8400,2.591
21.8800,2.584
21.9200,2.644
21.9600,2.532
22.0000,2.652
22.0400,2.633
22.0800,2.453
22.1200,2.477
22.1600,2.557
22.2000,2.572
22.2400,2.667
22.2800,2.541
22.3200,2.539
22.3600,2.412
22.4000,2.443
22.4400,2.558
22.4800,2.511
22.5200,2.565
22.5600,2.526
22.6000,2.583
22.6400,2.529
22.6800,2.564
22.7200,2.561
22.7600,2.415
22.8000,2.434
22.8400,2.610
22.8800,2.491
22.9200,2.392
22.9600,2.460
23.0000,2.382
23.0400,2.386
23.0800,2.529
23.1200,2.501
23.1600,2.525
23.2000,2.525
23.2400,2.407
23.2800,2.435
23.3200,2.484
23.3600,2.498
23.4000,2.425
23.4400,2.336
23.4800,2.498
23.5200,2.474
23.5600,2.408
23.6000,2.380
23.6400,2.435
23.6800,2.334
23.7200,2.337
23.7600,2.500
23.8000,2.372
23.8400,2.433
23.8800,2.421
23.9200,2.468
23.9600,2.470
24.0000,2.495
24.0400,2.389
24.0800,2.365
24.1200,2.506
24.1600,2.453
24.2000,2.592
24.2400,2.483
24.2800,2.472
24.3200,2.333
24.3600,2.475
24.4000,2.447
24.4400,2.383
24.4800,2.448
24.5200,2.480
24.5600,2.536
24.6000,2.610
24.6400,2.447
24.6800,2.607
24.7200,2.560
24.7600,2.748
24.8000,2.693
24.8400,2.663
24.8800,2.738
24.9200,2.763
24.9600,2.698
25.0000,2.656
25.0400,2.755
25.0800,2.832
25.1200,2.695
25.1600,2.615
25.2000,2.625
25.2400,2.467
25.2800,2.404
25.3200,2.464
25.3600,2.494
25.4000,2.470
25.4400,2.424
25.4800,2.448
25.5200,2.431
25.5600,2.275
25.6000,2.284
25.6400,2.360
25.6800,2.337
25.7200,2.244
25.7600,2.272
25.8000,2.350
25.8400,2.358
25.8800,2.229
25.9200,2.389
25.9600,2.337
26.0000,2.289
26.0400,2.374
26.0800,2.288
26.1200,2.257
26.1600,2.280
26.2000,2.315
26.2400,2.326
26.2800,2.252
26.3200,2.109
26.3600,2.291
26.4000,2.078
26.4400,2.202
26.4800,2.190
26.5200,2.244
26.5600,2.304
26.6000,2.215
26.6400,2.153
26.6800,2.248
26.7200,2.177
26.7600,2.316
26.8000,2.061
26.8400,2.032
26.8800,2.246
26.9200,2.183
26.9600,2.144
27.0000,2.197
27.0400,2.132
27.0800,2.101
27.1200,2.146
27.1600,2.225
27.2000,2.187
27.2400,2.074
27.2800,2.187
27.3200,2.153
27.3600,2.188
27.4000,2.254
27.4400,2.104
27.4800,2.217
27.5200,2.174
27.5600,2.133
27.6000,2.119
27.6400,2.155
27.6800,2.280
27.7200,2.261
27.7600,2.207
27.8000,2.126
27.8400,2.346
27.8800,2.180
27.9200,2.280
27.9600,2.189
28.0000,2.221
28.0400,2.220
28.0800,2.271
28.1200,2.216
28.1600,2.329
28.2000,2.333
28.2400,2.298
28.2800,2.259
28.3200,2.397
28.3600,2.268
28.4000,2.228
28.4400,2.284
28.4800,2.374
28.5200,2.344
28.5600,2.252
28.6000,2.288
28.6400,2.306
28.6800,2.223
28.7200,2.367
28.7600,2.339
28.8000,2.266
28.8400,2.251
28.8800,2.191
28.9200,2.228
28.9600,2.249
29.0000,2.336
29.0400,2.395
29.0800,2.246
29.1200,2.375
29.1600,2.593
29.2000,2.556
29.2400,2.676
29.2800,2.759
29.3200,2.981
29.3600,2.929
29.4000,2.807
29.4400,2.774
29.4800,2.577
29.5200,2.530
29.5600,2.263
29.6000,2.280
29.6400,2.186
29.6800,2.240
29.7200,2.086
29.7600,2.066
29.8000,2.101
29.8400,2.046
29.8800,1.895
29.9200,1.962
29.9600,1.957
30.0000,2.012
30.0400,2.032
30.0800,2.059
30.1200,1.906
30.1600,1.961
30.2000,1.854
30.2400,1.887
30.2800,1.882
30.3200,1.801
30.3600,1.873
30.4000,1.989
30.4400,1.903
30.4800,1.805
30.5200,1.799
30.5600,1.791
30.6000,1.919
30.6400,1.785
30.6800,1.967
30.7200,1.991
30.7600,1.821
30.8000,1.623
30.8400,1.811
30.8800,1.847
30.9200,1.890
30.9600,1.849
31.0000,1.707
31.0400,1.779
31.0800,1.914
31.1200,1.789
31.1600,1.787
31.2000,1.730
31.2400,1.812
31.2800,1.836
31.3200,1.795
31.3600,1.771
31.4000,1.829
31.4400,1.729
31.4800,1.869
31.5200,1.632
31.5600,1.776
31.6000,1.677
31.6400,1.689
31.6800,1.715
31.7200,1.729
31.7600,1.738
31.8000,1.682
31.8400,1.675
31.8800,1.780
31.9200,1.770
31.9600,1.719
32.0000,1.829
32.0400,1.743
32.0800,1.692
32.1200,1.701
32.1600,1.721
32.2000,1.690
32.2400,1.727
32.2800,1.774
32.3200,1.693
32.3600,1.702
32.4000,1.681
32.4400,1.668
32.4800,1.657
32.5200,1.634
32.5600,1.651
32.6000,1.682
32.6400,1.708
32.6800,1.603
32.7200,1.609
32.7600,1.609
32.8000,1.609
32.8400,1.693
32.8800,1.579
32.9200,1.732
32.9600,1.781
33.0000,1.668
33.0400,1.772
33.0800,1.625
33.1200,1.671
33.1600,1.717
33.2000,1.642
33.2400,1.586
33.2800,1.635
33.3200,1.501
33.3600,1.651
33.4000,1.757
33.4400,1.568
33.4800,1.699
33.5200,1.701
33.5600,1.674
33.6000,1.588
33.6400,1.635
33.6800,1.546
33.7200,1.476
33.7600,1.621
33.8000,1.557
33.8400,1.604
33.8800,1.477
33.9200,1.561
33.9600,1.570
34.0000,1.599
34.0400,1.589
34.0800,1.601
34.1200,1.621
34.1600,1.517
34.2000,1.501
34.2400,1.548
34.2800,1.592
34.3200,1.507
34.3600,1.596
34.4000,1.581
34.4400,1.576
34.4800,1.617
34.5200,1.455
34.5600,1.653
34.6000,1.585
34.6400,1.640
34.6800,1.569
34.7200,1.482
34.7600,1.562
34.8000,1.486
34.8400,1.565
34.8800,1.550
34.9200,1.527
34.9600,1.531
35.0000,1.590
35.0400,1.580
35.0800,1.594
35.1200,1.503
35.1600,1.450
35.2000,1.518
35.2400,1.476
35.2800,1.525
35.3200,1.406
35.3600,1.566
35.4000,1.477
35.4400,1.488
35.4800,1.472
35.5200,1.490
35.5600,1.393
35.6000,1.476
35.6400,1.519
35.6800,1.464
35.7200,1.493
35.7600,1.294
35.8000,1.506
35.8400,1.509
35.8800,1.517
35.9200,1.429
35.9600,1.555
36.0000,1.475
36.0400,1.455
36.0800,1.395
36.1200,1.475
36.1600,1.414
36.2000,1.437
36.2400,1.366
36.2800,1.463
36.3200,1.484
36.3600,1.403
36.4000,1.422
36.4400,1.427
36.4800,1.446
36.5200,1.459
36.5600,1.476
36.6000,1.443
36.6400,1.524
36.6800,1.467
36.7200,1.415
36.7600,1.429
36.8000,1.401
36.8400,1.395
36.8800,1.517
36.9200,1.455
36.9600,1.517
37.0000,1.440
37.0400,1.449
37.0800,1.450
37.1200,1.450
37.1600,1.515
37.2000,1.431
37.2400,1.461
37.2800,1.489
37.3200,1.469
37.3600,1.508
37.4000,1.519
37.4400,1.431
37.4800,1.523
37.5200,1.436
37.5600,1.421
37.6000,1.462
37.6400,1.435
37.6800,1.527
37.7200,1.549
37.7600,1.543
37.8000,1.590
37.8400,1.610
37.8800,1.578
37.9200,1.690
37.9600,1.756
38.0000,1.692
38.0400,1.856
38.0800,1.916
38.1200,2.027
38.1600,2.217
38.2000,2.638
38.2400,2.932
38.2800,3.298
38.3200,3.863
38.3600,4.321
38.4000,4.828
38.4400,5.217
38.4800,5.748
38.5200,6.330
38.5600,6.731
38.6000,7.213
38.6400,8.105
38.6800,8.636
38.7200,10.241
38.7600,11.463
38.8000,13.199
38.8400,14.718
38.8800,15.893
38.9200,15.770
38.9600,14.864
39.0000,13.333
39.0400,11.255
39.0800,9.433
39.1200,7.468
39.1600,6.055
39.2000,4.921
39.2400,4.269
39.2800,3.503
39.3200,3.071
39.3600,2.770
39.4000,2.603
39.4400,2.341
39.4800,2.301
39.5200,2.246
39.5600,2.028
39.6000,2.019
39.6400,1.850
39.6800,1.799
39.7200,1.917
39.7600,1.703
39.8000,1.724
39.8400,1.628
39.8800,1.682
39.9200,1.588
39.9600,1.517
40.0000,1.569
40.0400,1.448
40.0800,1.531
40.1200,1.555
40.1600,1.500
40.2000,1.467
40.2400,1.383
40.2800,1.479
40.3200,1.446
40.3600,1.459
40.4000,1.422
40.4400,1.374
40.4800,1.376
40.5200,1.407
40.5600,1.446
40.6000,1.453
40.6400,1.387
40.6800,1.418
40.7200,1.432
40.7600,1.370
40.8000,1.401
40.8400,1.345
40.8800,1.397
40.9200,1.416
40.9600,1.297
41.0000,1.318
41.0400,1.373
41.0800,1.453
41.1200,1.447
41.1600,1.491
41.2000,1.453
41.2400,1.461
41.2800,1.568
41.3200,1.555
41.3600,1.530
41.4000,1.540
41.4400,1.645
41.4800,1.701
41.5200,1.882
41.5600,1.959
41.6000,2.023
41.6400,2.227
41.6800,2.348
41.7200,2.568
41.7600,2.781
41.8000,3.231
41.8400,3.680
41.8800,4.026
41.9200,4.253
41.9600,4.485
42.0000,4.594
42.0400,4.596
42.0800,4.467
42.1200,4.144
42.1600,3.783
42.2000,3.483
42.2400,3.111
42.2800,2.739
42.3200,2.417
42.3600,2.271
42.4000,1.991
42.4400,1.797
42.4800,1.808
42.5200,1.672
42.5600,1.655
42.6000,1.530
42.6400,1.388
42.6800,1.448
42.7200,1.370
42.7600,1.282
42.8000,1.288
42.8400,1.291
42.8800,1.203
42.9200,1.179
42.9600,1.147
43.0000,1.177
43.0400,1.137
43.0800,1.210
43.1200,1.133
43.1600,1.266
43.2000,1.187
43.2400,1.103
43.2800,1.044
43.3200,1.166
43.3600,1.129
43.4000,1.114
43.4400,1.149
43.4800,1.136
43.5200,1.149
43.5600,1.133
43.6000,1.138
43.6400,1.053
43.6800,1.077
43.7200,1.063
43.7600,1.025
43.8000,1.138
43.8400,1.089
43.8800,1.049
43.9200,1.114
43.9600,1.140
44.0000,1.149
44.0400,1.086
44.0800,1.128
44.1200,1.094
44.1600,1.180
44.2000,1.200
44.2400,1.131
44.2800,1.217
44.3200,1.415
44.3600,1.330
44.4000,1.385
44.4400,1.504
44.4800,1.590
44.5200,1.743
44.5600,1.851
44.6000,1.887
44.6400,1.951
44.6800,2.027
44.7200,2.090
44.7600,2.175
44.8000,2.165
44.8400,2.147
44.8800,2.390
44.9200,2.174
44.9600,2.114
45.0000,2.121
45.0400,1.984
45.0800,2.011
45.1200,1.797
45.1600,1.662
45.2000,1.621
45.2400,1.456
45.2800,1.327
45.3200,1.350
45.3600,1.338
45.4000,1.159
45.4400,1.172
45.4800,1.147
45.5200,1.108
45.5600,1.053
45.6000,1.121
45.6400,1.024
45.6800,1.061
45.7200,0.981
45.7600,0.994
45.8000,1.054
45.8400,0.974
45.8800,0.947
45.9200,0.998
45.9600,0.954
46.0000,0.892
46.0400,1.003
46.0800,0.908
46.1200,0.999
46.1600,0.955
46.2000,0.929
46.2400,1.063
46.2800,0.955
46.3200,1.035
46.3600,0.948
46.4000,0.855
46.4400,1.006
46.4800,0.942
46.5200,0.923
46.5600,0.983
46.6000,0.872
46.6400,0.996
46.6800,0.914
46.7200,0.898
46.7600,0.946
46.8000,0.911
46.8400,0.895
46.8800,0.845
46.9200,0.896
46.9600,0.908
47.0000,0.935
47.0400,1.008
47.0800,0.890
47.1200,0.998
47.1600,0.855
47.2000,0.902
47.2400,0.924
47.2800,0.870
47.3200,0.900
47.3600,0.890
47.4000,0.888
47.4400,0.856
47.4800,0.854
47.5200,0.853
47.5600,0.898
47.6000,0.841
47.6400,0.880
47.6800,0.822
47.7200,0.878
47.7600,0.846
47.8000,0.842
47.8400,0.874
47.8800,0.837
47.9200,0.849
47.9600,0.881
48.0000,0.906
48.0400,0.846
48.0800,0.854
48.1200,0.926
48.1600,0.831
48.2000,0.811
48.2400,0.961
48.2800,0.839
48.3200,0.803
48.3600,0.756
48.4000,0.810
48.4400,0.847
48.4800,0.886
48.5200,0.857
48.5600,0.839
48.6000,0.929
48.6400,0.856
48.6800,0.800
48.7200,0.820
48.7600,0.827
48.8000,0.850
48.8400,0.902
48.8800,0.808
48.9200,0.932
48.9600,0.907
49.0000,0.854
49.0400,0.843
49.0800,0.820
49.1200,0.942
49.1600,0.839
49.2000,0.836
49.2400,0.909
49.2800,0.962
49.3200,0.952
49.3600,1.034
49.4000,1.058
49.4400,1.186
49.4800,1.104
49.5200,1.167
49.5600,1.192
49.6000,1.157
49.6400,1.041
49.6800,0.947
49.7200,0.971
49.7600,0.951
49.8000,0.949
49.8400,0.848
49.8800,0.818
49.9200,0.849
49.9600,0.863
50.0000,0.865
50.0400,0.830
50.0800,0.783
50.1200,0.783
50.1600,0.895
50.2000,0.827
50.2400,0.880
50.2800,0.943
50.3200,0.919
50.3600,0.909
50.4000,0.899
50.4400,0.902
50.4800,0.976
50.5200,0.890
50.5600,0.994
50.6000,0.978
50.6400,0.918
50.6800,1.092
50.7200,1.058
50.7600,1.124
50.8000,1.124
50.8400,1.076
50.8800,1.015
50.9200,1.075
50.9600,1.051
51.0000,1.096
51.0400,1.107
51.0800,1.145
51.1200,1.134
51.1600,1.069
51.2000,1.177
51.2400,1.181
51.2800,1.094
51.3200,1.070
51.3600,1.012
51.4000,1.056
51.4400,1.053
51.4800,1.073
51.5200,1.076
51.5600,1.099
51.6000,1.017
51.6400,1.013
51.6800,1.017
51.7200,1.022
51.7600,0.918
51.8000,0.922
51.8400,0.914
51.8800,0.929
51.9200,0.880
51.9600,0.866
52.0000,0.875
52.0400,0.848
52.0800,0.878
52.1200,0.825
52.1600,0.784
52.2000,0.849
52.2400,0.808
52.2800,0.754
52.3200,0.817
52.3600,0.799
52.4000,0.807
52.4400,0.766
52.4800,0.784
52.5200,0.760
52.5600,0.723
52.6000,0.756
52.6400,0.683
52.6800,0.808
52.7200,0.777
52.7600,0.754
52.8000,0.826
52.8400,0.740
52.8800,0.758
52.9200,0.788
52.9600,0.730
53.0000,0.732
53.0400,0.696
53.0800,0.701
53.1200,0.673
53.1600,0.684
53.2000,0.685
53.2400,0.657
53.2800,0.692
53.3200,0.702
53.3600,0.700
53.4000,0.716
53.4400,0.672
53.4800,0.716
53.5200,0.652
53.5600,0.769
53.6000,0.702
53.6400,0.659
53.6800,0.703
53.7200,0.677
53.7600,0.692
53.8000,0.685
53.8400,0.690
53.8800,0.711
53.9200,0.683
53.9600,0.770
54.0000,0.680
54.0400,0.648
54.0800,0.625
54.1200,0.593
54.1600,0.612
54.2000,0.665
54.2400,0.678
54.2800,0.707
54.3200,0.717
54.3600,0.670
54.4000,0.691
54.4400,0.620
54.4800,0.671
54.5200,0.715
54.5600,0.656
54.6000,0.704
54.6400,0.675
54.6800,0.643
54.7200,0.581
54.7600,0.674
54.8000,0.654
54.8400,0.608
54.8800,0.667
54.9200,0.689
54.9600,0.639
55.0000,0.701
55.0400,0.626
55.0800,0.664
55.1200,0.644
55.1600,0.730
55.2000,0.621
55.2400,0.627
55.2800,0.593
55.3200,0.628
55.3600,0.655
55.4000,0.623
55.4400,0.661
55.4800,0.666
55.5200,0.628
55.5600,0.620
55.6000,0.629
55.6400,0.616
55.6800,0.637
55.7200,0.644
55.7600,0.612
55.8000,0.694
55.8400,0.616
55.8800,0.672
55.9200,0.628
55.9600,0.647
56.0000,0.673
56.0400,0.609
56.0800,0.650
56.1200,0.565
56.1600,0.628
56.2000,0.609
56.2400,0.630
56.2800,0.618
56.3200,0.599
56.3600,0.615
56.4000,0.640
56.4400,0.623
56.4800,0.619
56.5200,0.618
56.5600,0.668
56.6000,0.636
56.6400,0.582
56.6800,0.671
56.7200,0.635
56.7600,0.628
56.8000,0.609
56.8400,0.621
56.8800,0.610
56.9200,0.583
56.9600,0.716
57.0000,0.593
57.0400,0.621
57.0800,0.599
57.1200,0.578
57.1600,0.598
57.2000,0.641
57.2400,0.649
57.2800,0.671
57.3200,0.634
57.3600,0.591
57.4000,0.575
57.4400,0.569
57.4800,0.603
57.5200,0.630
57.5600,0.578
57.6000,0.648
57.6400,0.628
57.6800,0.621
57.7200,0.677
57.7600,0.556
57.8000,0.617
57.8400,0.614
57.8800,0.587
57.9200,0.614
57.9600,0.647
58.0000,0.559
58.0400,0.586
58.0800,0.594
58.1200,0.582
58.1600,0.590
58.2000,0.574
58.2400,0.597
58.2800,0.634
58.3200,0.551
58.3600,0.583
58.4000,0.592
58.4400,0.579
58.4800,0.609
58.5200,0.577
58.5600,0.634
58.6000,0.527
58.6400,0.596
58.6800,0.629
58.7200,0.571
58.7600,0.583
58.8000,0.546
58.8400,0.592
58.8800,0.608
58.9200,0.575
58.9600,0.599
59.0000,0.576
59.0400,0.591
59.0800,0.607
59.1200,0.692
59.1600,0.626
59.2000,0.559
59.2400,0.547
59.2800,0.542
59.3200,0.535
59.3600,0.644
59.4000,0.583
59.4400,0.614
59.4800,0.636
59.5200,0.536
59.5600,0.608
59.6000,0.593
59.6400,0.592
59.6800,0.607
59.7200,0.565
59.7600,0.687
59.8000,0.637
59.8400,0.637
59.8800,0.653
59.9200,0.618
59.9600,0.667
60.0000,0.686
60.0400,0.638
60.0800,0.677
60.1200,0.655
60.1600,0.644
60.2000,0.682
60.2400,0.644
60.2800,0.601
60.3200,0.679
60.3600,0.727
60.4000,0.783
60.4400,0.785
60.4800,0.785
60.5200,0.812
60.5600,0.871
60.6000,0.854
60.6400,0.906
60.6800,0.965
60.7200,0.970
60.7600,1.003
60.8000,1.044
60.8400,1.124
60.8800,1.106
60.9200,1.143
60.9600,1.076
61.0000,1.169
61.0400,1.111
61.0800,1.055
61.1200,1.000
61.1600,1.056
61.2000,1.000
61.2400,0.893
61.2800,0.849
61.3200,0.878
61.3600,0.765
61.4000,0.739
61.4400,0.747
61.4800,0.717
61.5200,0.637
61.5600,0.672
61.6000,0.628
61.6400,0.622
61.6800,0.583
61.7200,0.575
61.7600,0.551
61.8000,0.558
61.8400,0.504
61.8800,0.504
61.9200,0.543
61.9600,0.536
62.0000,0.494
62.0400,0.504
62.0800,0.542
62.1200,0.549
62.1600,0.525
62.2000,0.540
62.2400,0.503
62.2800,0.535
62.3200,0.489
62.3600,0.446
62.4000,0.487
62.4400,0.517
62.4800,0.462
62.5200,0.491
62.5600,0.480
62.6000,0.535
62.6400,0.489
62.6800,0.525
62.7200,0.464
62.7600,0.507
62.8000,0.470
62.8400,0.467
62.8800,0.572
62.9200,0.479
62.9600,0.495
63.0000,0.458
63.0400,0.483
63.0800,0.458
63.1200,0.434
63.1600,0.497
63.2000,0.523
63.2400,0.451
63.2800,0.510
63.3200,0.498
63.3600,0.497
63.4000,0.512
63.4400,0.487
63.4800,0.530
63.5200,0.451
63.5600,0.513
63.6000,0.488
63.6400,0.497
63.6800,0.467
63.7200,0.466
63.7600,0.386
63.8000,0.510
63.8400,0.537
63.8800,0.491
63.9200,0.427
63.9600,0.448
64.0000,0.423
64.0400,0.466
64.0800,0.386
64.1200,0.484
64.1600,0.520
64.2000,0.509
64.2400,0.485
64.2800,0.525
64.3200,0.537
64.3600,0.530
64.4000,0.505
64.4400,0.527
64.4800,0.474
64.5200,0.547
64.5600,0.536
64.6000,0.514
64.6400,0.528
64.6800,0.564
64.7200,0.600
64.7600,0.589
64.8000,0.647
64.8400,0.628
64.8800,0.626
64.9200,0.737
64.9600,0.753
65.0000,0.716
65.0400,0.769
65.0800,0.788
65.1200,0.761
65.1600,0.817
65.2000,0.823
65.2400,0.823
65.2800,0.907
65.3200,0.822
65.3600,0.880
65.4000,0.816
65.4400,0.871
65.4800,0.850
65.5200,0.828
65.5600,0.837
65.6000,0.775
65.6400,0.773
65.6800,0.749
65.7200,0.764
65.7600,0.769
65.8000,0.696
65.8400,0.625
65.8800,0.607
65.9200,0.628
65.9600,0.591
66.0000,0.587
66.0400,0.536
66.0800,0.548
66.1200,0.433
66.1600,0.504
66.2000,0.493
66.2400,0.498
66.2800,0.489
66.3200,0.436
66.3600,0.478
66.4000,0.480
66.4400,0.481
66.4800,0.493
66.5200,0.481
66.5600,0.494
66.6000,0.474
66.6400,0.512
66.6800,0.497
66.7200,0.493
66.7600,0.481
66.8000,0.544
66.8400,0.514
66.8800,0.568
66.9200,0.521
66.9600,0.523
67.0000,0.520
67.0400,0.524
67.0800,0.510
67.1200,0.525
67.1600,0.467
67.2000,0.535
67.2400,0.481
67.2800,0.468
67.3200,0.531
67.3600,0.454
67.4000,0.449
67.4400,0.475
67.4800,0.468
67.5200,0.508
67.5600,0.515
67.6000,0.530
67.6400,0.541
67.6800,0.560
67.7200,0.560
67.7600,0.594
67.8000,0.588
67.8400,0.583
67.8800,0.690
67.9200,0.684
67.9600,0.751
68.0000,0.736
68.0400,0.841
68.0800,0.941
68.1200,0.919
68.1600,1.022
68.2000,0.940
68.2400,0.929
68.2800,0.945
68.3200,1.019
68.3600,0.993
68.4000,1.027
68.4400,0.966
68.4800,1.004
68.5200,0.987
68.5600,0.882
68.6000,0.927
68.6400,0.875
68.6800,0.939
68.7200,0.881
68.7600,0.870
68.8000,0.806
68.8400,0.795
68.8800,0.708
68.9200,0.616
68.9600,0.632
69.0000,0.640
69.0400,0.625
69.0800,0.641
69.1200,0.542
69.1600,0.569
69.2000,0.516
69.2400,0.479
69.2800,0.486
69.3200,0.515
69.3600,0.492
69.4000,0.446
69.4400,0.481
69.4800,0.478
69.5200,0.413
69.5600,0.418
69.6000,0.414
69.6400,0.393
69.6800,0.475
69.7200,0.417
69.7600,0.391
69.8000,0.441
69.8400,0.372
69.8800,0.357
69.9200,0.413
69.9600,0.406
70.0000,0.325
70.0400,0.452
70.0800,0.409
70.1200,0.380
70.1600,0.379
70.2000,0.360
70.2400,0.413
70.2800,0.352
70.3200,0.440
70.3600,0.370
70.4000,0.358
70.4400,0.382
70.4800,0.391
70.5200,0.368
70.5600,0.399
70.6000,0.382
70.6400,0.355
70.6800,0.386
70.7200,0.409
70.7600,0.365
70.8000,0.366
70.8400,0.358
70.8800,0.365
70.9200,0.357
70.9600,0.383
71.0000,0.371
71.0400,0.390
71.0800,0.328
71.1200,0.382
71.1600,0.333
71.2000,0.369
71.2400,0.342
71.2800,0.357
71.3200,0.386
71.3600,0.396
71.4000,0.354
71.4400,0.339
71.4800,0.380
71.5200,0.351
71.5600,0.322
71.6000,0.356
71.6400,0.374
71.6800,0.371
71.7200,0.344
71.7600,0.377
71.8000,0.351
71.8400,0.361
71.8800,0.354
71.9200,0.390
71.9600,0.367
72.0000,0.427
72.0400,0.386
72.0800,0.348
72.1200,0.311
72.1600,0.372
72.2000,0.409
72.2400,0.358
72.2800,0.381
72.3200,0.339
72.3600,0.335
72.4000,0.336
72.4400,0.318
72.4800,0.353
72.5200,0.367
72.5600,0.349
72.6000,0.393
72.6400,0.343
72.6800,0.356
72.7200,0.320
72.7600,0.393
72.8000,0.343
72.8400,0.331
72.8800,0.341
72.9200,0.369
72.9600,0.339
73.0000,0.347
73.0400,0.336
73.0800,0.379
73.1200,0.367
73.1600,0.371
73.2000,0.357
73.2400,0.401
73.2800,0.338
73.3200,0.365
73.3600,0.374
73.4000,0.414
73.4400,0.375
73.4800,0.345
73.5200,0.359
73.5600,0.383
73.6000,0.383
73.6400,0.409
73.6800,0.360
73.7200,0.405
73.7600,0.372
73.8000,0.436
73.8400,0.450
73.8800,0.404
73.9200,0.402
73.9600,0.456
74.0000,0.437
74.0400,0.490
74.0800,0.496
74.1200,0.536
74.1600,0.523
74.2000,0.541
74.2400,0.574
74.2800,0.722
74.3200,0.733
74.3600,0.810
74.4000,0.859
74.4400,0.896
74.4800,1.069
74.5200,1.140
74.5600,1.184
74.6000,1.317
74.6400,1.400
74.6800,1.547
74.7200,1.493
74.7600,1.452
74.8000,1.467
74.8400,1.498
74.8800,1.316
74.9200,1.193
74.9600,1.194
75.0000,1.119
75.0400,0.961
75.0800,0.966
75.1200,0.815
75.1600,0.726
75.2000,0.729
75.2400,0.638
75.2800,0.593
75.3200,0.575
75.3600,0.507
75.4000,0.462
75.4400,0.496
75.4800,0.459
75.5200,0.429
75.5600,0.425
75.6000,0.442
75.6400,0.387
75.6800,0.434
75.7200,0.390
75.7600,0.410
75.8000,0.388
75.8400,0.402
75.8800,0.350
75.9200,0.365
75.9600,0.339
76.0000,0.355
76.0400,0.400
76.0800,0.398
76.1200,0.367
76.1600,0.327
76.2000,0.345
76.2400,0.401
76.2800,0.339
76.3200,0.307
76.3600,0.302
76.4000,0.330
76.4400,0.347
76.4800,0.329
76.5200,0.332
76.5600,0.333
76.6000,0.324
76.6400,0.345
76.6800,0.331
76.7200,0.327
76.7600,0.375
76.8000,0.353
76.8400,0.331
76.8800,0.318
76.9200,0.338
76.9600,0.324
77.0000,0.352
77.0400,0.342
77.0800,0.336
77.1200,0.337
77.1600,0.349
77.2000,0.348
77.2400,0.403
77.2800,0.332
77.3200,0.348
77.3600,0.355
77.4000,0.324
77.4400,0.357
77.4800,0.362
77.5200,0.395
77.5600,0.351
77.6000,0.416
77.6400,0.371
77.6800,0.380
77.7200,0.376
77.7600,0.377
77.8000,0.406
77.8400,0.411
77.8800,0.470
77.9200,0.497
77.9600,0.508
78.0000,0.482
78.0400,0.495
78.0800,0.511
78.1200,0.504
78.1600,0.595
78.2000,0.567
78.2400,0.552
78.2800,0.528
78.3200,0.633
78.3600,0.639
78.4000,0.547
78.4400,0.610
78.4800,0.556
78.5200,0.622
78.5600,0.648
78.6000,0.599
78.6400,0.597
78.6800,0.619
78.7200,0.678
78.7600,0.640
78.8000,0.670
78.8400,0.571
78.8800,0.578
78.9200,0.581
78.9600,0.583
79.0000,0.549
79.0400,0.556
79.0800,0.584
79.1200,0.512
79.1600,0.464
79.2000,0.435
79.2400,0.429
79.2800,0.462
79.3200,0.423
79.3600,0.398
79.4000,0.399
79.4400,0.373
79.4800,0.318
79.5200,0.393
79.5600,0.308
79.6000,0.294
79.6400,0.295
79.6800,0.318
79.7200,0.259
79.7600,0.313
79.8000,0.320
79.8400,0.316
79.8800,0.302
79.9200,0.322
79.9600,0.351
80.0000,0.328
