theta,intensity
5.0000,2.000
5.0400,1.985
5.0800,2.003
5.1200,1.932
5.1600,1.987
5.2000,1.937
5.2400,2.017
5.2800,1.907
5.3200,1.993
5.3600,1.911
5.4000,1.913
5.4400,1.821
5.4800,1.873
5.5200,1.866
5.5600,1.886
5.6000,1.814
5.6400,1.812
5.6800,1.826
5.7200,1.792
5.7600,1.770
5.8000,1.770
5.8400,1.781
5.8800,1.733
5.9200,1.748
5.9600,1.735
6.0000,1.666
6.0400,1.693
6.0800,1.647
6.1200,1.632
6.1600,1.653
6.2000,1.587
6.2400,1.558
6.2800,1.637
6.3200,1.620
6.3600,1.576
6.4000,1.579
6.4400,1.531
6.4800,1.515
6.5200,1.568
6.5600,1.552
6.6000,1.469
6.6400,1.511
6.6800,1.470
6.7200,1.509
6.7600,1.470
6.8000,1.468
6.8400,1.493
6.8800,1.500
6.9200,1.483
6.9600,1.454
7.0000,1.469
7.0400,1.448
7.0800,1.472
7.1200,1.451
7.1600,1.434
7.2000,1.414
7.2400,1.432
7.2800,1.420
7.3200,1.438
7.3600,1.419
7.4000,1.441
7.4400,1.438
7.4800,1.405
7.5200,1.383
7.5600,1.410
7.6000,1.433
7.6400,1.458
7.6800,1.418
7.7200,1.413
7.7600,1.434
7.8000,1.419
7.8400,1.440
7.8800,1.465
7.9200,1.402
7.9600,1.440
8.0000,1.464
8.0400,1.405
8.0800,1.420
8.1200,1.484
8.1600,1.408
8.2000,1.426
8.2400,1.463
8.2800,1.458
8.3200,1.408
8.3600,1.352
8.4000,1.431
8.4400,1.413
8.4800,1.360
8.5200,1.425
8.5600,1.406
8.6000,1.448
8.6400,1.434
8.6800,1.396
8.7200,1.408
8.7600,1.360
8.8000,1.299
8.8400,1.405
8.8800,1.378
8.9200,1.363
8.9600,1.353
9.0000,1.336
9.0400,1.427
9.0800,1.408
9.1200,1.364
9.1600,1.403
9.2000,1.405
9.2400,1.424
9.2800,1.352
9.3200,1.390
9.3600,1.380
9.4000,1.404
9.4400,1.350
9.4800,1.371
9.5200,1.342
9.5600,1.422
9.6000,1.363
9.6400,1.366
9.6800,1.354
9.7200,1.399
9.7600,1.405
9.8000,1.393
9.8400,1.358
9.8800,1.378
9.9200,1.353
9.9600,1.401
10.0000,1.328
10.0400,1.334
10.0800,1.429
10.1200,1.314
10.1600,1.342
10.2000,1.394
10.2400,1.404
10.2800,1.363
10.3200,1.334
10.3600,1.355
10.4000,1.361
10.4400,1.383
10.4800,1.361
10.5200,1.387
10.5600,1.352
10.6000,1.360
10.6400,1.386
10.6800,1.375
10.7200,1.404
10.7600,1.328
10.8000,1.351
10.8400,1.368
10.8800,1.358
10.9200,1.375
10.9600,1.335
11.0000,1.344
11.0400,1.365
11.0800,1.292
11.1200,1.335
11.1600,1.351
11.2000,1.333
11.2400,1.347
11.2800,1.326
11.3200,1.361
11.3600,1.324
11.4000,1.347
11.4400,1.361
11.4800,1.318
11.5200,1.312
11.5600,1.380
11.6000,1.319
11.6400,1.298
11.6800,1.291
11.7200,1.344
11.7600,1.320
11.8000,1.304
11.8400,1.291
11.8800,1.340
11.9200,1.266
11.9600,1.319
12.0000,1.316
12.0400,1.348
12.0800,1.332
12.1200,1.342
12.1600,1.326
12.2000,1.292
12.2400,1.335
12.2800,1.358
12.3200,1.290
12.3600,1.356
12.4000,1.317
12.4400,1.277
12.4800,1.373
12.5200,1.306
12.5600,1.316
12.6000,1.306
12.6400,1.269
12.6800,1.360
12.7200,1.305
12.7600,1.327
12.8000,1.272
12.8400,1.300
12.8800,1.312
12.9200,1.286
12.9600,1.294
13.0000,1.331
13.0400,1.244
13.0800,1.289
13.1200,1.251
13.1600,1.265
13.2000,1.248
13.2400,1.266
13.2800,1.287
13.3200,1.317
13.3600,1.289
13.4000,1.261
13.4400,1.253
13.4800,1.268
13.5200,1.315
13.5600,1.285
13.6000,1.260
13.6400,1.280
13.6800,1.304
13.7200,1.298
13.7600,1.278
13.8000,1.286
13.8400,1.277
13.8800,1.290
13.9200,1.275
13.9600,1.198
14.0000,1.259
14.0400,1.264
14.0800,1.305
14.1200,1.254
14.1600,1.233
14.2000,1.281
14.2400,1.305
14.2800,1.285
14.3200,1.287
14.3600,1.266
14.4000,1.253
14.4400,1.281
14.4800,1.242
14.5200,1.231
14.5600,1.255
14.6000,1.222
14.6400,1.236
14.6800,1.258
14.7200,1.258
14.7600,1.195
14.8000,1.226
14.8400,1.234
14.8800,1.249
14.9200,1.198
14.9600,1.226
15.0000,1.204
15.0400,1.264
15.0800,1.248
15.1200,1.248
15.1600,1.219
15.2000,1.223
15.2400,1.216
15.2800,1.220
15.3200,1.252
15.3600,1.248
15.4000,1.253
15.4400,1.222
15.4800,1.263
15.5200,1.260
15.5600,1.241
15.6000,1.211
15.6400,1.246
15.6800,1.238
15.7200,1.280
15.7600,1.222
15.8000,1.202
15.8400,1.211
15.8800,1.225
15.9200,1.257
15.9600,1.223
16.0000,1.232
16.0400,1.212
16.0800,1.260
16.1200,1.221
16.1600,1.269
16.2000,1.218
16.2400,1.225
16.2800,1.257
16.3200,1.232
16.3600,1.239
16.4000,1.220
16.4400,1.218
16.4800,1.272
16.5200,1.231
16.5600,1.249
16.6000,1.216
16.6400,1.213
16.6800,1.193
16.7200,1.191
16.7600,1.202
16.8000,1.197
16.8400,1.209
16.8800,1.268
16.9200,1.195
16.9600,1.224
17.0000,1.218
17.0400,1.210
17.0800,1.187
17.1200,1.198
17.1600,1.205
17.2000,1.209
17.2400,1.190
17.2800,1.165
17.3200,1.202
17.3600,1.216
17.4000,1.199
17.4400,1.253
17.4800,1.179
17.5200,1.111
17.5600,1.167
17.6000,1.201
17.6400,1.196
17.6800,1.214
17.7200,1.216
17.7600,1.188
17.8000,1.234
17.8400,1.168
17.8800,1.197
17.9200,1.185
17.9600,1.226
18.0000,1.214
18.0400,1.200
18.0800,1.170
18.1200,1.219
18.1600,1.178
18.2000,1.199
18.2400,1.206
18.2800,1.223
18.3200,1.202
18.3600,1.184
18.4000,1.208
18.4400,1.227
18.4800,1.221
18.5200,1.177
18.5600,1.201
18.6000,1.207
18.6400,1.183
18.6800,1.175
18.7200,1.199
18.7600,1.185
18.8000,1.140
18.8400,1.149
18.8800,1.158
18.9200,1.158
18.9600,1.173
19.0000,1.199
19.0400,1.174
19.0800,1.216
19.1200,1.168
19.1600,1.232
19.2000,1.189
19.2400,1.187
19.2800,1.190
19.3200,1.190
19.3600,1.234
19.4000,1.222
19.4400,1.190
19.4800,1.206
19.5200,1.194
19.5600,1.208
19.6000,1.181
19.6400,1.163
19.6800,1.201
19.7200,1.245
19.7600,1.182
19.8000,1.162
19.8400,1.208
19.8800,1.203
19.9200,1.161
19.9600,1.226
20.0000,1.198
20.0400,1.160
20.0800,1.171
20.1200,1.201
20.1600,1.197
20.2000,1.181
20.2400,1.190
20.2800,1.159
20.3200,1.189
20.3600,1.160
20.4000,1.213
20.4400,1.196
20.4800,1.170
20.5200,1.161
20.5600,1.213
20.6000,1.161
20.6400,1.110
20.6800,1.166
20.7200,1.195
20.7600,1.173
20.8000,1.177
20.8400,1.147
20.8800,1.164
20.9200,1.158
20.9600,1.151
21.0000,1.121
21.0400,1.166
21.0800,1.202
21.1200,1.160
21.1600,1.093
21.2000,1.137
21.2400,1.095
21.2800,1.126
21.3200,1.103
21.3600,1.099
21.4000,1.101
21.4400,1.178
21.4800,1.090
21.5200,1.111
21.5600,1.124
21.6000,1.116
21.6400,1.115
21.6800,1.176
21.7200,1.081
21.7600,1.114
21.8000,1.129
21.8400,1.154
21.8800,1.155
21.9200,1.103
21.9600,1.090
22.0000,1.113
22.0400,1.106
22.0800,1.106
22.1200,1.112
22.1600,1.088
22.2000,1.100
22.2400,1.092
22.2800,1.107
22.3200,1.062
22.3600,1.056
22.4000,1.118
22.4400,1.100
22.4800,1.061
22.5200,1.111
22.5600,1.067
22.6000,1.086
22.6400,1.063
22.6800,1.085
22.7200,1.101
22.7600,1.029
22.8000,1.064
22.8400,1.071
22.8800,1.039
22.9200,1.043
22.9600,1.006
23.0000,1.019
23.0400,1.037
23.0800,0.997
23.1200,1.059
23.1600,0.990
23.2000,1.028
23.2400,0.984
23.2800,1.050
23.3200,1.020
23.3600,1.003
23.4000,1.051
23.4400,0.996
23.4800,0.994
23.5200,1.037
23.5600,1.017
23.6000,0.986
23.6400,1.029
23.6800,0.972
23.7200,0.977
23.7600,1.020
23.8000,1.004
23.8400,0.975
23.8800,0.998
23.9200,0.967
23.9600,1.010
24.0000,0.996
24.0400,1.000
24.0800,0.946
24.1200,0.977
24.1600,0.986
24.2000,0.974
24.2400,0.962
24.2800,0.953
24.3200,0.966
24.3600,0.964
24.4000,0.952
24.4400,0.927
24.4800,0.982
24.5200,0.983
24.5600,0.935
24.6000,0.939
24.6400,0.920
24.6800,0.945
24.7200,0.876
24.7600,0.952
24.8000,0.937
24.8400,0.919
24.8800,0.944
24.9200,0.967
24.9600,0.934
25.0000,0.896
25.0400,0.922
25.0800,0.927
25.1200,0.924
25.1600,0.883
25.2000,0.908
25.2400,0.902
25.2800,0.897
25.3200,0.922
25.3600,0.855
25.4000,0.894
25.4400,0.902
25.4800,0.922
25.5200,0.908
25.5600,0.882
25.6000,0.919
25.6400,0.854
25.6800,0.834
25.7200,0.888
25.7600,0.886
25.8000,0.880
25.8400,0.852
25.8800,0.872
25.9200,0.844
25.9600,0.865
26.0000,0.876
26.0400,0.848
26.0800,0.835
26.1200,0.879
26.1600,0.841
26.2000,0.864
26.2400,0.810
26.2800,0.840
26.3200,0.840
26.3600,0.830
26.4000,0.839
26.4400,0.853
26.4800,0.819
26.5200,0.833
26.5600,0.815
26.6000,0.800
26.6400,0.832
26.6800,0.793
26.7200,0.803
26.7600,0.801
26.8000,0.833
26.8400,0.796
26.8800,0.838
26.9200,0.836
26.9600,0.797
27.0000,0.810
27.0400,0.828
27.0800,0.809
27.1200,0.796
27.1600,0.779
27.2000,0.747
27.2400,0.814
27.2800,0.789
27.3200,0.807
27.3600,0.771
27.4000,0.830
27.4400,0.790
27.4800,0.772
27.5200,0.769
27.5600,0.774
27.6000,0.726
27.6400,0.752
27.6800,0.762
27.7200,0.775
27.7600,0.757
27.8000,0.796
27.8400,0.781
27.8800,0.753
27.9200,0.777
27.9600,0.761
28.0000,0.764
28.0400,0.746
28.0800,0.704
28.1200,0.743
28.1600,0.732
28.2000,0.748
28.2400,0.746
28.2800,0.749
28.3200,0.734
28.3600,0.727
28.4000,0.711
28.4400,0.715
28.4800,0.729
28.5200,0.739
28.5600,0.723
28.6000,0.721
28.6400,0.743
28.6800,0.705
28.7200,0.742
28.7600,0.740
28.8000,0.727
28.8400,0.694
28.8800,0.748
28.9200,0.752
28.9600,0.739
29.0000,0.727
29.0400,0.713
29.0800,0.700
29.1200,0.696
29.1600,0.693
29.2000,0.652
29.2400,0.713
29.2800,0.717
29.3200,0.699
29.3600,0.737
29.4000,0.656
29.4400,0.737
29.4800,0.657
29.5200,0.692
29.5600,0.737
29.6000,0.730
29.6400,0.728
29.6800,0.738
29.7200,0.748
29.7600,0.753
29.8000,0.769
29.8400,0.852
29.8800,0.853
29.9200,0.977
29.9600,1.043
30.0000,1.152
30.0400,1.206
30.0800,1.292
30.1200,1.272
30.1600,1.208
30.2000,1.158
30.2400,1.061
30.2800,0.907
30.3200,0.878
30.3600,0.829
30.4000,0.769
30.4400,0.755
30.4800,0.739
30.5200,0.690
30.5600,0.689
30.6000,0.691
30.6400,0.686
30.6800,0.680
30.7200,0.678
30.7600,0.680
30.8000,0.701
30.8400,0.644
30.8800,0.660
30.9200,0.671
30.9600,0.634
31.0000,0.618
31.0400,0.594
31.0800,0.643
31.1200,0.583
31.1600,0.664
31.2000,0.655
31.2400,0.650
31.2800,0.647
31.3200,0.612
31.3600,0.614
31.4000,0.617
31.4400,0.615
31.4800,0.607
31.5200,0.638
31.5600,0.626
31.6000,0.634
31.6400,0.602
31.6800,0.606
31.7200,0.628
31.7600,0.576
31.8000,0.615
31.8400,0.598
31.8800,0.616
31.9200,0.613
31.9600,0.622
32.0000,0.596
32.0400,0.620
32.0800,0.632
32.1200,0.615
32.1600,0.583
32.2000,0.578
32.2400,0.605
32.2800,0.572
32.3200,0.603
32.3600,0.583
32.4000,0.582
32.4400,0.605
32.4800,0.604
32.5200,0.579
32.5600,0.589
32.6000,0.592
32.6400,0.593
32.6800,0.565
32.7200,0.596
32.7600,0.565
32.8000,0.541
32.8400,0.599
32.8800,0.599
32.9200,0.573
32.9600,0.583
33.0000,0.562
33.0400,0.548
33.0800,0.568
33.1200,0.572
33.1600,0.578
33.2000,0.588
33.2400,0.585
33.2800,0.555
33.3200,0.583
33.3600,0.564
33.4000,0.557
33.4400,0.546
33.4800,0.560
33.5200,0.572
33.5600,0.555
33.6000,0.567
33.6400,0.543
33.6800,0.568
33.7200,0.587
33.7600,0.554
33.8000,0.558
33.8400,0.561
33.8800,0.570
33.9200,0.529
33.9600,0.554
34.0000,0.522
34.0400,0.571
34.0800,0.531
34.1200,0.527
34.1600,0.566
34.2000,0.543
34.2400,0.556
34.2800,0.508
34.3200,0.550
34.3600,0.587
34.4000,0.558
34.4400,0.527
34.4800,0.560
34.5200,0.544
34.5600,0.571
34.6000,0.559
34.6400,0.554
34.6800,0.533
34.7200,0.536
34.7600,0.550
34.8000,0.559
34.8400,0.535
34.8800,0.561
34.9200,0.550
34.9600,0.495
35.0000,0.524
35.0400,0.531
35.0800,0.525
35.1200,0.531
35.1600,0.493
35.2000,0.533
35.2400,0.538
35.2800,0.532
35.3200,0.501
35.3600,0.527
35.4000,0.511
35.4400,0.522
35.4800,0.522
35.5200,0.511
35.5600,0.516
35.6000,0.510
35.6400,0.502
35.6800,0.513
35.7200,0.511
35.7600,0.526
35.8000,0.517
35.8400,0.494
35.8800,0.479
35.9200,0.481
35.9600,0.495
36.0000,0.484
36.0400,0.492
36.0800,0.518
36.1200,0.501
36.1600,0.501
36.2000,0.487
36.2400,0.499
36.2800,0.519
36.3200,0.505
36.3600,0.500
36.4000,0.501
36.4400,0.487
36.4800,0.460
36.5200,0.488
36.5600,0.512
36.6000,0.492
36.6400,0.510
36.6800,0.494
36.7200,0.506
36.7600,0.492
36.8000,0.487
36.8400,0.499
36.8800,0.497
36.9200,0.493
36.9600,0.490
37.0000,0.475
37.0400,0.489
37.0800,0.485
37.1200,0.469
37.1600,0.499
37.2000,0.499
37.2400,0.485
37.2800,0.468
37.3200,0.469
37.3600,0.471
37.4000,0.476
37.4400,0.471
37.4800,0.465
37.5200,0.500
37.5600,0.532
37.6000,0.472
37.6400,0.480
37.6800,0.505
37.7200,0.450
37.7600,0.472
37.8000,0.458
37.8400,0.460
37.8800,0.464
37.9200,0.489
37.9600,0.488
38.0000,0.473
38.0400,0.457
38.0800,0.447
38.1200,0.436
38.1600,0.469
38.2000,0.460
38.2400,0.461
38.2800,0.464
38.3200,0.457
38.3600,0.462
38.4000,0.468
38.4400,0.451
38.4800,0.414
38.5200,0.481
38.5600,0.414
38.6000,0.438
38.6400,0.457
38.6800,0.466
38.7200,0.457
38.7600,0.434
38.8000,0.453
38.8400,0.462
38.8800,0.441
38.9200,0.485
38.9600,0.463
39.0000,0.472
39.0400,0.456
39.0800,0.477
39.1200,0.434
39.1600,0.457
39.2000,0.448
39.2400,0.443
39.2800,0.483
39.3200,0.485
39.3600,0.447
39.4000,0.454
39.4400,0.454
39.4800,0.429
39.5200,0.434
39.5600,0.477
39.6000,0.439
39.6400,0.466
39.6800,0.422
39.7200,0.452
39.7600,0.443
39.8000,0.451
39.8400,0.445
39.8800,0.451
39.9200,0.480
39.9600,0.458
40.0000,0.485
40.0400,0.484
40.0800,0.464
40.1200,0.456
40.1600,0.460
40.2000,0.515
40.2400,0.477
40.2800,0.511
40.3200,0.497
40.3600,0.506
40.4000,0.534
40.4400,0.496
40.4800,0.481
40.5200,0.573
40.5600,0.584
40.6000,0.567
40.6400,0.557
40.6800,0.615
40.7200,0.659
40.7600,0.723
40.8000,0.787
40.8400,0.795
40.8800,0.860
40.9200,0.923
40.9600,0.938
41.0000,0.991
41.0400,1.047
41.0800,1.072
41.1200,1.082
41.1600,1.069
41.2000,1.007
41.2400,0.909
41.2800,0.877
41.3200,0.833
41.3600,0.751
41.4000,0.736
41.4400,0.681
41.4800,0.612
41.5200,0.621
41.5600,0.613
41.6000,0.659
41.6400,0.579
41.6800,0.595
41.7200,0.616
41.7600,0.617
41.8000,0.632
41.8400,0.592
41.8800,0.597
41.9200,0.588
41.9600,0.628
42.0000,0.610
42.0400,0.589
42.0800,0.617
42.1200,0.631
42.1600,0.609
42.2000,0.651
42.2400,0.664
42.2800,0.708
42.3200,0.748
42.3600,0.707
42.4000,0.713
42.4400,0.758
42.4800,0.756
42.5200,0.785
42.5600,0.834
42.6000,0.893
42.6400,0.994
42.6800,1.167
42.7200,1.326
42.7600,1.582
42.8000,1.967
42.8400,2.542
42.8800,3.386
42.9200,4.316
42.9600,5.126
43.0000,5.904
43.0400,6.271
43.0800,6.525
43.1200,6.405
43.1600,5.949
43.2000,5.450
43.2400,4.692
43.2800,3.871
43.3200,3.143
43.3600,2.463
43.4000,1.930
43.4400,1.509
43.4800,1.243
43.5200,1.049
43.5600,0.930
43.6000,0.814
43.6400,0.711
43.6800,0.624
43.7200,0.618
43.7600,0.576
43.8000,0.564
43.8400,0.534
43.8800,0.507
43.9200,0.528
43.9600,0.481
44.0000,0.489
44.0400,0.467
44.0800,0.443
44.1200,0.426
44.1600,0.455
44.2000,0.418
44.2400,0.428
44.2800,0.435
44.3200,0.399
44.3600,0.406
44.4000,0.426
44.4400,0.395
44.4800,0.390
44.5200,0.404
44.5600,0.389
44.6000,0.381
44.6400,0.361
44.6800,0.366
44.7200,0.382
44.7600,0.370
44.8000,0.363
44.8400,0.370
44.8800,0.358
44.9200,0.380
44.9600,0.359
45.0000,0.355
45.0400,0.358
45.0800,0.369
45.1200,0.353
45.1600,0.354
45.2000,0.349
45.2400,0.334
45.2800,0.359
45.3200,0.352
45.3600,0.350
45.4000,0.351
45.4400,0.350
45.4800,0.360
45.5200,0.355
45.5600,0.330
45.6000,0.354
45.6400,0.344
45.6800,0.300
45.7200,0.336
45.7600,0.356
45.8000,0.343
45.8400,0.336
45.8800,0.320
45.9200,0.334
45.9600,0.354
46.0000,0.362
46.0400,0.332
46.0800,0.348
46.1200,0.368
46.1600,0.339
46.2000,0.334
46.2400,0.346
46.2800,0.337
46.3200,0.378
46.3600,0.331
46.4000,0.328
46.4400,0.352
46.4800,0.378
46.5200,0.351
46.5600,0.347
46.6000,0.370
46.6400,0.330
46.6800,0.359
46.7200,0.393
46.7600,0.380
46.8000,0.332
46.8400,0.338
46.8800,0.364
46.9200,0.363
46.9600,0.333
47.0000,0.357
47.0400,0.360
47.0800,0.345
47.1200,0.365
47.1600,0.364
47.2000,0.381
47.2400,0.373
47.2800,0.372
47.3200,0.363
47.3600,0.415
47.4000,0.405
47.4400,0.401
47.4800,0.439
47.5200,0.455
47.5600,0.477
47.6000,0.487
47.6400,0.499
47.6800,0.440
47.7200,0.464
47.7600,0.504
47.8000,0.489
47.8400,0.498
47.8800,0.480
47.9200,0.482
47.9600,0.465
48.0000,0.463
48.0400,0.454
48.0800,0.414
48.1200,0.423
48.1600,0.411
48.2000,0.380
48.2400,0.378
48.2800,0.362
48.3200,0.368
48.3600,0.382
48.4000,0.398
48.4400,0.352
48.4800,0.346
48.5200,0.332
48.5600,0.331
48.6000,0.350
48.6400,0.334
48.6800,0.339
48.7200,0.316
48.7600,0.312
48.8000,0.326
48.8400,0.332
48.8800,0.337
48.9200,0.337
48.9600,0.345
49.0000,0.301
49.0400,0.329
49.0800,0.347
49.1200,0.322
49.1600,0.367
49.2000,0.341
49.2400,0.336
49.2800,0.355
49.3200,0.320
49.3600,0.317
49.4000,0.322
49.4400,0.312
49.4800,0.320
49.5200,0.308
49.5600,0.306
49.6000,0.299
49.6400,0.289
49.6800,0.291
49.7200,0.284
49.7600,0.303
49.8000,0.305
49.8400,0.280
49.8800,0.289
49.9200,0.294
49.9600,0.306
50.0000,0.285
50.0400,0.263
50.0800,0.287
50.1200,0.281
50.1600,0.263
50.2000,0.288
50.2400,0.260
50.2800,0.296
50.3200,0.248
50.3600,0.277
50.4000,0.267
50.4400,0.293
50.4800,0.279
50.5200,0.283
50.5600,0.275
50.6000,0.275
50.6400,0.265
50.6800,0.250
50.7200,0.255
50.7600,0.277
50.8000,0.276
50.8400,0.278
50.8800,0.270
50.9200,0.258
50.9600,0.280
51.0000,0.262
51.0400,0.248
51.0800,0.260
51.1200,0.270
51.1600,0.262
51.2000,0.249
51.2400,0.250
51.2800,0.272
51.3200,0.263
51.3600,0.271
51.4000,0.267
51.4400,0.240
51.4800,0.277
51.5200,0.265
51.5600,0.273
51.6000,0.256
51.6400,0.254
51.6800,0.264
51.7200,0.248
51.7600,0.235
51.8000,0.265
51.8400,0.243
51.8800,0.253
51.9200,0.272
51.9600,0.262
52.0000,0.239
52.0400,0.264
52.0800,0.253
52.1200,0.245
52.1600,0.246
52.2000,0.250
52.2400,0.264
52.2800,0.256
52.3200,0.250
52.3600,0.227
52.4000,0.219
52.4400,0.239
52.4800,0.226
52.5200,0.243
52.5600,0.240
52.6000,0.251
52.6400,0.233
52.6800,0.251
52.7200,0.232
52.7600,0.246
52.8000,0.243
52.8400,0.255
52.8800,0.252
52.9200,0.234
52.9600,0.255
53.0000,0.255
53.0400,0.244
53.0800,0.265
53.1200,0.299
53.1600,0.282
53.2000,0.288
53.2400,0.334
53.2800,0.353
53.3200,0.352
53.3600,0.360
53.4000,0.346
53.4400,0.371
53.4800,0.365
53.5200,0.345
53.5600,0.350
53.6000,0.301
53.6400,0.308
53.6800,0.302
53.7200,0.271
53.7600,0.273
53.8000,0.260
53.8400,0.251
53.8800,0.265
53.9200,0.244
53.9600,0.265
54.0000,0.231
54.0400,0.258
54.0800,0.242
54.1200,0.215
54.1600,0.243
54.2000,0.232
54.2400,0.229
54.2800,0.232
54.3200,0.249
54.3600,0.247
54.4000,0.239
54.4400,0.236
54.4800,0.238
54.5200,0.248
54.5600,0.242
54.6000,0.226
54.6400,0.235
54.6800,0.228
54.7200,0.236
54.7600,0.228
54.8000,0.234
54.8400,0.243
54.8800,0.204
54.9200,0.231
54.9600,0.232
55.0000,0.237
55.0400,0.238
55.0800,0.214
55.1200,0.210
55.1600,0.229
55.2000,0.241
55.2400,0.220
55.2800,0.243
55.3200,0.228
55.3600,0.219
55.4000,0.242
55.4400,0.227
55.4800,0.226
55.5200,0.202
55.5600,0.217
55.6000,0.229
55.6400,0.210
55.6800,0.231
55.7200,0.219
55.7600,0.231
55.8000,0.214
55.8400,0.209
55.8800,0.219
55.9200,0.231
55.9600,0.233
56.0000,0.230
56.0400,0.213
56.0800,0.228
56.1200,0.210
56.1600,0.213
56.2000,0.207
56.2400,0.219
56.2800,0.226
56.3200,0.218
56.3600,0.204
56.4000,0.214
56.4400,0.206
56.4800,0.237
56.5200,0.230
56.5600,0.218
56.6000,0.240
56.6400,0.215
56.6800,0.223
56.7200,0.237
56.7600,0.214
56.8000,0.216
56.8400,0.228
56.8800,0.222
56.9200,0.237
56.9600,0.227
57.0000,0.221
57.0400,0.224
57.0800,0.218
57.1200,0.219
57.1600,0.222
57.2000,0.213
57.2400,0.219
57.2800,0.205
57.3200,0.205
57.3600,0.227
57.4000,0.208
57.4400,0.234
57.4800,0.224
57.5200,0.227
57.5600,0.227
57.6000,0.203
57.6400,0.203
57.6800,0.221
57.7200,0.214
57.7600,0.231
57.8000,0.226
57.8400,0.189
57.8800,0.202
57.9200,0.215
57.9600,0.201
58.0000,0.209
58.0400,0.208
58.0800,0.206
58.1200,0.230
58.1600,0.216
58.2000,0.225
58.2400,0.195
58.2800,0.200
58.3200,0.200
58.3600,0.227
58.4000,0.207
58.4400,0.201
58.4800,0.190
58.5200,0.213
58.5600,0.215
58.6000,0.213
58.6400,0.220
58.6800,0.222
58.7200,0.211
58.7600,0.217
58.8000,0.215
58.8400,0.208
58.8800,0.199
58.9200,0.201
58.9600,0.203
59.0000,0.223
59.0400,0.215
59.0800,0.210
59.1200,0.200
59.1600,0.209
59.2000,0.202
59.2400,0.207
59.2800,0.211
59.3200,0.204
59.3600,0.193
59.4000,0.197
59.4400,0.214
59.4800,0.199
59.5200,0.215
59.5600,0.195
59.6000,0.189
59.6400,0.222
59.6800,0.205
59.7200,0.199
59.7600,0.213
59.8000,0.227
59.8400,0.221
59.8800,0.217
59.9200,0.197
59.9600,0.233
60.0000,0.217
60.0400,0.202
60.0800,0.206
60.1200,0.238
60.1600,0.202
60.2000,0.203
60.2400,0.210
60.2800,0.206
60.3200,0.206
60.3600,0.230
60.4000,0.210
60.4400,0.205
60.4800,0.210
60.5200,0.218
60.5600,0.210
60.6000,0.213
60.6400,0.220
60.6800,0.231
60.7200,0.224
60.7600,0.228
60.8000,0.203
60.8400,0.220
60.8800,0.211
60.9200,0.216
60.9600,0.224
61.0000,0.219
61.0400,0.239
61.0800,0.215
61.1200,0.241
61.1600,0.220
61.2000,0.217
61.2400,0.233
61.2800,0.233
61.3200,0.217
61.3600,0.224
61.4000,0.238
61.4400,0.219
61.4800,0.227
61.5200,0.222
61.5600,0.224
61.6000,0.243
61.6400,0.242
61.6800,0.247
61.7200,0.237
61.7600,0.243
61.8000,0.263
61.8400,0.265
61.8800,0.288
61.9200,0.278
61.9600,0.293
62.0000,0.305
62.0400,0.319
62.0800,0.318
62.1200,0.339
62.1600,0.361
62.2000,0.416
62.2400,0.416
62.2800,0.472
62.3200,0.508
62.3600,0.541
62.4000,0.569
62.4400,0.638
62.4800,0.636
62.5200,0.658
62.5600,0.666
62.6000,0.632
62.6400,0.586
62.6800,0.592
62.7200,0.602
62.7600,0.565
62.8000,0.547
62.8400,0.536
62.8800,0.525
62.9200,0.445
62.9600,0.441
63.0000,0.397
63.0400,0.370
63.0800,0.371
63.1200,0.353
63.1600,0.328
63.2000,0.297
63.2400,0.290
63.2800,0.294
63.3200,0.274
63.3600,0.246
63.4000,0.273
63.4400,0.277
63.4800,0.277
63.5200,0.261
63.5600,0.257
63.6000,0.251
63.6400,0.242
63.6800,0.248
63.7200,0.254
63.7600,0.250
63.8000,0.244
63.8400,0.228
63.8800,0.260
63.9200,0.231
63.9600,0.238
64.0000,0.227
64.0400,0.243
64.0800,0.233
64.1200,0.223
64.1600,0.240
64.2000,0.235
64.2400,0.227
64.2800,0.232
64.3200,0.233
64.3600,0.239
64.4000,0.250
64.4400,0.255
64.4800,0.262
64.5200,0.261
64.5600,0.258
64.6000,0.250
64.6400,0.210
64.6800,0.245
64.7200,0.225
64.7600,0.224
64.8000,0.215
64.8400,0.234
64.8800,0.252
64.9200,0.235
64.9600,0.239
65.0000,0.249
65.0400,0.267
65.0800,0.249
65.1200,0.251
65.1600,0.243
65.2000,0.256
65.2400,0.271
65.2800,0.254
65.3200,0.232
65.3600,0.240
65.4000,0.264
65.4400,0.260
65.4800,0.265
65.5200,0.283
65.5600,0.248
65.6000,0.271
65.6400,0.268
65.6800,0.284
65.7200,0.256
65.7600,0.307
65.8000,0.265
65.8400,0.266
65.8800,0.262
65.9200,0.281
65.9600,0.264
66.0000,0.278
66.0400,0.280
66.0800,0.304
66.1200,0.310
66.1600,0.287
66.2000,0.299
66.2400,0.291
66.2800,0.283
66.3200,0.324
66.3600,0.303
66.4000,0.318
66.4400,0.314
66.4800,0.307
66.5200,0.333
66.5600,0.326
66.6000,0.304
66.6400,0.310
66.6800,0.347
66.7200,0.347
66.7600,0.347
66.8000,0.364
66.8400,0.350
66.8800,0.350
66.9200,0.360
66.9600,0.365
67.0000,0.373
67.0400,0.378
67.0800,0.350
67.1200,0.368
67.1600,0.413
67.2000,0.370
67.2400,0.408
67.2800,0.399
67.3200,0.398
67.3600,0.413
67.4000,0.391
67.4400,0.413
67.4800,0.430
67.5200,0.452
67.5600,0.427
67.6000,0.471
67.6400,0.477
67.6800,0.444
67.7200,0.454
67.7600,0.484
67.8000,0.478
67.8400,0.489
67.8800,0.477
67.9200,0.499
67.9600,0.502
68.0000,0.532
68.0400,0.525
68.0800,0.527
68.1200,0.555
68.1600,0.546
68.2000,0.581
68.2400,0.592
68.2800,0.612
68.3200,0.602
68.3600,0.635
68.4000,0.648
68.4400,0.679
68.4800,0.729
68.5200,0.758
68.5600,0.772
68.6000,0.811
68.6400,0.863
68.6800,0.989
68.7200,1.163
68.7600,1.414
68.8000,1.716
68.8400,1.811
68.8800,1.915
68.9200,2.093
68.9600,2.661
69.0000,4.092
69.0400,9.684
69.0800,36.087
69.1200,72.576
69.1600,80.275
69.2000,64.328
69.2400,38.196
69.2800,27.268
69.3200,39.886
69.3600,42.998
69.4000,34.239
69.4400,17.802
69.4800,5.630
69.5200,2.979
69.5600,2.145
69.6000,1.662
69.6400,1.459
69.6800,1.263
69.7200,1.209
69.7600,1.124
69.8000,1.025
69.8400,0.977
69.8800,0.960
69.9200,0.896
69.9600,0.860
70.0000,0.821
70.0400,0.803
70.0800,0.792
70.1200,0.782
70.1600,0.782
70.2000,0.730
70.2400,0.710
70.2800,0.689
70.3200,0.678
70.3600,0.633
70.4000,0.601
70.4400,0.605
70.4800,0.594
70.5200,0.577
70.5600,0.604
70.6000,0.550
70.6400,0.600
70.6800,0.571
70.7200,0.561
70.7600,0.541
70.8000,0.541
70.8400,0.551
70.8800,0.581
70.9200,0.558
70.9600,0.538
71.0000,0.516
71.0400,0.509
71.0800,0.489
71.1200,0.503
71.1600,0.459
71.2000,0.492
71.2400,0.452
71.2800,0.462
71.3200,0.453
71.3600,0.424
71.4000,0.397
71.4400,0.431
71.4800,0.399
71.5200,0.408
71.5600,0.381
71.6000,0.387
71.6400,0.371
71.6800,0.386
71.7200,0.353
71.7600,0.358
71.8000,0.361
71.8400,0.357
71.8800,0.367
71.9200,0.329
71.9600,0.340
72.0000,0.329
72.0400,0.346
72.0800,0.309
72.1200,0.330
72.1600,0.308
72.2000,0.316
72.2400,0.286
72.2800,0.326
72.3200,0.305
72.3600,0.299
72.4000,0.296
72.4400,0.270
72.4800,0.278
72.5200,0.279
72.5600,0.266
72.6000,0.306
72.6400,0.272
72.6800,0.273
72.7200,0.272
72.7600,0.267
72.8000,0.242
72.8400,0.254
72.8800,0.244
72.9200,0.270
72.9600,0.232
73.0000,0.242
73.0400,0.276
73.0800,0.258
73.1200,0.235
73.1600,0.240
73.2000,0.233
73.2400,0.222
73.2800,0.253
73.3200,0.241
73.3600,0.250
73.4000,0.226
73.4400,0.229
73.4800,0.234
73.5200,0.210
73.5600,0.227
73.6000,0.217
73.6400,0.219
73.6800,0.213
73.7200,0.211
73.7600,0.206
73.8000,0.236
73.8400,0.236
73.8800,0.228
73.9200,0.221
73.9600,0.205
74.0000,0.200
74.0400,0.219
74.0800,0.204
74.1200,0.201
74.1600,0.214
74.2000,0.202
74.2400,0.222
74.2800,0.198
74.3200,0.192
74.3600,0.192
74.4000,0.210
74.4400,0.203
74.4800,0.190
74.5200,0.183
74.5600,0.208
74.6000,0.213
74.6400,0.198
74.6800,0.208
74.7200,0.183
74.7600,0.186
74.8000,0.193
74.8400,0.200
74.8800,0.201
74.9200,0.217
74.9600,0.209
75.0000,0.204
75.0400,0.177
75.0800,0.188
75.1200,0.201
75.1600,0.178
75.2000,0.193
75.2400,0.194
75.2800,0.202
75.3200,0.188
75.3600,0.189
75.4000,0.181
75.4400,0.186
75.4800,0.195
75.5200,0.178
75.5600,0.186
75.6000,0.198
75.6400,0.183
75.6800,0.173
75.7200,0.172
75.7600,0.183
75.8000,0.184
75.8400,0.202
75.8800,0.195
75.9200,0.205
75.9600,0.177
76.0000,0.173
76.0400,0.182
76.0800,0.178
76.1200,0.176
76.1600,0.197
76.2000,0.184
76.2400,0.190
76.2800,0.197
76.3200,0.181
76.3600,0.186
76.4000,0.189
76.4400,0.157
76.4800,0.181
76.5200,0.189
76.5600,0.189
76.6000,0.200
76.6400,0.179
76.6800,0.183
76.7200,0.176
76.7600,0.187
76.8000,0.186
76.8400,0.184
76.8800,0.182
76.9200,0.172
76.9600,0.190
77.0000,0.175
77.0400,0.170
77.0800,0.185
77.1200,0.178
77.1600,0.191
77.2000,0.184
77.2400,0.170
77.2800,0.184
77.3200,0.182
77.3600,0.193
77.4000,0.192
77.4400,0.179
77.4800,0.193
77.5200,0.206
77.5600,0.187
77.6000,0.180
77.6400,0.196
77.6800,0.193
77.7200,0.199
77.7600,0.194
77.8000,0.189
77.8400,0.201
77.8800,0.200
77.9200,0.211
77.9600,0.211
78.0000,0.226
78.0400,0.216
78.0800,0.215
78.1200,0.233
78.1600,0.231
78.2000,0.238
78.2400,0.248
78.2800,0.282
78.3200,0.297
78.3600,0.296
78.4000,0.342
78.4400,0.377
78.4800,0.382
78.5200,0.463
78.5600,0.491
78.6000,0.540
78.6400,0.632
78.6800,0.660
78.7200,0.710
78.7600,0.724
78.8000,0.765
78.8400,0.809
78.8800,0.814
78.9200,0.849
78.9600,0.871
79.0000,0.864
79.0400,0.855
79.0800,0.819
79.1200,0.851
79.1600,0.787
79.2000,0.814
79.2400,0.718
79.2800,0.680
79.3200,0.681
79.3600,0.632
79.4000,0.547
79.4400,0.491
79.4800,0.451
79.5200,0.398
79.5600,0.397
79.6000,0.343
79.6400,0.306
79.6800,0.301
79.7200,0.288
79.7600,0.277
79.8000,0.274
79.8400,0.243
79.8800,0.214
79.9200,0.214
79.9600,0.223
80.0000,0.199
