theta,intensity
5.0000,5.726
5.0400,5.577
5.0800,5.539
5.1200,5.617
5.1600,5.610
5.2000,5.405
5.2400,5.466
5.2800,5.468
5.3200,5.005
5.3600,5.118
5.4000,5.046
5.4400,5.149
5.4800,5.001
5.5200,4.992
5.5600,4.971
5.6000,4.798
5.6400,4.778
5.6800,4.806
5.7200,4.805
5.7600,4.668
5.8000,4.557
5.8400,4.517
5.8800,4.518
5.9200,4.516
5.9600,4.543
6.0000,4.532
6.0400,4.572
6.0800,4.156
6.1200,4.321
6.1600,4.245
6.2000,4.344
6.2400,4.152
6.2800,4.207
6.3200,4.158
6.3600,4.081
6.4000,4.126
6.4400,4.213
6.4800,4.215
6.5200,4.119
6.5600,4.118
6.6000,4.034
6.6400,4.173
6.6800,4.025
6.7200,4.034
6.7600,4.060
6.8000,4.052
6.8400,4.195
6.8800,4.189
6.9200,3.982
6.9600,3.973
7.0000,4.233
7.0400,3.960
7.0800,4.087
7.1200,4.058
7.1600,4.061
7.2000,4.070
7.2400,3.995
7.2800,4.212
7.3200,4.070
7.3600,4.101
7.4000,4.042
7.4400,3.985
7.4800,3.783
7.5200,3.900
7.5600,3.872
7.6000,3.960
7.6400,3.951
7.6800,3.902
7.7200,3.804
7.7600,3.959
7.8000,4.060
7.8400,4.067
7.8800,3.919
7.9200,3.857
7.9600,3.952
8.0000,3.738
8.0400,3.767
8.0800,3.902
8.1200,3.961
8.1600,4.044
8.2000,3.938
8.2400,3.822
8.2800,3.816
8.3200,3.893
8.3600,3.869
8.4000,3.893
8.4400,3.813
8.4800,3.801
8.5200,3.891
8.5600,3.798
8.6000,3.781
8.6400,3.850
8.6800,3.854
8.7200,3.810
8.7600,3.720
8.8000,3.702
8.8400,3.719
8.8800,3.776
8.9200,3.879
8.9600,3.737
9.0000,3.768
9.0400,3.870
9.0800,3.734
9.1200,3.900
9.1600,3.675
9.2000,3.589
9.2400,3.882
9.2800,3.574
9.3200,3.868
9.3600,3.577
9.4000,3.635
9.4400,3.665
9.4800,3.636
9.5200,3.788
9.5600,3.709
9.6000,3.672
9.6400,3.588
9.6800,3.720
9.7200,3.577
9.7600,3.741
9.8000,3.650
9.8400,3.763
9.8800,3.833
9.9200,3.613
9.9600,3.603
10.0000,3.492
10.0400,3.616
10.0800,3.792
10.1200,3.640
10.1600,3.624
10.2000,3.585
10.2400,3.602
10.2800,3.702
10.3200,3.527
10.3600,3.619
10.4000,3.715
10.4400,3.508
10.4800,3.614
10.5200,3.638
10.5600,3.592
10.6000,3.584
10.6400,3.675
10.6800,3.543
10.7200,3.573
10.7600,3.656
10.8000,3.731
10.8400,3.529
10.8800,3.742
10.9200,3.510
10.9600,3.516
11.0000,3.539
11.0400,3.587
11.0800,3.505
11.1200,3.476
11.1600,3.446
11.2000,3.374
11.2400,3.579
11.2800,3.532
11.3200,3.532
11.3600,3.564
11.4000,3.441
11.4400,3.529
11.4800,3.549
11.5200,3.392
11.5600,3.332
11.6000,3.469
11.6400,3.368
11.6800,3.365
11.7200,3.570
11.7600,3.463
11.8000,3.592
11.8400,3.535
11.8800,3.593
11.9200,3.429
11.9600,3.467
12.0000,3.401
12.0400,3.443
12.0800,3.492
12.1200,3.367
12.1600,3.538
12.2000,3.398
12.2400,3.441
12.2800,3.455
12.3200,3.467
12.3600,3.671
12.4000,3.478
12.4400,3.355
12.4800,3.403
12.5200,3.436
12.5600,3.242
12.6000,3.460
12.6400,3.323
12.6800,3.383
12.7200,3.423
12.7600,3.415
12.8000,3.453
12.8400,3.415
12.8800,3.366
12.9200,3.418
12.9600,3.508
13.0000,3.287
13.0400,3.381
13.0800,3.456
13.1200,3.339
13.1600,3.472
13.2000,3.424
13.2400,3.341
13.2800,3.257
13.3200,3.375
13.3600,3.376
13.4000,3.249
13.4400,3.310
13.4800,3.201
13.5200,3.280
13.5600,3.482
13.6000,3.269
13.6400,3.239
13.6800,3.264
13.7200,3.135
13.7600,3.364
13.8000,3.276
13.8400,3.237
13.8800,3.214
13.9200,3.289
13.9600,3.190
14.0000,3.196
14.0400,3.259
14.0800,3.270
14.1200,3.205
14.1600,3.312
14.2000,3.094
14.2400,3.251
14.2800,3.322
14.3200,3.307
14.3600,3.263
14.4000,3.206
14.4400,3.285
14.4800,3.067
14.5200,3.114
14.5600,3.096
14.6000,3.187
14.6400,3.192
14.6800,3.221
14.7200,3.169
14.7600,3.270
14.8000,3.261
14.8400,3.142
14.8800,3.149
14.9200,3.102
14.9600,3.156
15.0000,3.214
15.0400,3.386
15.0800,3.168
15.1200,3.190
15.1600,3.235
15.2000,3.203
15.2400,3.216
15.2800,3.073
15.3200,3.049
15.3600,3.083
15.4000,3.159
15.4400,3.283
15.4800,3.023
15.5200,3.154
15.5600,3.154
15.6000,3.165
15.6400,3.121
15.6800,3.051
15.7200,3.136
15.7600,3.082
15.8000,3.271
15.8400,3.096
15.8800,3.096
15.9200,3.054
15.9600,3.277
16.0000,3.031
16.0400,3.001
16.0800,3.082
16.1200,3.128
16.1600,2.947
16.2000,3.116
16.2400,3.081
16.2800,3.071
16.3200,3.125
16.3600,2.976
16.4000,2.966
16.4400,3.053
16.4800,2.847
16.5200,3.015
16.5600,3.032
16.6000,3.110
16.6400,3.016
16.6800,3.014
16.7200,3.132
16.7600,3.086
16.8000,3.022
16.8400,2.940
16.8800,3.057
16.9200,2.984
16.9600,3.110
17.0000,2.977
17.0400,2.962
17.0800,3.060
17.1200,2.953
17.1600,2.969
17.2000,2.975
17.2400,3.012
17.2800,2.959
17.3200,2.891
17.3600,3.063
17.4000,2.833
17.4400,2.849
17.4800,2.941
17.5200,3.038
17.5600,2.947
17.6000,2.976
17.6400,2.979
17.6800,2.908
17.7200,2.948
17.7600,2.951
17.8000,2.810
17.8400,2.978
17.8800,2.846
17.9200,2.876
17.9600,2.887
18.0000,2.887
18.0400,2.893
18.0800,2.909
18.1200,2.862
18.1600,2.869
18.2000,2.783
18.2400,2.856
18.2800,2.938
18.3200,2.891
18.3600,2.780
18.4000,2.859
18.4400,2.915
18.4800,2.814
18.5200,2.750
18.5600,2.936
18.6000,2.801
18.6400,2.797
18.6800,2.816
18.7200,2.834
18.7600,2.897
18.8000,2.808
18.8400,2.851
18.8800,2.881
18.9200,2.875
18.9600,2.784
19.0000,2.697
19.0400,2.835
19.0800,2.727
19.1200,2.678
19.1600,2.823
19.2000,2.804
19.2400,2.738
19.2800,2.854
19.3200,2.698
19.3600,2.814
19.4000,2.813
19.4400,2.820
19.4800,2.758
19.5200,2.704
19.5600,2.678
19.6000,2.743
19.6400,2.730
19.6800,2.810
19.7200,2.660
19.7600,2.780
19.8000,2.643
19.8400,2.724
19.8800,2.811
19.9200,2.707
19.9600,2.697
20.0000,2.653
20.0400,2.569
20.0800,2.747
20.1200,2.748
20.1600,2.609
20.2000,2.693
20.2400,2.782
20.2800,2.700
20.3200,2.712
20.3600,2.671
20.4000,2.562
20.4400,2.544
20.4800,2.714
20.5200,2.722
20.5600,2.686
20.6000,2.540
20.6400,2.558
20.6800,2.641
20.7200,2.744
20.7600,2.653
20.8000,2.613
20.8400,2.712
20.8800,2.695
20.9200,2.681
20.9600,2.629
21.0000,2.579
21.0400,2.525
21.0800,2.701
21.1200,2.527
21.1600,2.708
21.2000,2.588
21.2400,2.597
21.2800,2.594
21.3200,2.563
21.3600,2.651
21.4000,2.616
21.4400,2.552
21.4800,2.529
21.5200,2.642
21.5600,2.593
21.6000,2.572
21.6400,2.518
21.6800,2.410
21.7200,2.485
21.7600,2.603
21.8000,2.642
21.8400,2.547
21.8800,2.536
21.9200,2.516
21.9600,2.663
22.0000,2.527
22.0400,2.573
22.0800,2.519
22.1200,2.556
22.1600,2.580
22.2000,2.566
22.2400,2.597
22.2800,2.577
22.3200,2.429
22.3600,2.635
22.4000,2.534
22.4400,2.463
22.4800,2.551
22.5200,2.466
22.5600,2.489
22.6000,2.389
22.6400,2.403
22.6800,2.452
22.7200,2.412
22.7600,2.453
22.8000,2.367
22.8400,2.375
22.8800,2.403
22.9200,2.429
22.9600,2.517
23.0000,2.478
23.0400,2.315
23.0800,2.412
23.1200,2.451
23.1600,2.507
23.2000,2.354
23.2400,2.392
23.2800,2.367
23.3200,2.440
23.3600,2.433
23.4000,2.409
23.4400,2.420
23.4800,2.345
23.5200,2.386
23.5600,2.382
23.6000,2.337
23.6400,2.446
23.6800,2.410
23.7200,2.409
23.7600,2.364
23.8000,2.376
23.8400,2.391
23.8800,2.430
23.9200,2.371
23.9600,2.365
24.0000,2.365
24.0400,2.422
24.0800,2.404
24.1200,2.366
24.1600,2.295
24.2000,2.339
24.2400,2.207
24.2800,2.320
24.3200,2.348
24.3600,2.344
24.4000,2.317
24.4400,2.388
24.4800,2.319
24.5200,2.406
24.5600,2.327
24.6000,2.370
24.6400,2.371
24.6800,2.258
24.7200,2.325
24.7600,2.312
24.8000,2.370
24.8400,2.285
24.8800,2.293
24.9200,2.331
24.9600,2.268
25.0000,2.181
25.0400,2.192
25.0800,2.209
25.1200,2.342
25.1600,2.380
25.2000,2.263
25.2400,2.269
25.2800,2.372
25.3200,2.268
25.3600,2.179
25.4000,2.220
25.4400,2.299
25.4800,2.328
25.5200,2.208
25.5600,2.225
25.6000,2.319
25.6400,2.307
25.6800,2.290
25.7200,2.273
25.7600,2.192
25.8000,2.225
25.8400,2.242
25.8800,2.291
25.9200,2.161
25.9600,2.174
26.0000,2.231
26.0400,2.161
26.0800,2.216
26.1200,2.337
26.1600,2.089
26.2000,2.353
26.2400,2.248
26.2800,2.207
26.3200,2.161
26.3600,2.134
26.4000,2.297
26.4400,2.257
26.4800,2.153
26.5200,2.277
26.5600,2.208
26.6000,2.193
26.6400,2.103
26.6800,2.181
26.7200,2.224
26.7600,2.276
26.8000,2.264
26.8400,2.089
26.8800,2.204
26.9200,2.229
26.9600,2.322
27.0000,2.120
27.0400,2.157
27.0800,2.185
27.1200,2.180
27.1600,2.086
27.2000,2.098
27.2400,2.261
27.2800,2.217
27.3200,2.196
27.3600,2.118
27.4000,2.182
27.4400,2.165
27.4800,2.112
27.5200,2.136
27.5600,2.175
27.6000,2.133
27.6400,2.188
27.6800,2.278
27.7200,2.207
27.7600,2.113
27.8000,2.347
27.8400,2.282
27.8800,2.350
27.9200,2.217
27.9600,2.229
28.0000,2.397
28.0400,2.299
28.0800,2.233
28.1200,2.316
28.1600,2.289
28.2000,2.491
28.2400,2.312
28.2800,2.342
28.3200,2.413
28.3600,2.333
28.4000,2.254
28.4400,2.264
28.4800,2.308
28.5200,2.370
28.5600,2.180
28.6000,2.399
28.6400,2.373
28.6800,2.288
28.7200,2.283
28.7600,2.305
28.8000,2.186
28.8400,2.140
28.8800,2.280
28.9200,2.129
28.9600,2.189
29.0000,2.256
29.0400,2.085
29.0800,2.278
29.1200,2.217
29.1600,2.074
29.2000,2.119
29.2400,2.011
29.2800,2.105
29.3200,2.054
29.3600,2.064
29.4000,1.868
29.4400,2.104
29.4800,2.113
29.5200,2.167
29.5600,1.998
29.6000,2.069
29.6400,2.016
29.6800,1.898
29.7200,2.059
29.7600,1.875
29.8000,2.078
29.8400,1.955
29.8800,2.046
29.9200,2.016
29.9600,1.783
30.0000,1.816
30.0400,2.125
30.0800,1.944
30.1200,1.900
30.1600,1.965
30.2000,1.884
30.2400,1.844
30.2800,1.963
30.3200,1.841
30.3600,1.890
30.4000,1.911
30.4400,1.861
30.4800,1.850
30.5200,1.949
30.5600,1.881
30.6000,1.824
30.6400,2.035
30.6800,1.794
30.7200,1.857
30.7600,1.768
30.8000,1.820
30.8400,1.904
30.8800,2.010
30.9200,1.873
30.9600,1.803
31.0000,1.919
31.0400,1.885
31.0800,1.757
31.1200,1.827
31.1600,1.799
31.2000,1.864
31.2400,1.887
31.2800,1.871
31.3200,1.731
31.3600,1.821
31.4000,1.755
31.4400,1.695
31.4800,1.741
31.5200,1.798
31.5600,1.760
31.6000,1.769
31.6400,1.755
31.6800,1.710
31.7200,1.755
31.7600,1.702
31.8000,1.701
31.8400,1.721
31.8800,1.763
31.9200,1.783
31.9600,1.760
32.0000,1.790
32.0400,1.832
32.0800,1.837
32.1200,1.755
32.1600,1.778
32.2000,1.687
32.2400,1.786
32.2800,1.766
32.3200,1.738
32.3600,1.620
32.4000,1.684
32.4400,1.719
32.4800,1.770
32.5200,1.706
32.5600,1.703
32.6000,1.600
32.6400,1.706
32.6800,1.718
32.7200,1.765
32.7600,2.015
32.8000,1.852
32.8400,1.894
32.8800,2.103
32.9200,2.440
32.9600,2.678
33.0000,2.946
33.0400,2.884
33.0800,2.487
33.1200,2.284
33.1600,1.990
33.2000,1.886
33.2400,1.797
33.2800,1.803
33.3200,1.710
33.3600,1.646
33.4000,1.747
33.4400,1.648
33.4800,1.613
33.5200,1.653
33.5600,1.552
33.6000,1.467
33.6400,1.573
33.6800,1.622
33.7200,1.592
33.7600,1.571
33.8000,1.504
33.8400,1.622
33.8800,1.527
33.9200,1.554
33.9600,1.591
34.0000,1.573
34.0400,1.651
34.0800,1.497
34.1200,1.572
34.1600,1.479
34.2000,1.514
34.2400,1.547
34.2800,1.482
34.3200,1.583
34.3600,1.572
34.4000,1.562
34.4400,1.433
34.4800,1.494
34.5200,1.461
34.5600,1.619
34.6000,1.551
34.6400,1.550
34.6800,1.451
34.7200,1.478
34.7600,1.501
34.8000,1.506
34.8400,1.543
34.8800,1.462
34.9200,1.598
34.9600,1.531
35.0000,1.586
35.0400,1.491
35.0800,1.551
35.1200,1.495
35.1600,1.490
35.2000,1.486
35.2400,1.552
35.2800,1.464
35.3200,1.527
35.3600,1.486
35.4000,1.411
35.4400,1.478
35.4800,1.380
35.5200,1.467
35.5600,1.497
35.6000,1.432
35.6400,1.461
35.6800,1.392
35.7200,1.425
35.7600,1.430
35.8000,1.381
35.8400,1.393
35.8800,1.508
35.9200,1.510
35.9600,1.549
36.0000,1.397
36.0400,1.543
36.0800,1.411
36.1200,1.335
36.1600,1.375
36.2000,1.394
36.2400,1.391
36.2800,1.415
36.3200,1.389
36.3600,1.400
36.4000,1.355
36.4400,1.450
36.4800,1.589
36.5200,1.390
36.5600,1.317
36.6000,1.500
36.6400,1.481
36.6800,1.452
36.7200,1.414
36.7600,1.425
36.8000,1.480
36.8400,1.399
36.8800,1.410
36.9200,1.385
36.9600,1.346
37.0000,1.350
37.0400,1.475
37.0800,1.387
37.1200,1.436
37.1600,1.345
37.2000,1.481
37.2400,1.532
37.2800,1.563
37.3200,1.422
37.3600,1.505
37.4000,1.548
37.4400,1.604
37.4800,1.786
37.5200,2.018
37.5600,2.182
37.6000,2.597
37.6400,3.093
37.6800,3.694
37.7200,4.647
37.7600,5.288
37.8000,5.898
37.8400,6.388
37.8800,6.356
37.9200,5.990
37.9600,5.806
38.0000,6.049
38.0400,6.893
38.0800,7.498
38.1200,6.239
38.1600,5.049
38.2000,4.205
38.2400,3.164
38.2800,2.634
38.3200,2.313
38.3600,2.162
38.4000,2.105
38.4400,1.890
38.4800,1.661
38.5200,1.538
38.5600,1.570
38.6000,1.496
38.6400,1.373
38.6800,1.409
38.7200,1.355
38.7600,1.424
38.8000,1.370
38.8400,1.283
38.8800,1.263
38.9200,1.305
38.9600,1.351
39.0000,1.302
39.0400,1.377
39.0800,1.321
39.1200,1.288
39.1600,1.296
39.2000,1.353
39.2400,1.254
39.2800,1.261
39.3200,1.253
39.3600,1.326
39.4000,1.213
39.4400,1.237
39.4800,1.192
39.5200,1.275
39.5600,1.291
39.6000,1.259
39.6400,1.255
39.6800,1.260
39.7200,1.174
39.7600,1.230
39.8000,1.214
39.8400,1.270
39.8800,1.217
39.9200,1.233
39.9600,1.284
40.0000,1.237
40.0400,1.282
40.0800,1.224
40.1200,1.206
40.1600,1.164
40.2000,1.236
40.2400,1.183
40.2800,1.107
40.3200,1.153
40.3600,1.160
40.4000,1.167
40.4400,1.164
40.4800,1.196
40.5200,1.248
40.5600,1.155
40.6000,1.135
40.6400,1.240
40.6800,1.198
40.7200,1.174
40.7600,1.163
40.8000,1.178
40.8400,1.169
40.8800,1.249
40.9200,1.207
40.9600,1.147
41.0000,1.193
41.0400,1.139
41.0800,1.164
41.1200,1.159
41.1600,1.127
41.2000,1.097
41.2400,1.147
41.2800,1.178
41.3200,1.070
41.3600,1.219
41.4000,1.180
41.4400,1.207
41.4800,1.195
41.5200,1.179
41.5600,1.130
41.6000,1.122
41.6400,1.153
41.6800,1.086
41.7200,1.117
41.7600,1.099
41.8000,1.190
41.8400,1.055
41.8800,1.111
41.9200,1.205
41.9600,1.036
42.0000,1.098
42.0400,1.070
42.0800,1.057
42.1200,1.125
42.1600,1.055
42.2000,1.083
42.2400,1.128
42.2800,1.141
42.3200,1.099
42.3600,1.039
42.4000,1.085
42.4400,1.094
42.4800,1.101
42.5200,1.132
42.5600,1.113
42.6000,1.009
42.6400,1.038
42.6800,1.091
42.7200,1.123
42.7600,1.139
42.8000,1.106
42.8400,1.148
42.8800,1.001
42.9200,1.144
42.9600,1.142
43.0000,1.087
43.0400,1.105
43.0800,1.046
43.1200,1.094
43.1600,1.099
43.2000,1.149
43.2400,1.070
43.2800,1.045
43.3200,1.046
43.3600,1.108
43.4000,1.142
43.4400,1.149
43.4800,1.212
43.5200,1.196
43.5600,1.190
43.6000,1.208
43.6400,1.428
43.6800,1.499
43.7200,1.582
43.7600,1.775
43.8000,1.971
43.8400,2.228
43.8800,2.322
43.9200,2.424
43.9600,2.445
44.0000,2.520
44.0400,2.607
44.0800,2.432
44.1200,2.420
44.1600,2.590
44.2000,2.818
44.2400,3.152
44.2800,3.147
44.3200,2.701
44.3600,2.218
44.4000,1.919
44.4400,1.615
44.4800,1.343
44.5200,1.192
44.5600,1.235
44.6000,1.101
44.6400,1.015
44.6800,1.069
44.7200,0.981
44.7600,1.054
44.8000,1.036
44.8400,1.038
44.8800,1.066
44.9200,0.998
44.9600,0.992
45.0000,0.957
45.0400,1.020
45.0800,1.007
45.1200,0.993
45.1600,0.991
45.2000,0.937
45.2400,0.966
45.2800,0.939
45.3200,0.924
45.3600,0.939
45.4000,0.908
45.4400,0.953
45.4800,0.971
45.5200,0.926
45.5600,0.957
45.6000,0.934
45.6400,0.913
45.6800,0.984
45.7200,0.930
45.7600,0.910
45.8000,0.919
45.8400,0.935
45.8800,0.861
45.9200,1.019
45.9600,0.947
46.0000,0.871
46.0400,0.888
46.0800,0.862
46.1200,0.848
46.1600,0.888
46.2000,0.918
46.2400,0.846
46.2800,0.950
46.3200,0.944
46.3600,0.847
46.4000,0.849
46.4400,0.861
46.4800,0.925
46.5200,0.865
46.5600,0.877
46.6000,0.917
46.6400,0.840
46.6800,0.838
46.7200,0.965
46.7600,0.941
46.8000,0.895
46.8400,0.984
46.8800,0.908
46.9200,0.888
46.9600,0.861
47.0000,0.896
47.0400,0.823
47.0800,0.924
47.1200,0.882
47.1600,0.865
47.2000,0.884
47.2400,0.914
47.2800,0.887
47.3200,0.864
47.3600,0.907
47.4000,0.892
47.4400,0.856
47.4800,0.857
47.5200,0.834
47.5600,0.932
47.6000,0.798
47.6400,0.772
47.6800,0.805
47.7200,0.856
47.7600,0.823
47.8000,0.834
47.8400,0.773
47.8800,0.910
47.9200,0.820
47.9600,0.853
48.0000,0.839
48.0400,0.878
48.0800,0.852
48.1200,0.733
48.1600,0.842
48.2000,0.913
48.2400,0.888
48.2800,0.742
48.3200,0.751
48.3600,0.805
48.4000,0.822
48.4400,0.742
48.4800,0.882
48.5200,0.816
48.5600,0.815
48.6000,0.830
48.6400,0.754
48.6800,0.827
48.7200,0.813
48.7600,0.772
48.8000,0.862
48.8400,0.747
48.8800,0.843
48.9200,0.833
48.9600,0.829
49.0000,0.794
49.0400,0.884
49.0800,0.822
49.1200,0.890
49.1600,0.779
49.2000,0.817
49.2400,0.793
49.2800,0.817
49.3200,0.750
49.3600,0.856
49.4000,0.837
49.4400,0.855
49.4800,0.789
49.5200,0.810
49.5600,0.852
49.6000,0.717
49.6400,0.838
49.6800,0.859
49.7200,0.771
49.7600,0.773
49.8000,0.808
49.8400,0.784
49.8800,0.844
49.9200,0.777
49.9600,0.761
50.0000,0.793
50.0400,0.820
50.0800,0.794
50.1200,0.775
50.1600,0.765
50.2000,0.735
50.2400,0.767
50.2800,0.794
50.3200,0.783
50.3600,0.764
50.4000,0.767
50.4400,0.741
50.4800,0.803
50.5200,0.802
50.5600,0.760
50.6000,0.753
50.6400,0.756
50.6800,0.770
50.7200,0.722
50.7600,0.738
50.8000,0.722
50.8400,0.748
50.8800,0.799
50.9200,0.751
50.9600,0.798
51.0000,0.670
51.0400,0.771
51.0800,0.694
51.1200,0.752
51.1600,0.770
51.2000,0.713
51.2400,0.694
51.2800,0.694
51.3200,0.627
51.3600,0.779
51.4000,0.691
51.4400,0.724
51.4800,0.749
51.5200,0.712
51.5600,0.707
51.6000,0.773
51.6400,0.794
51.6800,0.735
51.7200,0.723
51.7600,0.685
51.8000,0.711
51.8400,0.668
51.8800,0.683
51.9200,0.624
51.9600,0.693
52.0000,0.667
52.0400,0.728
52.0800,0.730
52.1200,0.755
52.1600,0.705
52.2000,0.688
52.2400,0.739
52.2800,0.690
52.3200,0.709
52.3600,0.710
52.4000,0.711
52.4400,0.667
52.4800,0.605
52.5200,0.631
52.5600,0.667
52.6000,0.658
52.6400,0.720
52.6800,0.750
52.7200,0.710
52.7600,0.712
52.8000,0.707
52.8400,0.684
52.8800,0.685
52.9200,0.682
52.9600,0.642
53.0000,0.725
53.0400,0.674
53.0800,0.712
53.1200,0.715
53.1600,0.700
53.2000,0.705
53.2400,0.681
53.2800,0.725
53.3200,0.684
53.3600,0.704
53.4000,0.667
53.4400,0.679
53.4800,0.667
53.5200,0.722
53.5600,0.610
53.6000,0.677
53.6400,0.708
53.6800,0.662
53.7200,0.675
53.7600,0.646
53.8000,0.705
53.8400,0.706
53.8800,0.632
53.9200,0.698
53.9600,0.671
54.0000,0.667
54.0400,0.664
54.0800,0.646
54.1200,0.705
54.1600,0.572
54.2000,0.734
54.2400,0.597
54.2800,0.652
54.3200,0.679
54.3600,0.644
54.4000,0.651
54.4400,0.611
54.4800,0.708
54.5200,0.614
54.5600,0.676
54.6000,0.731
54.6400,0.703
54.6800,0.662
54.7200,0.664
54.7600,0.673
54.8000,0.717
54.8400,0.660
54.8800,0.697
54.9200,0.733
54.9600,0.738
55.0000,0.708
55.0400,0.682
55.0800,0.701
55.1200,0.720
55.1600,0.787
55.2000,0.938
55.2400,0.934
55.2800,0.900
55.3200,0.918
55.3600,0.870
55.4000,0.871
55.4400,0.818
55.4800,0.777
55.5200,0.764
55.5600,0.681
55.6000,0.701
55.6400,0.730
55.6800,0.603
55.7200,0.589
55.7600,0.610
55.8000,0.633
55.8400,0.601
55.8800,0.617
55.9200,0.665
55.9600,0.599
56.0000,0.579
56.0400,0.653
56.0800,0.664
56.1200,0.666
56.1600,0.641
56.2000,0.665
56.2400,0.688
56.2800,0.615
56.3200,0.650
56.3600,0.618
56.4000,0.594
56.4400,0.597
56.4800,0.644
56.5200,0.565
56.5600,0.602
56.6000,0.634
56.6400,0.623
56.6800,0.605
56.7200,0.624
56.7600,0.593
56.8000,0.664
56.8400,0.588
56.8800,0.625
56.9200,0.588
56.9600,0.555
57.0000,0.633
57.0400,0.615
57.0800,0.627
57.1200,0.584
57.1600,0.561
57.2000,0.585
57.2400,0.597
57.2800,0.614
57.3200,0.565
57.3600,0.594
57.4000,0.613
57.4400,0.604
57.4800,0.637
57.5200,0.610
57.5600,0.569
57.6000,0.558
57.6400,0.532
57.6800,0.568
57.7200,0.562
57.7600,0.583
57.8000,0.553
57.8400,0.583
57.8800,0.559
57.9200,0.584
57.9600,0.626
58.0000,0.591
58.0400,0.554
58.0800,0.613
58.1200,0.634
58.1600,0.573
58.2000,0.548
58.2400,0.550
58.2800,0.603
58.3200,0.542
58.3600,0.585
58.4000,0.611
58.4400,0.617
58.4800,0.546
58.5200,0.574
58.5600,0.597
58.6000,0.545
58.6400,0.598
58.6800,0.634
58.7200,0.610
58.7600,0.544
58.8000,0.546
58.8400,0.619
58.8800,0.629
58.9200,0.563
58.9600,0.572
59.0000,0.564
59.0400,0.531
59.0800,0.516
59.1200,0.548
59.1600,0.572
59.2000,0.555
59.2400,0.594
59.2800,0.545
59.3200,0.510
59.3600,0.587
59.4000,0.528
59.4400,0.589
59.4800,0.585
59.5200,0.531
59.5600,0.594
59.6000,0.552
59.6400,0.542
59.6800,0.509
59.7200,0.568
59.7600,0.538
59.8000,0.483
59.8400,0.589
59.8800,0.551
59.9200,0.601
59.9600,0.515
60.0000,0.542
60.0400,0.518
60.0800,0.467
60.1200,0.555
60.1600,0.511
60.2000,0.500
60.2400,0.558
60.2800,0.561
60.3200,0.543
60.3600,0.551
60.4000,0.489
60.4400,0.514
60.4800,0.501
60.5200,0.523
60.5600,0.532
60.6000,0.480
60.6400,0.509
60.6800,0.496
60.7200,0.520
60.7600,0.545
60.8000,0.481
60.8400,0.499
60.8800,0.537
60.9200,0.485
60.9600,0.567
61.0000,0.507
61.0400,0.499
61.0800,0.591
61.1200,0.542
61.1600,0.484
61.2000,0.507
61.2400,0.507
61.2800,0.511
61.3200,0.526
61.3600,0.502
61.4000,0.515
61.4400,0.480
61.4800,0.544
61.5200,0.470
61.5600,0.534
61.6000,0.510
61.6400,0.512
61.6800,0.488
61.7200,0.482
61.7600,0.546
61.8000,0.507
61.8400,0.468
61.8800,0.467
61.9200,0.454
61.9600,0.574
62.0000,0.476
62.0400,0.526
62.0800,0.409
62.1200,0.480
62.1600,0.508
62.2000,0.403
62.2400,0.446
62.2800,0.456
62.3200,0.466
62.3600,0.486
62.4000,0.503
62.4400,0.486
62.4800,0.507
62.5200,0.455
62.5600,0.454
62.6000,0.444
62.6400,0.482
62.6800,0.470
62.7200,0.536
62.7600,0.448
62.8000,0.517
62.8400,0.494
62.8800,0.449
62.9200,0.467
62.9600,0.478
63.0000,0.515
63.0400,0.488
63.0800,0.472
63.1200,0.427
63.1600,0.471
63.2000,0.498
63.2400,0.503
63.2800,0.500
63.3200,0.484
63.3600,0.553
63.4000,0.552
63.4400,0.539
63.4800,0.586
63.5200,0.612
63.5600,0.559
63.6000,0.623
63.6400,0.666
63.6800,0.670
63.7200,0.705
63.7600,0.786
63.8000,0.844
63.8400,0.891
63.8800,0.854
63.9200,1.028
63.9600,0.886
64.0000,0.987
64.0400,0.971
64.0800,0.871
64.1200,0.921
64.1600,0.890
64.2000,0.867
64.2400,0.847
64.2800,0.876
64.3200,1.051
64.3600,1.074
64.4000,1.139
64.4400,1.010
64.4800,0.852
64.5200,0.803
64.5600,0.838
64.6000,0.810
64.6400,0.702
64.6800,0.534
64.7200,0.508
64.7600,0.504
64.8000,0.514
64.8400,0.423
64.8800,0.487
64.9200,0.487
64.9600,0.499
65.0000,0.455
65.0400,0.401
65.0800,0.498
65.1200,0.462
65.1600,0.425
65.2000,0.433
65.2400,0.447
65.2800,0.500
65.3200,0.446
65.3600,0.480
65.4000,0.425
65.4400,0.434
65.4800,0.475
65.5200,0.481
65.5600,0.381
65.6000,0.434
65.6400,0.493
65.6800,0.483
65.7200,0.487
65.7600,0.509
65.8000,0.523
65.8400,0.617
65.8800,0.543
65.9200,0.565
65.9600,0.531
66.0000,0.541
66.0400,0.511
66.0800,0.471
66.1200,0.487
66.1600,0.424
66.2000,0.417
66.2400,0.449
66.2800,0.381
66.3200,0.430
66.3600,0.389
66.4000,0.438
66.4400,0.399
66.4800,0.379
66.5200,0.462
66.5600,0.379
66.6000,0.417
66.6400,0.410
66.6800,0.365
66.7200,0.377
66.7600,0.398
66.8000,0.392
66.8400,0.358
66.8800,0.350
66.9200,0.364
66.9600,0.377
67.0000,0.418
67.0400,0.387
67.0800,0.414
67.1200,0.389
67.1600,0.376
67.2000,0.389
67.2400,0.384
67.2800,0.391
67.3200,0.392
67.3600,0.428
67.4000,0.385
67.4400,0.437
67.4800,0.412
67.5200,0.399
67.5600,0.348
67.6000,0.346
67.6400,0.382
67.6800,0.409
67.7200,0.363
67.7600,0.364
67.8000,0.400
67.8400,0.379
67.8800,0.338
67.9200,0.315
67.9600,0.411
68.0000,0.341
68.0400,0.354
68.0800,0.332
68.1200,0.384
68.1600,0.393
68.2000,0.370
68.2400,0.361
68.2800,0.392
68.3200,0.387
68.3600,0.382
68.4000,0.355
68.4400,0.400
68.4800,0.397
68.5200,0.369
68.5600,0.345
68.6000,0.371
68.6400,0.392
68.6800,0.298
68.7200,0.407
68.7600,0.383
68.8000,0.375
68.8400,0.374
68.8800,0.362
68.9200,0.408
68.9600,0.410
69.0000,0.383
69.0400,0.327
69.0800,0.384
69.1200,0.387
69.1600,0.428
69.2000,0.428
69.2400,0.405
69.2800,0.424
69.3200,0.402
69.3600,0.361
69.4000,0.423
69.4400,0.414
69.4800,0.435
69.5200,0.349
69.5600,0.342
69.6000,0.339
69.6400,0.386
69.6800,0.381
69.7200,0.361
69.7600,0.321
69.8000,0.358
69.8400,0.354
69.8800,0.416
69.9200,0.405
69.9600,0.376
70.0000,0.353
70.0400,0.379
70.0800,0.328
70.1200,0.368
70.1600,0.341
70.2000,0.361
70.2400,0.361
70.2800,0.322
70.3200,0.351
70.3600,0.338
70.4000,0.355
70.4400,0.356
70.4800,0.354
70.5200,0.293
70.5600,0.337
70.6000,0.365
70.6400,0.348
70.6800,0.323
70.7200,0.315
70.7600,0.349
70.8000,0.339
70.8400,0.347
70.8800,0.317
70.9200,0.370
70.9600,0.368
71.0000,0.334
71.0400,0.360
71.0800,0.314
71.1200,0.376
71.1600,0.335
71.2000,0.357
71.2400,0.358
71.2800,0.333
71.3200,0.342
71.3600,0.369
71.4000,0.343
71.4400,0.297
71.4800,0.333
71.5200,0.332
71.5600,0.336
71.6000,0.394
71.6400,0.340
71.6800,0.353
71.7200,0.317
71.7600,0.304
71.8000,0.347
71.8400,0.323
71.8800,0.318
71.9200,0.311
71.9600,0.346
72.0000,0.292
72.0400,0.350
72.0800,0.313
72.1200,0.354
72.1600,0.278
72.2000,0.342
72.2400,0.359
72.2800,0.323
72.3200,0.309
72.3600,0.343
72.4000,0.339
72.4400,0.306
72.4800,0.303
72.5200,0.301
72.5600,0.337
72.6000,0.327
72.6400,0.345
72.6800,0.307
72.7200,0.330
72.7600,0.312
72.8000,0.338
72.8400,0.372
72.8800,0.331
72.9200,0.315
72.9600,0.366
73.0000,0.304
73.0400,0.287
73.0800,0.287
73.1200,0.318
73.1600,0.323
73.2000,0.287
73.2400,0.325
73.2800,0.299
73.3200,0.293
73.3600,0.380
73.4000,0.374
73.4400,0.342
73.4800,0.324
73.5200,0.335
73.5600,0.300
73.6000,0.322
73.6400,0.317
73.6800,0.310
73.7200,0.270
73.7600,0.327
73.8000,0.289
73.8400,0.288
73.8800,0.326
73.9200,0.306
73.9600,0.271
74.0000,0.292
74.0400,0.288
74.0800,0.336
74.1200,0.328
74.1600,0.317
74.2000,0.315
74.2400,0.313
74.2800,0.315
74.3200,0.309
74.3600,0.332
74.4000,0.334
74.4400,0.340
74.4800,0.297
74.5200,0.299
74.5600,0.320
74.6000,0.322
74.6400,0.289
74.6800,0.309
74.7200,0.279
74.7600,0.284
74.8000,0.306
74.8400,0.335
74.8800,0.277
74.9200,0.316
74.9600,0.318
75.0000,0.324
75.0400,0.313
75.0800,0.268
75.1200,0.272
75.1600,0.319
75.2000,0.315
75.2400,0.322
75.2800,0.328
75.3200,0.318
75.3600,0.313
75.4000,0.350
75.4400,0.293
75.4800,0.306
75.5200,0.293
75.5600,0.323
75.6000,0.312
75.6400,0.283
75.6800,0.326
75.7200,0.331
75.7600,0.311
75.8000,0.309
75.8400,0.330
75.8800,0.289
75.9200,0.295
75.9600,0.299
76.0000,0.374
76.0400,0.339
76.0800,0.359
76.1200,0.379
76.1600,0.366
76.2000,0.380
76.2400,0.350
76.2800,0.430
76.3200,0.471
76.3600,0.417
76.4000,0.502
76.4400,0.497
76.4800,0.569
76.5200,0.543
76.5600,0.560
76.6000,0.666
76.6400,0.655
76.6800,0.625
76.7200,0.644
76.7600,0.672
76.8000,0.691
76.8400,0.703
76.8800,0.601
76.9200,0.647
76.9600,0.687
77.0000,0.682
77.0400,0.616
77.0800,0.588
77.1200,0.648
77.1600,0.616
77.2000,0.649
77.2400,0.727
77.2800,0.821
77.3200,0.874
77.3600,0.872
77.4000,0.830
77.4400,0.651
77.4800,0.611
77.5200,0.589
77.5600,0.611
77.6000,0.557
77.6400,0.486
77.6800,0.424
77.7200,0.379
77.7600,0.334
77.8000,0.373
77.8400,0.347
77.8800,0.306
77.9200,0.290
77.9600,0.326
78.0000,0.276
78.0400,0.347
78.0800,0.310
78.1200,0.294
78.1600,0.308
78.2000,0.253
78.2400,0.296
78.2800,0.326
78.3200,0.327
78.3600,0.329
78.4000,0.304
78.4400,0.270
78.4800,0.284
78.5200,0.277
78.5600,0.297
78.6000,0.280
78.6400,0.306
78.6800,0.298
78.7200,0.258
78.7600,0.265
78.8000,0.302
78.8400,0.278
78.8800,0.327
78.9200,0.300
78.9600,0.278
79.0000,0.274
79.0400,0.269
79.0800,0.316
79.1200,0.297
79.1600,0.330
79.2000,0.271
79.2400,0.315
79.2800,0.259
79.3200,0.295
79.3600,0.255
79.4000,0.294
79.4400,0.303
79.4800,0.278
79.5200,0.279
79.5600,0.314
79.6000,0.292
79.6400,0.301
79.6800,0.273
79.7200,0.266
79.7600,0.269
79.8000,0.305
79.8400,0.276
79.8800,0.281
79.9200,0.288
79.9600,0.304
80.0000,0.275
