theta,intensity
5.0000,4.439
5.0400,4.367
5.0800,4.533
5.1200,4.371
5.1600,4.415
5.2000,4.390
5.2400,4.255
5.2800,4.342
5.3200,4.326
5.3600,4.338
5.4000,4.306
5.4400,4.175
5.4800,4.389
5.5200,4.357
5.5600,4.346
5.6000,4.169
5.6400,4.132
5.6800,4.219
5.7200,4.309
5.7600,4.247
5.8000,4.316
5.8400,4.072
5.8800,4.187
5.9200,4.209
5.9600,4.200
6.0000,4.113
6.0400,4.171
6.0800,4.105
6.1200,4.165
6.1600,4.168
6.2000,4.144
6.2400,4.136
6.2800,4.146
6.3200,4.097
6.3600,4.131
6.4000,4.123
6.4400,4.253
6.4800,4.127
6.5200,4.055
6.5600,4.141
6.6000,4.129
6.6400,4.069
6.6800,4.174
6.7200,4.030
6.7600,3.986
6.8000,3.995
6.8400,4.036
6.8800,4.060
6.9200,4.039
6.9600,3.972
7.0000,4.008
7.0400,4.129
7.0800,3.921
7.1200,4.007
7.1600,3.932
7.2000,4.018
7.2400,3.894
7.2800,4.000
7.3200,4.037
7.3600,3.902
7.4000,3.931
7.4400,3.955
7.4800,4.081
7.5200,3.978
7.5600,3.982
7.6000,3.845
7.6400,3.681
7.6800,3.846
7.7200,3.968
7.7600,3.888
7.8000,3.879
7.8400,3.894
7.8800,3.894
7.9200,3.878
7.9600,3.905
8.0000,3.832
8.0400,3.751
8.0800,3.877
8.1200,3.841
8.1600,3.830
8.2000,3.862
8.2400,3.870
8.2800,3.963
8.3200,3.918
8.3600,3.796
8.4000,3.797
8.4400,3.817
8.4800,3.830
8.5200,3.857
8.5600,3.717
8.6000,3.872
8.6400,3.744
8.6800,3.847
8.7200,3.896
8.7600,3.734
8.8000,3.726
8.8400,3.671
8.8800,3.651
8.9200,3.706
8.9600,3.724
9.0000,3.754
9.0400,3.614
9.0800,3.674
9.1200,3.733
9.1600,3.771
9.2000,3.739
9.2400,3.815
9.2800,3.641
9.3200,3.754
9.3600,3.771
9.4000,3.739
9.4400,3.584
9.4800,3.594
9.5200,3.669
9.5600,3.634
9.6000,3.623
9.6400,3.578
9.6800,3.689
9.7200,3.706
9.7600,3.619
9.8000,3.583
9.8400,3.524
9.8800,3.708
9.9200,3.581
9.9600,3.618
10.0000,3.721
10.0400,3.595
10.0800,3.643
10.1200,3.639
10.1600,3.580
10.2000,3.648
10.2400,3.659
10.2800,3.597
10.3200,3.602
10.3600,3.622
10.4000,3.665
10.4400,3.504
10.4800,3.532
10.5200,3.524
10.5600,3.544
10.6000,3.559
10.6400,3.658
10.6800,3.603
10.7200,3.633
10.7600,3.651
10.8000,3.526
10.8400,3.500
10.8800,3.655
10.9200,3.510
10.9600,3.432
11.0000,3.498
11.0400,3.552
11.0800,3.520
11.1200,3.559
11.1600,3.579
11.2000,3.619
11.2400,3.474
11.2800,3.412
11.3200,3.545
11.3600,3.393
11.4000,3.557
11.4400,3.489
11.4800,3.474
11.5200,3.594
11.5600,3.459
11.6000,3.565
11.6400,3.450
11.6800,3.475
11.7200,3.506
11.7600,3.539
11.8000,3.497
11.8400,3.355
11.8800,3.477
11.9200,3.412
11.9600,3.396
12.0000,3.359
12.0400,3.507
12.0800,3.454
12.1200,3.386
12.1600,3.511
12.2000,3.341
12.2400,3.385
12.2800,3.397
12.3200,3.418
12.3600,3.506
12.4000,3.413
12.4400,3.398
12.4800,3.474
12.5200,3.374
12.5600,3.402
12.6000,3.339
12.6400,3.270
12.6800,3.372
12.7200,3.275
12.7600,3.454
12.8000,3.398
12.8400,3.344
12.8800,3.396
12.9200,3.416
12.9600,3.407
13.0000,3.374
13.0400,3.227
13.0800,3.202
13.1200,3.364
13.1600,3.289
13.2000,3.307
13.2400,3.340
13.2800,3.319
13.3200,3.357
13.3600,3.482
13.4000,3.247
13.4400,3.280
13.4800,3.335
13.5200,3.336
13.5600,3.275
13.6000,3.248
13.6400,3.293
13.6800,3.241
13.7200,3.361
13.7600,3.410
13.8000,3.261
13.8400,3.216
13.8800,3.327
13.9200,3.346
13.9600,3.293
14.0000,3.159
14.0400,3.188
14.0800,3.347
14.1200,3.203
14.1600,3.241
14.2000,3.213
14.2400,3.225
14.2800,3.309
14.3200,3.197
14.3600,3.226
14.4000,3.199
14.4400,3.209
14.4800,3.135
14.5200,3.136
14.5600,3.292
14.6000,3.278
14.6400,3.289
14.6800,3.243
14.7200,3.159
14.7600,3.100
14.8000,3.158
14.8400,3.099
14.8800,3.118
14.9200,3.090
14.9600,3.225
15.0000,3.168
15.0400,3.168
15.0800,3.100
15.1200,3.248
15.1600,3.260
15.2000,3.198
15.2400,3.215
15.2800,3.132
15.3200,3.102
15.3600,3.080
15.4000,3.210
15.4400,3.254
15.4800,3.142
15.5200,3.215
15.5600,3.170
15.6000,3.097
15.6400,3.128
15.6800,3.160
15.7200,3.016
15.7600,3.140
15.8000,3.195
15.8400,3.139
15.8800,3.073
15.9200,3.068
15.9600,3.080
16.0000,3.089
16.0400,3.130
16.0800,3.168
16.1200,3.112
16.1600,3.035
16.2000,3.149
16.2400,3.062
16.2800,3.213
16.3200,3.085
16.3600,3.097
16.4000,3.117
16.4400,3.034
16.4800,3.115
16.5200,3.065
16.5600,3.058
16.6000,2.994
16.6400,3.033
16.6800,3.025
16.7200,2.982
16.7600,3.094
16.8000,3.024
16.8400,3.022
16.8800,3.108
16.9200,2.975
16.9600,3.002
17.0000,3.082
17.0400,3.092
17.0800,3.082
17.1200,2.964
17.1600,3.043
17.2000,3.032
17.2400,3.109
17.2800,2.995
17.3200,3.031
17.3600,2.987
17.4000,2.903
17.4400,2.973
17.4800,3.021
17.5200,2.982
17.5600,3.083
17.6000,2.981
17.6400,3.132
17.6800,3.021
17.7200,2.988
17.7600,2.863
17.8000,2.938
17.8400,2.961
17.8800,2.982
17.9200,2.969
17.9600,2.941
18.0000,2.955
18.0400,2.914
18.0800,2.817
18.1200,2.960
18.1600,2.907
18.2000,2.967
18.2400,2.930
18.2800,2.831
18.3200,2.909
18.3600,2.790
18.4000,2.909
18.4400,2.834
18.4800,2.819
18.5200,2.898
18.5600,2.882
18.6000,2.876
18.6400,2.883
18.6800,2.878
18.7200,2.903
18.7600,2.908
18.8000,2.760
18.8400,2.849
18.8800,2.930
18.9200,2.898
18.9600,2.846
19.0000,2.879
19.0400,2.832
19.0800,2.860
19.1200,2.776
19.1600,2.776
19.2000,2.772
19.2400,2.865
19.2800,2.841
19.3200,2.827
19.3600,2.786
19.4000,2.811
19.4400,2.776
19.4800,2.812
19.5200,2.839
19.5600,2.859
19.6000,2.804
19.6400,2.801
19.6800,2.688
19.7200,2.797
19.7600,2.740
19.8000,2.752
19.8400,2.745
19.8800,2.760
19.9200,2.671
19.9600,2.718
20.0000,2.720
20.0400,2.691
20.0800,2.670
20.1200,2.630
20.1600,2.753
20.2000,2.737
20.2400,2.704
20.2800,2.651
20.3200,2.728
20.3600,2.757
20.4000,2.801
20.4400,2.689
20.4800,2.772
20.5200,2.736
20.5600,2.774
20.6000,2.621
20.6400,2.691
20.6800,2.757
20.7200,2.748
20.7600,2.713
20.8000,2.635
20.8400,2.879
20.8800,3.239
20.9200,4.111
20.9600,4.183
21.0000,3.654
21.0400,3.185
21.0800,2.800
21.1200,2.704
21.1600,2.677
21.2000,2.659
21.2400,2.673
21.2800,2.680
21.3200,2.708
21.3600,2.624
21.4000,2.666
21.4400,2.597
21.4800,2.642
21.5200,2.583
21.5600,2.704
21.6000,2.665
21.6400,2.711
21.6800,2.682
21.7200,2.709
21.7600,2.663
21.8000,2.917
21.8400,3.527
21.8800,4.390
21.9200,4.294
21.9600,3.465
22.0000,3.110
22.0400,2.863
22.0800,2.686
22.1200,2.743
22.1600,2.689
22.2000,2.669
22.2400,2.775
22.2800,2.706
22.3200,2.622
22.3600,2.755
22.4000,2.611
22.4400,2.575
22.4800,2.523
22.5200,2.610
22.5600,2.490
22.6000,2.614
22.6400,2.648
22.6800,2.563
22.7200,2.601
22.7600,2.592
22.8000,2.537
22.8400,2.583
22.8800,2.532
22.9200,2.534
22.9600,2.550
23.0000,2.567
23.0400,2.498
23.0800,2.547
23.1200,2.487
23.1600,2.540
23.2000,2.629
23.2400,2.556
23.2800,2.561
23.3200,2.670
23.3600,2.527
23.4000,2.608
23.4400,2.620
23.4800,2.678
23.5200,2.644
23.5600,2.687
23.6000,2.625
23.6400,2.690
23.6800,2.612
23.7200,2.679
23.7600,2.520
23.8000,2.442
23.8400,2.595
23.8800,2.536
23.9200,2.529
23.9600,2.467
24.0000,2.433
24.0400,2.574
24.0800,2.463
24.1200,2.450
24.1600,2.507
24.2000,2.719
24.2400,3.368
24.2800,4.202
24.3200,4.258
24.3600,3.674
24.4000,3.117
24.4400,2.769
24.4800,2.800
24.5200,2.806
24.5600,2.747
24.6000,2.541
24.6400,2.475
24.6800,2.415
24.7200,2.427
24.7600,2.508
24.8000,2.411
24.8400,2.473
24.8800,2.411
24.9200,2.420
24.9600,2.422
25.0000,2.377
25.0400,2.407
25.0800,2.427
25.1200,2.382
25.1600,2.419
25.2000,2.421
25.2400,2.426
25.2800,2.423
25.3200,2.347
25.3600,2.397
25.4000,2.371
25.4400,2.437
25.4800,2.552
25.5200,2.418
25.5600,2.469
25.6000,2.463
25.6400,2.453
25.6800,2.460
25.7200,2.312
25.7600,2.358
25.8000,2.418
25.8400,2.308
25.8800,2.403
25.9200,2.346
25.9600,2.311
26.0000,2.314
26.0400,2.250
26.0800,2.274
26.1200,2.380
26.1600,2.263
26.2000,2.368
26.2400,2.305
26.2800,2.312
26.3200,2.306
26.3600,2.326
26.4000,2.357
26.4400,2.264
26.4800,2.355
26.5200,2.324
26.5600,2.232
26.6000,2.225
26.6400,2.296
26.6800,2.285
26.7200,2.308
26.7600,2.343
26.8000,2.316
26.8400,2.301
26.8800,2.369
26.9200,2.221
26.9600,2.356
27.0000,2.330
27.0400,2.276
27.0800,2.263
27.1200,2.359
27.1600,2.295
27.2000,2.313
27.2400,2.186
27.2800,2.283
27.3200,2.186
27.3600,2.300
27.4000,2.239
27.4400,2.235
27.4800,2.190
27.5200,2.227
27.5600,2.262
27.6000,2.288
27.6400,2.276
27.6800,2.314
27.7200,2.170
27.7600,2.247
27.8000,2.199
27.8400,2.231
27.8800,2.324
27.9200,2.316
27.9600,2.270
28.0000,2.298
28.0400,2.246
28.0800,2.263
28.1200,2.307
28.1600,2.330
28.2000,2.278
28.2400,2.306
28.2800,2.283
28.3200,2.448
28.3600,2.328
28.4000,2.321
28.4400,2.371
28.4800,2.348
28.5200,2.347
28.5600,2.380
28.6000,2.327
28.6400,2.366
28.6800,2.356
28.7200,2.289
28.7600,2.339
28.8000,2.300
28.8400,2.263
28.8800,2.322
28.9200,2.247
28.9600,2.291
29.0000,2.254
29.0400,2.282
29.0800,2.351
29.1200,2.235
29.1600,2.206
29.2000,2.251
29.2400,2.245
29.2800,2.278
29.3200,2.194
29.3600,2.145
29.4000,2.171
29.4400,2.199
29.4800,2.117
29.5200,2.222
29.5600,2.175
29.6000,2.198
29.6400,2.181
29.6800,2.170
29.7200,2.113
29.7600,2.102
29.8000,2.079
29.8400,2.069
29.8800,2.080
29.9200,2.111
29.9600,2.065
30.0000,2.109
30.0400,2.098
30.0800,2.120
30.1200,2.170
30.1600,2.188
30.2000,2.080
30.2400,2.171
30.2800,2.265
30.3200,2.216
30.3600,2.378
30.4000,2.541
30.4400,2.752
30.4800,2.689
30.5200,2.535
30.5600,2.290
30.6000,2.074
30.6400,2.032
30.6800,2.086
30.7200,2.005
30.7600,1.985
30.8000,1.955
30.8400,1.980
30.8800,1.928
30.9200,1.902
30.9600,1.940
31.0000,1.981
31.0400,2.010
31.0800,1.958
31.1200,1.905
31.1600,1.947
31.2000,1.820
31.2400,1.962
31.2800,2.017
31.3200,1.948
31.3600,1.896
31.4000,1.905
31.4400,1.918
31.4800,1.933
31.5200,1.880
31.5600,1.963
31.6000,1.912
31.6400,1.937
31.6800,1.902
31.7200,1.870
31.7600,1.908
31.8000,1.922
31.8400,1.925
31.8800,1.808
31.9200,1.868
31.9600,1.872
32.0000,1.831
32.0400,1.913
32.0800,1.934
32.1200,1.926
32.1600,1.877
32.2000,1.903
32.2400,1.861
32.2800,1.854
32.3200,1.872
32.3600,1.898
32.4000,1.834
32.4400,1.926
32.4800,1.868
32.5200,1.889
32.5600,1.881
32.6000,1.837
32.6400,1.854
32.6800,1.908
32.7200,1.881
32.7600,1.724
32.8000,1.806
32.8400,1.889
32.8800,2.039
32.9200,1.961
32.9600,2.226
33.0000,2.775
33.0400,3.339
33.0800,3.454
33.1200,3.194
33.1600,2.872
33.2000,2.413
33.2400,2.122
33.2800,1.977
33.3200,1.826
33.3600,1.846
33.4000,1.807
33.4400,1.783
33.4800,1.686
33.5200,1.738
33.5600,1.715
33.6000,1.742
33.6400,1.729
33.6800,1.698
33.7200,1.667
33.7600,1.691
33.8000,1.793
33.8400,1.757
33.8800,1.710
33.9200,1.742
33.9600,1.649
34.0000,1.688
34.0400,1.671
34.0800,1.682
34.1200,1.660
34.1600,1.724
34.2000,1.703
34.2400,1.676
34.2800,1.630
34.3200,1.644
34.3600,1.626
34.4000,1.683
34.4400,1.651
34.4800,1.705
34.5200,1.718
34.5600,1.731
34.6000,1.594
34.6400,1.618
34.6800,1.653
34.7200,1.630
34.7600,1.746
34.8000,1.668
34.8400,1.684
34.8800,1.683
34.9200,1.718
34.9600,1.631
35.0000,1.597
35.0400,1.682
35.0800,1.740
35.1200,1.688
35.1600,1.712
35.2000,1.687
35.2400,1.836
35.2800,2.063
35.3200,2.552
35.3600,2.687
35.4000,2.461
35.4400,2.291
35.4800,1.987
35.5200,1.776
35.5600,1.711
35.6000,1.699
35.6400,1.704
35.6800,1.720
35.7200,1.658
35.7600,1.637
35.8000,1.649
35.8400,1.584
35.8800,1.671
35.9200,1.582
35.9600,1.589
36.0000,1.566
36.0400,1.612
36.0800,1.646
36.1200,1.571
36.1600,1.573
36.2000,1.590
36.2400,1.595
36.2800,1.620
36.3200,1.647
36.3600,1.652
36.4000,1.701
36.4400,1.635
36.4800,1.669
36.5200,1.658
36.5600,1.599
36.6000,1.602
36.6400,1.552
36.6800,1.619
36.7200,1.599
36.7600,1.585
36.8000,1.596
36.8400,1.581
36.8800,1.545
36.9200,1.585
36.9600,1.608
37.0000,1.542
37.0400,1.566
37.0800,1.610
37.1200,1.557
37.1600,1.497
37.2000,1.617
37.2400,1.605
37.2800,1.579
37.3200,1.516
37.3600,1.571
37.4000,1.532
37.4400,1.656
37.4800,1.551
37.5200,1.665
37.5600,1.668
37.6000,1.565
37.6400,1.646
37.6800,1.641
37.7200,1.675
37.7600,1.713
37.8000,1.823
37.8400,1.933
37.8800,1.919
37.9200,1.871
37.9600,1.937
38.0000,1.956
38.0400,2.071
38.0800,2.132
38.1200,2.452
38.1600,2.952
38.2000,3.673
38.2400,5.024
38.2800,9.189
38.3200,15.859
38.3600,18.330
38.4000,15.705
38.4400,13.651
38.4800,10.908
38.5200,7.282
38.5600,5.494
38.6000,4.830
38.6400,5.317
38.6800,7.640
38.7200,13.416
38.7600,14.903
38.8000,12.055
38.8400,10.613
38.8800,7.796
38.9200,4.555
38.9600,3.327
39.0000,2.876
39.0400,2.912
39.0800,2.737
39.1200,2.686
39.1600,2.545
39.2000,2.355
39.2400,2.204
39.2800,2.145
39.3200,2.288
39.3600,2.387
39.4000,2.256
39.4400,2.214
39.4800,2.023
39.5200,1.878
39.5600,1.773
39.6000,1.656
39.6400,1.611
39.6800,1.563
39.7200,1.523
39.7600,1.517
39.8000,1.495
39.8400,1.534
39.8800,1.645
39.9200,1.699
39.9600,2.026
40.0000,1.959
40.0400,1.832
40.0800,1.755
40.1200,1.673
40.1600,1.571
40.2000,1.435
40.2400,1.546
40.2800,1.505
40.3200,1.446
40.3600,1.486
40.4000,1.534
40.4400,1.565
40.4800,1.490
40.5200,1.386
40.5600,1.458
40.6000,1.460
40.6400,1.444
40.6800,1.387
40.7200,1.309
40.7600,1.404
40.8000,1.303
40.8400,1.375
40.8800,1.348
40.9200,1.397
40.9600,1.305
41.0000,1.313
41.0400,1.339
41.0800,1.394
41.1200,1.367
41.1600,1.400
41.2000,1.458
41.2400,1.362
41.2800,1.396
41.3200,1.415
41.3600,1.442
41.4000,1.364
41.4400,1.338
41.4800,1.317
41.5200,1.251
41.5600,1.293
41.6000,1.322
41.6400,1.290
41.6800,1.204
41.7200,1.248
41.7600,1.289
41.8000,1.263
41.8400,1.233
41.8800,1.220
41.9200,1.298
41.9600,1.215
42.0000,1.212
42.0400,1.206
42.0800,1.252
42.1200,1.185
42.1600,1.282
42.2000,1.252
42.2400,1.287
42.2800,1.175
42.3200,1.155
42.3600,1.165
42.4000,1.217
42.4400,1.223
42.4800,1.280
42.5200,1.308
42.5600,1.319
42.6000,1.229
42.6400,1.281
42.6800,1.251
42.7200,1.267
42.7600,1.289
42.8000,1.249
42.8400,1.156
42.8800,1.251
42.9200,1.211
42.9600,1.160
43.0000,1.126
43.0400,1.284
43.0800,1.183
43.1200,1.204
43.1600,1.183
43.2000,1.232
43.2400,1.201
43.2800,1.159
43.3200,1.165
43.3600,1.199
43.4000,1.103
43.4400,1.201
43.4800,1.137
43.5200,1.169
43.5600,1.164
43.6000,1.204
43.6400,1.238
43.6800,1.132
43.7200,1.221
43.7600,1.199
43.8000,1.206
43.8400,1.259
43.8800,1.233
43.9200,1.343
43.9600,1.474
44.0000,1.912
44.0400,2.597
44.0800,2.753
44.1200,2.361
44.1600,2.163
44.2000,1.972
44.2400,1.630
44.2800,1.405
44.3200,1.326
44.3600,1.291
44.4000,1.277
44.4400,1.271
44.4800,1.475
44.5200,1.673
44.5600,1.727
44.6000,1.499
44.6400,1.556
44.6800,1.433
44.7200,1.281
44.7600,1.178
44.8000,1.164
44.8400,1.154
44.8800,1.166
44.9200,1.053
44.9600,1.108
45.0000,1.132
45.0400,1.074
45.0800,1.087
45.1200,1.128
45.1600,1.149
45.2000,1.147
45.2400,1.030
45.2800,1.078
45.3200,1.091
45.3600,1.123
45.4000,1.122
45.4400,1.091
45.4800,1.049
45.5200,1.114
45.5600,1.011
45.6000,1.043
45.6400,1.019
45.6800,1.081
45.7200,1.034
45.7600,1.087
45.8000,1.179
45.8400,1.327
45.8800,1.437
45.9200,1.339
45.9600,1.253
46.0000,1.249
46.0400,1.155
46.0800,1.072
46.1200,0.990
46.1600,1.065
46.2000,1.051
46.2400,0.984
46.2800,1.041
46.3200,1.064
46.3600,0.983
46.4000,0.969
46.4400,0.979
46.4800,0.964
46.5200,0.994
46.5600,1.062
46.6000,0.996
46.6400,0.994
46.6800,1.014
46.7200,1.022
46.7600,0.963
46.8000,0.965
46.8400,1.033
46.8800,0.939
46.9200,0.932
46.9600,1.012
47.0000,1.055
47.0400,1.008
47.0800,0.953
47.1200,0.950
47.1600,0.990
47.2000,0.998
47.2400,0.979
47.2800,1.004
47.3200,0.956
47.3600,0.970
47.4000,0.956
47.4400,1.017
47.4800,0.977
47.5200,0.989
47.5600,0.935
47.6000,1.007
47.6400,1.004
47.6800,1.055
47.7200,1.126
47.7600,1.126
47.8000,1.117
47.8400,1.173
47.8800,1.063
47.9200,1.043
47.9600,1.014
48.0000,0.986
48.0400,1.017
48.0800,0.962
48.1200,0.998
48.1600,0.997
48.2000,0.964
48.2400,1.059
48.2800,0.974
48.3200,1.027
48.3600,0.981
48.4000,1.033
48.4400,0.914
48.4800,0.952
48.5200,0.971
48.5600,0.965
48.6000,0.943
48.6400,0.975
48.6800,0.932
48.7200,0.944
48.7600,0.940
48.8000,0.887
48.8400,0.911
48.8800,0.961
48.9200,0.849
48.9600,0.863
49.0000,0.960
49.0400,0.918
49.0800,0.975
49.1200,0.910
49.1600,0.944
49.2000,0.914
49.2400,0.878
49.2800,0.937
49.3200,0.903
49.3600,0.925
49.4000,0.858
49.4400,0.854
49.4800,0.882
49.5200,0.920
49.5600,0.901
49.6000,0.920
49.6400,0.930
49.6800,0.986
49.7200,0.935
49.7600,0.971
49.8000,0.930
49.8400,0.933
49.8800,0.924
49.9200,0.942
49.9600,0.901
50.0000,0.978
50.0400,0.938
50.0800,0.988
50.1200,0.935
50.1600,0.972
50.2000,0.939
50.2400,0.865
50.2800,0.892
50.3200,0.875
50.3600,0.871
50.4000,0.852
50.4400,0.927
50.4800,0.878
50.5200,0.868
50.5600,0.906
50.6000,0.877
50.6400,0.875
50.6800,0.896
50.7200,0.831
50.7600,0.834
50.8000,0.802
50.8400,0.855
50.8800,0.866
50.9200,0.826
50.9600,0.849
51.0000,0.828
51.0400,0.855
51.0800,0.837
51.1200,0.834
51.1600,0.915
51.2000,0.834
51.2400,0.827
51.2800,0.823
51.3200,0.838
51.3600,0.837
51.4000,0.837
51.4400,0.816
51.4800,0.846
51.5200,0.833
51.5600,0.837
51.6000,0.793
51.6400,0.866
51.6800,0.803
51.7200,0.813
51.7600,0.851
51.8000,0.830
51.8400,0.818
51.8800,0.846
51.9200,0.865
51.9600,0.808
52.0000,0.798
52.0400,0.803
52.0800,0.804
52.1200,0.750
52.1600,0.777
52.2000,0.822
52.2400,0.844
52.2800,0.838
52.3200,0.852
52.3600,0.797
52.4000,0.795
52.4400,0.832
52.4800,0.861
52.5200,0.885
52.5600,0.803
52.6000,0.800
52.6400,0.846
52.6800,0.837
52.7200,0.806
52.7600,0.840
52.8000,0.820
52.8400,0.776
52.8800,0.746
52.9200,0.728
52.9600,0.745
53.0000,0.830
53.0400,0.834
53.0800,0.804
53.1200,0.812
53.1600,0.812
53.2000,0.833
53.2400,0.838
53.2800,0.829
53.3200,0.849
53.3600,0.740
53.4000,0.752
53.4400,0.769
53.4800,0.794
53.5200,0.714
53.5600,0.765
53.6000,0.745
53.6400,0.719
53.6800,0.798
53.7200,0.813
53.7600,0.756
53.8000,0.769
53.8400,0.706
53.8800,0.764
53.9200,0.702
53.9600,0.831
54.0000,0.777
54.0400,0.837
54.0800,0.756
54.1200,0.783
54.1600,0.717
54.2000,0.752
54.2400,0.756
54.2800,0.767
54.3200,0.730
54.3600,0.736
54.4000,0.728
54.4400,0.758
54.4800,0.764
54.5200,0.757
54.5600,0.780
54.6000,0.740
54.6400,0.742
54.6800,0.694
54.7200,0.747
54.7600,0.832
54.8000,0.744
54.8400,0.728
54.8800,0.788
54.9200,0.812
54.9600,0.761
55.0000,0.816
55.0400,0.841
55.0800,0.876
55.1200,0.828
55.1600,0.868
55.2000,0.906
55.2400,1.025
55.2800,1.025
55.3200,1.139
55.3600,1.099
55.4000,1.075
55.4400,1.216
55.4800,1.400
55.5200,1.792
55.5600,2.567
55.6000,3.343
55.6400,2.942
55.6800,2.182
55.7200,2.117
55.7600,2.163
55.8000,1.805
55.8400,1.316
55.8800,1.040
55.9200,0.928
55.9600,0.858
56.0000,0.815
56.0400,0.792
56.0800,0.809
56.1200,0.785
56.1600,0.793
56.2000,0.763
56.2400,0.698
56.2800,0.723
56.3200,0.780
56.3600,0.673
56.4000,0.749
56.4400,0.741
56.4800,0.736
56.5200,0.721
56.5600,0.747
56.6000,0.771
56.6400,0.797
56.6800,0.732
56.7200,0.770
56.7600,0.733
56.8000,0.721
56.8400,0.688
56.8800,0.721
56.9200,0.802
56.9600,0.725
57.0000,0.718
57.0400,0.701
57.0800,0.763
57.1200,0.751
57.1600,0.727
57.2000,0.748
57.2400,0.701
57.2800,0.697
57.3200,0.722
57.3600,0.714
57.4000,0.733
57.4400,0.655
57.4800,0.683
57.5200,0.683
57.5600,0.716
57.6000,0.765
57.6400,0.698
57.6800,0.664
57.7200,0.708
57.7600,0.690
57.8000,0.671
57.8400,0.657
57.8800,0.676
57.9200,0.687
57.9600,0.725
58.0000,0.804
58.0400,0.783
58.0800,0.798
58.1200,0.749
58.1600,0.729
58.2000,0.778
58.2400,0.794
58.2800,0.782
58.3200,0.718
58.3600,0.744
58.4000,0.691
58.4400,0.746
58.4800,0.765
58.5200,0.950
58.5600,0.919
58.6000,0.866
58.6400,0.848
58.6800,0.782
58.7200,0.788
58.7600,0.742
58.8000,0.756
58.8400,0.727
58.8800,0.712
58.9200,0.705
58.9600,0.648
59.0000,0.677
59.0400,0.678
59.0800,0.637
59.1200,0.677
59.1600,0.624
59.2000,0.657
59.2400,0.650
59.2800,0.623
59.3200,0.603
59.3600,0.643
59.4000,0.644
59.4400,0.670
59.4800,0.671
59.5200,0.634
59.5600,0.667
59.6000,0.676
59.6400,0.606
59.6800,0.586
59.7200,0.609
59.7600,0.614
59.8000,0.697
59.8400,0.625
59.8800,0.611
59.9200,0.619
59.9600,0.641
60.0000,0.614
60.0400,0.606
60.0800,0.626
60.1200,0.698
60.1600,0.689
60.2000,0.693
60.2400,0.616
60.2800,0.658
60.3200,0.620
60.3600,0.664
60.4000,0.619
60.4400,0.630
60.4800,0.658
60.5200,0.559
60.5600,0.590
60.6000,0.625
60.6400,0.621
60.6800,0.599
60.7200,0.637
60.7600,0.634
60.8000,0.706
60.8400,0.627
60.8800,0.601
60.9200,0.640
60.9600,0.616
61.0000,0.637
61.0400,0.621
61.0800,0.673
61.1200,0.676
61.1600,0.771
61.2000,0.826
61.2400,1.050
61.2800,1.064
61.3200,1.041
61.3600,1.082
61.4000,0.975
61.4400,0.902
61.4800,0.866
61.5200,0.783
61.5600,0.736
61.6000,0.685
61.6400,0.604
61.6800,0.610
61.7200,0.628
61.7600,0.605
61.8000,0.560
61.8400,0.606
61.8800,0.579
61.9200,0.568
61.9600,0.635
62.0000,0.585
62.0400,0.568
62.0800,0.541
62.1200,0.553
62.1600,0.579
62.2000,0.601
62.2400,0.591
62.2800,0.571
62.3200,0.541
62.3600,0.547
62.4000,0.568
62.4400,0.550
62.4800,0.529
62.5200,0.592
62.5600,0.586
62.6000,0.549
62.6400,0.544
62.6800,0.520
62.7200,0.534
62.7600,0.559
62.8000,0.551
62.8400,0.521
62.8800,0.555
62.9200,0.597
62.9600,0.544
63.0000,0.569
63.0400,0.506
63.0800,0.587
63.1200,0.570
63.1600,0.537
63.2000,0.567
63.2400,0.574
63.2800,0.591
63.3200,0.544
63.3600,0.582
63.4000,0.543
63.4400,0.533
63.4800,0.536
63.5200,0.540
63.5600,0.552
63.6000,0.563
63.6400,0.577
63.6800,0.571
63.7200,0.572
63.7600,0.561
63.8000,0.554
63.8400,0.557
63.8800,0.550
63.9200,0.511
63.9600,0.510
64.0000,0.474
64.0400,0.526
64.0800,0.529
64.1200,0.499
64.1600,0.491
64.2000,0.500
64.2400,0.488
64.2800,0.520
64.3200,0.559
64.3600,0.535
64.4000,0.503
64.4400,0.499
64.4800,0.535
64.5200,0.543
64.5600,0.563
64.6000,0.577
64.6400,0.604
64.6800,0.627
64.7200,0.684
64.7600,0.801
64.8000,0.779
64.8400,0.663
64.8800,0.701
64.9200,0.689
64.9600,0.682
65.0000,0.656
65.0400,0.714
65.0800,0.608
65.1200,0.571
65.1600,0.572
65.2000,0.573
65.2400,0.572
65.2800,0.552
65.3200,0.533
65.3600,0.531
65.4000,0.563
65.4400,0.525
65.4800,0.493
65.5200,0.538
65.5600,0.516
65.6000,0.538
65.6400,0.555
65.6800,0.631
65.7200,0.573
65.7600,0.665
65.8000,0.703
65.8400,0.808
65.8800,0.914
65.9200,0.912
65.9600,0.783
66.0000,0.705
66.0400,0.804
66.0800,0.799
66.1200,0.709
66.1600,0.621
66.2000,0.584
66.2400,0.569
66.2800,0.575
66.3200,0.523
66.3600,0.513
66.4000,0.512
66.4400,0.549
66.4800,0.532
66.5200,0.560
66.5600,0.556
66.6000,0.572
66.6400,0.548
66.6800,0.521
66.7200,0.493
66.7600,0.564
66.8000,0.511
66.8400,0.533
66.8800,0.470
66.9200,0.528
66.9600,0.483
67.0000,0.459
67.0400,0.463
67.0800,0.479
67.1200,0.494
67.1600,0.493
67.2000,0.492
67.2400,0.497
67.2800,0.442
67.3200,0.479
67.3600,0.488
67.4000,0.498
67.4400,0.507
67.4800,0.478
67.5200,0.505
67.5600,0.481
67.6000,0.515
67.6400,0.449
67.6800,0.457
67.7200,0.452
67.7600,0.479
67.8000,0.478
67.8400,0.509
67.8800,0.470
67.9200,0.466
67.9600,0.523
68.0000,0.508
68.0400,0.489
68.0800,0.484
68.1200,0.495
68.1600,0.472
68.2000,0.452
68.2400,0.500
68.2800,0.518
68.3200,0.496
68.3600,0.521
68.4000,0.482
68.4400,0.506
68.4800,0.481
68.5200,0.550
68.5600,0.508
68.6000,0.520
68.6400,0.552
68.6800,0.531
68.7200,0.629
68.7600,0.618
68.8000,0.658
68.8400,0.636
68.8800,0.622
68.9200,0.616
68.9600,0.670
69.0000,0.687
69.0400,0.730
69.0800,0.791
69.1200,0.923
69.1600,1.104
69.2000,1.498
69.2400,1.593
69.2800,1.500
69.3200,1.355
69.3600,1.305
69.4000,1.575
69.4400,1.894
69.4800,2.257
69.5200,2.285
69.5600,1.803
69.6000,1.362
69.6400,1.307
69.6800,1.370
69.7200,1.378
69.7600,1.181
69.8000,0.912
69.8400,0.757
69.8800,0.716
69.9200,0.625
69.9600,0.584
70.0000,0.582
70.0400,0.629
70.0800,0.620
70.1200,0.595
70.1600,0.631
70.2000,0.643
70.2400,0.781
70.2800,1.020
70.3200,1.177
70.3600,1.037
70.4000,0.791
70.4400,0.778
70.4800,0.875
70.5200,0.849
70.5600,0.737
70.6000,0.586
70.6400,0.588
70.6800,0.569
70.7200,0.511
70.7600,0.508
70.8000,0.532
70.8400,0.492
70.8800,0.500
70.9200,0.474
70.9600,0.458
71.0000,0.447
71.0400,0.472
71.0800,0.474
71.1200,0.439
71.1600,0.421
71.2000,0.435
71.2400,0.455
71.2800,0.455
71.3200,0.432
71.3600,0.424
71.4000,0.421
71.4400,0.434
71.4800,0.466
71.5200,0.471
71.5600,0.461
71.6000,0.499
71.6400,0.501
71.6800,0.538
71.7200,0.511
71.7600,0.541
71.8000,0.474
71.8400,0.495
71.8800,0.502
71.9200,0.510
71.9600,0.458
72.0000,0.437
72.0400,0.410
72.0800,0.443
72.1200,0.426
72.1600,0.466
72.2000,0.409
72.2400,0.420
72.2800,0.434
72.3200,0.419
72.3600,0.448
72.4000,0.455
72.4400,0.427
72.4800,0.403
72.5200,0.443
72.5600,0.409
72.6000,0.419
72.6400,0.441
72.6800,0.409
72.7200,0.385
72.7600,0.362
72.8000,0.373
72.8400,0.374
72.8800,0.394
72.9200,0.405
72.9600,0.409
73.0000,0.436
73.0400,0.460
73.0800,0.482
73.1200,0.482
73.1600,0.584
73.2000,0.619
73.2400,0.609
73.2800,0.551
73.3200,0.493
73.3600,0.528
73.4000,0.526
73.4400,0.523
73.4800,0.517
73.5200,0.449
73.5600,0.423
73.6000,0.425
73.6400,0.417
73.6800,0.415
73.7200,0.419
73.7600,0.441
73.8000,0.428
73.8400,0.444
73.8800,0.408
73.9200,0.409
73.9600,0.399
74.0000,0.412
74.0400,0.388
74.0800,0.398
74.1200,0.397
74.1600,0.357
74.2000,0.391
74.2400,0.393
74.2800,0.394
74.3200,0.365
74.3600,0.371
74.4000,0.381
74.4400,0.383
74.4800,0.359
74.5200,0.372
74.5600,0.367
74.6000,0.375
74.6400,0.414
74.6800,0.392
74.7200,0.389
74.7600,0.389
74.8000,0.413
74.8400,0.401
74.8800,0.410
74.9200,0.398
74.9600,0.376
75.0000,0.370
75.0400,0.371
75.0800,0.377
75.1200,0.364
75.1600,0.371
75.2000,0.427
75.2400,0.400
75.2800,0.402
75.3200,0.353
75.3600,0.376
75.4000,0.378
75.4400,0.366
75.4800,0.348
75.5200,0.379
75.5600,0.391
75.6000,0.357
75.6400,0.384
75.6800,0.396
75.7200,0.422
75.7600,0.389
75.8000,0.465
75.8400,0.395
75.8800,0.440
75.9200,0.475
75.9600,0.525
76.0000,0.464
76.0400,0.472
76.0800,0.449
76.1200,0.470
76.1600,0.450
76.2000,0.469
76.2400,0.448
76.2800,0.394
76.3200,0.402
76.3600,0.421
76.4000,0.440
76.4400,0.413
76.4800,0.401
76.5200,0.399
76.5600,0.414
76.6000,0.381
76.6400,0.378
76.6800,0.380
76.7200,0.377
76.7600,0.408
76.8000,0.399
76.8400,0.412
76.8800,0.366
76.9200,0.353
76.9600,0.353
77.0000,0.360
77.0400,0.346
77.0800,0.337
77.1200,0.347
77.1600,0.391
77.2000,0.343
77.2400,0.351
77.2800,0.362
77.3200,0.372
77.3600,0.379
77.4000,0.357
77.4400,0.396
77.4800,0.374
77.5200,0.393
77.5600,0.425
77.6000,0.447
77.6400,0.421
77.6800,0.416
77.7200,0.425
77.7600,0.432
77.8000,0.398
77.8400,0.396
77.8800,0.397
77.9200,0.434
77.9600,0.410
78.0000,0.412
78.0400,0.414
78.0800,0.427
78.1200,0.400
78.1600,0.411
78.2000,0.421
78.2400,0.388
78.2800,0.401
78.3200,0.428
78.3600,0.435
78.4000,0.417
78.4400,0.408
78.4800,0.433
78.5200,0.418
78.5600,0.396
78.6000,0.434
78.6400,0.500
78.6800,0.530
78.7200,0.562
78.7600,0.726
78.8000,0.953
78.8400,1.066
78.8800,0.846
78.9200,0.655
78.9600,0.593
79.0000,0.600
79.0400,0.721
79.0800,0.720
79.1200,0.612
79.1600,0.498
79.2000,0.487
79.2400,0.466
79.2800,0.409
79.3200,0.402
79.3600,0.406
79.4000,0.414
79.4400,0.375
79.4800,0.383
79.5200,0.349
79.5600,0.372
79.6000,0.354
79.6400,0.363
79.6800,0.348
79.7200,0.393
79.7600,0.367
79.8000,0.387
79.8400,0.369
79.8800,0.371
79.9200,0.396
79.9600,0.365
80.0000,0.355
