theta,intensity
5.0000,5.604
5.0400,5.619
5.0800,5.450
5.1200,5.554
5.1600,5.495
5.2000,5.529
5.2400,5.475
5.2800,5.416
5.3200,5.270
5.3600,5.267
5.4000,5.261
5.4400,5.244
5.4800,5.176
5.5200,5.151
5.5600,5.140
5.6000,4.968
5.6400,4.925
5.6800,5.054
5.7200,4.753
5.7600,4.922
5.8000,4.785
5.8400,4.607
5.8800,4.667
5.9200,4.576
5.9600,4.623
6.0000,4.469
6.0400,4.441
6.0800,4.439
6.1200,4.452
6.1600,4.376
6.2000,4.314
6.2400,4.242
6.2800,4.284
6.3200,4.179
6.3600,4.170
6.4000,4.018
6.4400,3.967
6.4800,3.930
6.5200,4.085
6.5600,3.983
6.6000,3.955
6.6400,4.014
6.6800,3.964
6.7200,4.057
6.7600,4.013
6.8000,4.009
6.8400,3.922
6.8800,4.018
6.9200,4.050
6.9600,3.834
7.0000,3.863
7.0400,3.883
7.0800,3.959
7.1200,3.782
7.1600,4.053
7.2000,3.894
7.2400,3.905
7.2800,3.669
7.3200,3.913
7.3600,3.817
7.4000,3.876
7.4400,3.915
7.4800,3.788
7.5200,3.774
7.5600,3.738
7.6000,3.831
7.6400,3.903
7.6800,3.832
7.7200,3.880
7.7600,3.823
7.8000,3.831
7.8400,3.819
7.8800,3.706
7.9200,3.911
7.9600,3.823
8.0000,3.731
8.0400,3.810
8.0800,3.772
8.1200,3.774
8.1600,3.767
8.2000,3.644
8.2400,3.704
8.2800,3.672
8.3200,3.560
8.3600,3.683
8.4000,3.758
8.4400,3.760
8.4800,3.687
8.5200,3.744
8.5600,3.845
8.6000,3.707
8.6400,3.680
8.6800,3.687
8.7200,3.751
8.7600,3.783
8.8000,3.690
8.8400,3.753
8.8800,3.571
8.9200,3.731
8.9600,3.675
9.0000,3.583
9.0400,3.701
9.0800,3.690
9.1200,3.660
9.1600,3.489
9.2000,3.623
9.2400,3.555
9.2800,3.687
9.3200,3.678
9.3600,3.596
9.4000,3.591
9.4400,3.580
9.4800,3.565
9.5200,3.649
9.5600,3.591
9.6000,3.598
9.6400,3.538
9.6800,3.621
9.7200,3.549
9.7600,3.698
9.8000,3.602
9.8400,3.471
9.8800,3.522
9.9200,3.573
9.9600,3.445
10.0000,3.562
10.0400,3.597
10.0800,3.527
10.1200,3.554
10.1600,3.565
10.2000,3.643
10.2400,3.560
10.2800,3.532
10.3200,3.633
10.3600,3.469
10.4000,3.479
10.4400,3.503
10.4800,3.453
10.5200,3.561
10.5600,3.469
10.6000,3.429
10.6400,3.444
10.6800,3.357
10.7200,3.429
10.7600,3.534
10.8000,3.479
10.8400,3.536
10.8800,3.456
10.9200,3.438
10.9600,3.379
11.0000,3.384
11.0400,3.464
11.0800,3.493
11.1200,3.371
11.1600,3.469
11.2000,3.352
11.2400,3.356
11.2800,3.468
11.3200,3.448
11.3600,3.398
11.4000,3.329
11.4400,3.303
11.4800,3.283
11.5200,3.297
11.5600,3.380
11.6000,3.422
11.6400,3.331
11.6800,3.300
11.7200,3.339
11.7600,3.367
11.8000,3.461
11.8400,3.362
11.8800,3.397
11.9200,3.348
11.9600,3.210
12.0000,3.343
12.0400,3.307
12.0800,3.263
12.1200,3.405
12.1600,3.248
12.2000,3.315
12.2400,3.293
12.2800,3.247
12.3200,3.288
12.3600,3.298
12.4000,3.404
12.4400,3.321
12.4800,3.182
12.5200,3.290
12.5600,3.331
12.6000,3.299
12.6400,3.256
12.6800,3.339
12.7200,3.292
12.7600,3.232
12.8000,3.356
12.8400,3.247
12.8800,3.200
12.9200,3.354
12.9600,3.254
13.0000,3.214
13.0400,3.284
13.0800,3.296
13.1200,3.202
13.1600,3.310
13.2000,3.197
13.2400,3.215
13.2800,3.196
13.3200,3.175
13.3600,3.213
13.4000,3.234
13.4400,3.334
13.4800,3.258
13.5200,3.269
13.5600,3.129
13.6000,3.178
13.6400,3.198
13.6800,3.146
13.7200,3.216
13.7600,3.098
13.8000,3.188
13.8400,3.138
13.8800,3.162
13.9200,3.103
13.9600,3.145
14.0000,3.159
14.0400,3.185
14.0800,3.145
14.1200,3.106
14.1600,3.197
14.2000,3.170
14.2400,3.155
14.2800,3.138
14.3200,3.143
14.3600,3.045
14.4000,3.118
14.4400,3.172
14.4800,3.170
14.5200,3.169
14.5600,3.015
14.6000,3.059
14.6400,3.129
14.6800,3.107
14.7200,3.126
14.7600,3.195
14.8000,3.091
14.8400,3.043
14.8800,3.199
14.9200,3.072
14.9600,3.054
15.0000,3.042
15.0400,3.088
15.0800,3.052
15.1200,3.137
15.1600,3.072
15.2000,2.992
15.2400,3.046
15.2800,3.021
15.3200,2.960
15.3600,2.967
15.4000,3.002
15.4400,2.914
15.4800,3.111
15.5200,2.983
15.5600,3.086
15.6000,3.021
15.6400,3.038
15.6800,3.025
15.7200,3.033
15.7600,3.060
15.8000,3.061
15.8400,2.926
15.8800,2.938
15.9200,3.014
15.9600,2.886
16.0000,2.958
16.0400,3.003
16.0800,3.035
16.1200,2.928
16.1600,2.963
16.2000,2.984
16.2400,2.933
16.2800,2.995
16.3200,3.050
16.3600,2.991
16.4000,2.970
16.4400,2.926
16.4800,2.923
16.5200,2.941
16.5600,3.010
16.6000,2.975
16.6400,2.956
16.6800,2.874
16.7200,2.852
16.7600,3.014
16.8000,2.867
16.8400,2.907
16.8800,2.961
16.9200,2.970
16.9600,2.898
17.0000,3.006
17.0400,2.890
17.0800,2.887
17.1200,2.948
17.1600,2.936
17.2000,2.856
17.2400,2.793
17.2800,2.841
17.3200,2.878
17.3600,2.793
17.4000,2.862
17.4400,2.812
17.4800,2.876
17.5200,2.813
17.5600,2.826
17.6000,2.862
17.6400,2.891
17.6800,2.905
17.7200,2.812
17.7600,2.780
17.8000,2.839
17.8400,2.877
17.8800,2.829
17.9200,2.836
17.9600,2.799
18.0000,2.821
18.0400,2.846
18.0800,2.807
18.1200,2.828
18.1600,2.786
18.2000,2.867
18.2400,2.839
18.2800,2.836
18.3200,2.828
18.3600,2.747
18.4000,2.823
18.4400,2.865
18.4800,2.661
18.5200,2.743
18.5600,2.772
18.6000,2.699
18.6400,2.760
18.6800,2.799
18.7200,2.675
18.7600,2.684
18.8000,2.792
18.8400,2.691
18.8800,2.718
18.9200,2.673
18.9600,2.616
19.0000,2.675
19.0400,2.615
19.0800,2.728
19.1200,2.702
19.1600,2.740
19.2000,2.705
19.2400,2.701
19.2800,2.777
19.3200,2.617
19.3600,2.686
19.4000,2.670
19.4400,2.665
19.4800,2.753
19.5200,2.665
19.5600,2.735
19.6000,2.640
19.6400,2.717
19.6800,2.673
19.7200,2.739
19.7600,2.686
19.8000,2.654
19.8400,2.721
19.8800,2.631
19.9200,2.663
19.9600,2.594
20.0000,2.683
20.0400,2.608
20.0800,2.603
20.1200,2.654
20.1600,2.687
20.2000,2.620
20.2400,2.671
20.2800,2.601
20.3200,2.569
20.3600,2.559
20.4000,2.547
20.4400,2.659
20.4800,2.627
20.5200,2.636
20.5600,2.635
20.6000,2.634
20.6400,2.553
20.6800,2.580
20.7200,2.594
20.7600,2.659
20.8000,2.626
20.8400,2.578
20.8800,2.569
20.9200,2.601
20.9600,2.534
21.0000,2.554
21.0400,2.525
21.0800,2.528
21.1200,2.467
21.1600,2.539
21.2000,2.576
21.2400,2.548
21.2800,2.523
21.3200,2.486
21.3600,2.561
21.4000,2.577
21.4400,2.516
21.4800,2.527
21.5200,2.543
21.5600,2.559
21.6000,2.480
21.6400,2.547
21.6800,2.476
21.7200,2.584
21.7600,2.489
21.8000,2.481
21.8400,2.490
21.8800,2.531
21.9200,2.372
21.9600,2.446
22.0000,2.428
22.0400,2.356
22.0800,2.458
22.1200,2.494
22.1600,2.506
22.2000,2.415
22.2400,2.399
22.2800,2.348
22.3200,2.454
22.3600,2.528
22.4000,2.512
22.4400,2.478
22.4800,2.565
22.5200,2.444
22.5600,2.397
22.6000,2.383
22.6400,2.458
22.6800,2.439
22.7200,2.401
22.7600,2.499
22.8000,2.401
22.8400,2.430
22.8800,2.485
22.9200,2.416
22.9600,2.481
23.0000,2.459
23.0400,2.397
23.0800,2.347
23.1200,2.437
23.1600,2.439
23.2000,2.427
23.2400,2.458
23.2800,2.289
23.3200,2.316
23.3600,2.483
23.4000,2.390
23.4400,2.375
23.4800,2.325
23.5200,2.364
23.5600,2.403
23.6000,2.360
23.6400,2.397
23.6800,2.450
23.7200,2.351
23.7600,2.365
23.8000,2.351
23.8400,2.335
23.8800,2.436
23.9200,2.321
23.9600,2.298
24.0000,2.305
24.0400,2.305
24.0800,2.345
24.1200,2.371
24.1600,2.259
24.2000,2.382
24.2400,2.227
24.2800,2.328
24.3200,2.335
24.3600,2.342
24.4000,2.298
24.4400,2.312
24.4800,2.381
24.5200,2.175
24.5600,2.216
24.6000,2.398
24.6400,2.243
24.6800,2.302
24.7200,2.223
24.7600,2.349
24.8000,2.300
24.8400,2.269
24.8800,2.312
24.9200,2.273
24.9600,2.185
25.0000,2.270
25.0400,2.252
25.0800,2.311
25.1200,2.194
25.1600,2.359
25.2000,2.204
25.2400,2.215
25.2800,2.259
25.3200,2.226
25.3600,2.237
25.4000,2.222
25.4400,2.201
25.4800,2.182
25.5200,2.231
25.5600,2.176
25.6000,2.259
25.6400,2.288
25.6800,2.216
25.7200,2.277
25.7600,2.181
25.8000,2.158
25.8400,2.195
25.8800,2.230
25.9200,2.155
25.9600,2.169
26.0000,2.198
26.0400,2.054
26.0800,2.153
26.1200,2.124
26.1600,2.164
26.2000,2.208
26.2400,2.183
26.2800,2.170
26.3200,2.150
26.3600,2.032
26.4000,2.106
26.4400,2.128
26.4800,2.039
26.5200,2.039
26.5600,2.061
26.6000,2.011
26.6400,2.103
26.6800,2.070
26.7200,2.064
26.7600,2.117
26.8000,2.089
26.8400,2.133
26.8800,2.112
26.9200,2.034
26.9600,2.118
27.0000,2.075
27.0400,2.096
27.0800,2.183
27.1200,2.004
27.1600,2.029
27.2000,1.944
27.2400,2.093
27.2800,2.044
27.3200,2.145
27.3600,2.081
27.4000,2.086
27.4400,2.081
27.4800,1.996
27.5200,2.012
27.5600,2.098
27.6000,2.044
27.6400,2.117
27.6800,2.112
27.7200,2.066
27.7600,2.055
27.8000,2.043
27.8400,2.051
27.8800,2.058
27.9200,2.042
27.9600,2.077
28.0000,2.028
28.0400,2.068
28.0800,2.107
28.1200,2.003
28.1600,2.145
28.2000,2.089
28.2400,2.028
28.2800,2.104
28.3200,2.054
28.3600,2.148
28.4000,2.169
28.4400,2.186
28.4800,2.122
28.5200,2.049
28.5600,2.156
28.6000,2.125
28.6400,2.146
28.6800,2.079
28.7200,2.049
28.7600,2.097
28.8000,2.143
28.8400,2.072
28.8800,1.968
28.9200,1.964
28.9600,2.023
29.0000,2.024
29.0400,2.105
29.0800,2.015
29.1200,2.054
29.1600,2.010
29.2000,1.993
29.2400,1.970
29.2800,1.963
29.3200,1.889
29.3600,2.000
29.4000,1.906
29.4400,1.918
29.4800,1.943
29.5200,1.943
29.5600,1.977
29.6000,1.829
29.6400,1.881
29.6800,1.863
29.7200,1.917
29.7600,1.852
29.8000,1.852
29.8400,1.886
29.8800,1.858
29.9200,1.922
29.9600,1.875
30.0000,1.865
30.0400,1.844
30.0800,1.813
30.1200,1.862
30.1600,1.784
30.2000,1.816
30.2400,1.814
30.2800,1.923
30.3200,1.828
30.3600,1.821
30.4000,1.858
30.4400,1.783
30.4800,1.775
30.5200,1.809
30.5600,1.773
30.6000,1.838
30.6400,1.758
30.6800,1.782
30.7200,1.806
30.7600,1.700
30.8000,1.777
30.8400,1.737
30.8800,1.822
30.9200,1.789
30.9600,1.783
31.0000,1.787
31.0400,1.720
31.0800,1.712
31.1200,1.736
31.1600,1.785
31.2000,1.718
31.2400,1.633
31.2800,1.807
31.3200,1.736
31.3600,1.692
31.4000,1.617
31.4400,1.735
31.4800,1.627
31.5200,1.685
31.5600,1.657
31.6000,1.635
31.6400,1.613
31.6800,1.659
31.7200,1.672
31.7600,1.650
31.8000,1.638
31.8400,1.620
31.8800,1.633
31.9200,1.608
31.9600,1.624
32.0000,1.672
32.0400,1.659
32.0800,1.652
32.1200,1.610
32.1600,1.717
32.2000,1.685
32.2400,1.630
32.2800,1.595
32.3200,1.620
32.3600,1.658
32.4000,1.675
32.4400,1.641
32.4800,1.679
32.5200,1.623
32.5600,1.598
32.6000,1.643
32.6400,1.647
32.6800,1.605
32.7200,1.570
32.7600,1.705
32.8000,1.609
32.8400,1.620
32.8800,1.578
32.9200,1.584
32.9600,1.528
33.0000,1.636
33.0400,1.614
33.0800,1.553
33.1200,1.606
33.1600,1.554
33.2000,1.645
33.2400,1.535
33.2800,1.570
33.3200,1.637
33.3600,1.614
33.4000,1.531
33.4400,1.593
33.4800,1.560
33.5200,1.618
33.5600,1.514
33.6000,1.533
33.6400,1.507
33.6800,1.475
33.7200,1.497
33.7600,1.581
33.8000,1.565
33.8400,1.532
33.8800,1.581
33.9200,1.543
33.9600,1.571
34.0000,1.598
34.0400,1.500
34.0800,1.532
34.1200,1.474
34.1600,1.499
34.2000,1.452
34.2400,1.548
34.2800,1.521
34.3200,1.493
34.3600,1.532
34.4000,1.470
34.4400,1.467
34.4800,1.500
34.5200,1.469
34.5600,1.480
34.6000,1.493
34.6400,1.478
34.6800,1.475
34.7200,1.496
34.7600,1.491
34.8000,1.416
34.8400,1.490
34.8800,1.521
34.9200,1.473
34.9600,1.449
35.0000,1.445
35.0400,1.484
35.0800,1.428
35.1200,1.508
35.1600,1.404
35.2000,1.459
35.2400,1.434
35.2800,1.396
35.3200,1.492
35.3600,1.434
35.4000,1.486
35.4400,1.458
35.4800,1.453
35.5200,1.543
35.5600,1.439
35.6000,1.495
35.6400,1.447
35.6800,1.454
35.7200,1.420
35.7600,1.380
35.8000,1.481
35.8400,1.472
35.8800,1.497
35.9200,1.362
35.9600,1.465
36.0000,1.376
36.0400,1.386
36.0800,1.416
36.1200,1.392
36.1600,1.424
36.2000,1.514
36.2400,1.371
36.2800,1.469
36.3200,1.462
36.3600,1.444
36.4000,1.403
36.4400,1.393
36.4800,1.404
36.5200,1.406
36.5600,1.424
36.6000,1.383
36.6400,1.494
36.6800,1.485
36.7200,1.449
36.7600,1.439
36.8000,1.402
36.8400,1.411
36.8800,1.456
36.9200,1.424
36.9600,1.422
37.0000,1.447
37.0400,1.450
37.0800,1.391
37.1200,1.431
37.1600,1.375
37.2000,1.489
37.2400,1.440
37.2800,1.431
37.3200,1.492
37.3600,1.498
37.4000,1.456
37.4400,1.467
37.4800,1.497
37.5200,1.565
37.5600,1.543
37.6000,1.473
37.6400,1.484
37.6800,1.521
37.7200,1.601
37.7600,1.638
37.8000,1.553
37.8400,1.580
37.8800,1.680
37.9200,1.737
37.9600,1.823
38.0000,1.941
38.0400,1.988
38.0800,2.050
38.1200,2.197
38.1600,2.466
38.2000,2.706
38.2400,3.193
38.2800,3.414
38.3200,3.880
38.3600,4.445
38.4000,5.029
38.4400,5.669
38.4800,6.692
38.5200,7.701
38.5600,8.889
38.6000,10.205
38.6400,11.393
38.6800,12.664
38.7200,13.715
38.7600,14.171
38.8000,14.342
38.8400,13.876
38.8800,13.026
38.9200,12.142
38.9600,11.086
39.0000,9.919
39.0400,8.725
39.0800,8.074
39.1200,7.543
39.1600,6.522
39.2000,5.920
39.2400,5.504
39.2800,4.923
39.3200,4.596
39.3600,4.165
39.4000,3.864
39.4400,3.661
39.4800,3.368
39.5200,3.185
39.5600,3.111
39.6000,2.900
39.6400,2.811
39.6800,2.860
39.7200,2.691
39.7600,2.568
39.8000,2.432
39.8400,2.419
39.8800,2.235
39.9200,2.179
39.9600,2.213
40.0000,2.058
40.0400,1.906
40.0800,1.891
40.1200,1.867
40.1600,1.757
40.2000,1.693
40.2400,1.703
40.2800,1.553
40.3200,1.546
40.3600,1.488
40.4000,1.430
40.4400,1.468
40.4800,1.479
40.5200,1.434
40.5600,1.374
40.6000,1.391
40.6400,1.318
40.6800,1.292
40.7200,1.409
40.7600,1.327
40.8000,1.290
40.8400,1.303
40.8800,1.306
40.9200,1.265
40.9600,1.328
41.0000,1.325
41.0400,1.299
41.0800,1.204
41.1200,1.270
41.1600,1.253
41.2000,1.185
41.2400,1.269
41.2800,1.231
41.3200,1.293
41.3600,1.253
41.4000,1.248
41.4400,1.192
41.4800,1.214
41.5200,1.213
41.5600,1.182
41.6000,1.157
41.6400,1.179
41.6800,1.175
41.7200,1.139
41.7600,1.171
41.8000,1.198
41.8400,1.193
41.8800,1.116
41.9200,1.201
41.9600,1.164
42.0000,1.212
42.0400,1.199
42.0800,1.155
42.1200,1.153
42.1600,1.214
42.2000,1.202
42.2400,1.153
42.2800,1.177
42.3200,1.167
42.3600,1.193
42.4000,1.171
42.4400,1.140
42.4800,1.163
42.5200,1.143
42.5600,1.148
42.6000,1.169
42.6400,1.123
42.6800,1.123
42.7200,1.199
42.7600,1.150
42.8000,1.179
42.8400,1.135
42.8800,1.126
42.9200,1.129
42.9600,1.147
43.0000,1.145
43.0400,1.164
43.0800,1.089
43.1200,1.127
43.1600,1.138
43.2000,1.149
43.2400,1.108
43.2800,1.157
43.3200,1.177
43.3600,1.205
43.4000,1.173
43.4400,1.134
43.4800,1.180
43.5200,1.231
43.5600,1.124
43.6000,1.193
43.6400,1.148
43.6800,1.181
43.7200,1.223
43.7600,1.209
43.8000,1.171
43.8400,1.217
43.8800,1.201
43.9200,1.252
43.9600,1.256
44.0000,1.261
44.0400,1.286
44.0800,1.310
44.1200,1.348
44.1600,1.321
44.2000,1.424
44.2400,1.430
44.2800,1.435
44.3200,1.584
44.3600,1.649
44.4000,1.814
44.4400,1.857
44.4800,1.995
44.5200,2.045
44.5600,2.219
44.6000,2.446
44.6400,2.641
44.6800,2.900
44.7200,3.060
44.7600,3.266
44.8000,3.602
44.8400,3.983
44.8800,4.296
44.9200,4.628
44.9600,4.808
45.0000,5.082
45.0400,5.203
45.0800,5.280
45.1200,5.185
45.1600,5.138
45.2000,4.912
45.2400,4.761
45.2800,4.396
45.3200,4.215
45.3600,3.931
45.4000,3.684
45.4400,3.394
45.4800,3.126
45.5200,2.883
45.5600,2.838
45.6000,2.595
45.6400,2.319
45.6800,2.226
45.7200,2.158
45.7600,2.028
45.8000,1.970
45.8400,1.936
45.8800,1.764
45.9200,1.766
45.9600,1.679
46.0000,1.562
46.0400,1.607
46.0800,1.575
46.1200,1.467
46.1600,1.453
46.2000,1.431
46.2400,1.353
46.2800,1.388
46.3200,1.322
46.3600,1.306
46.4000,1.213
46.4400,1.183
46.4800,1.105
46.5200,1.140
46.5600,1.127
46.6000,1.087
46.6400,1.090
46.6800,1.122
46.7200,1.142
46.7600,1.013
46.8000,1.043
46.8400,0.961
46.8800,0.996
46.9200,1.023
46.9600,0.988
47.0000,1.028
47.0400,0.969
47.0800,0.967
47.1200,0.956
47.1600,0.969
47.2000,0.938
47.2400,0.884
47.2800,0.871
47.3200,0.868
47.3600,0.924
47.4000,0.841
47.4400,0.884
47.4800,0.868
47.5200,0.894
47.5600,0.834
47.6000,0.882
47.6400,0.860
47.6800,0.886
47.7200,0.927
47.7600,0.924
47.8000,0.877
47.8400,0.875
47.8800,0.869
47.9200,0.868
47.9600,0.874
48.0000,0.855
48.0400,0.830
48.0800,0.886
48.1200,0.840
48.1600,0.883
48.2000,0.849
48.2400,0.845
48.2800,0.829
48.3200,0.834
48.3600,0.854
48.4000,0.867
48.4400,0.887
48.4800,0.844
48.5200,0.804
48.5600,0.801
48.6000,0.822
48.6400,0.824
48.6800,0.846
48.7200,0.818
48.7600,0.813
48.8000,0.834
48.8400,0.760
48.8800,0.806
48.9200,0.829
48.9600,0.814
49.0000,0.814
49.0400,0.834
49.0800,0.796
49.1200,0.794
49.1600,0.837
49.2000,0.806
49.2400,0.834
49.2800,0.808
49.3200,0.850
49.3600,0.879
49.4000,0.779
49.4400,0.821
49.4800,0.821
49.5200,0.782
49.5600,0.835
49.6000,0.765
49.6400,0.798
49.6800,0.777
49.7200,0.813
49.7600,0.796
49.8000,0.735
49.8400,0.766
49.8800,0.737
49.9200,0.768
49.9600,0.736
50.0000,0.750
50.0400,0.765
50.0800,0.760
50.1200,0.737
50.1600,0.753
50.2000,0.745
50.2400,0.766
50.2800,0.739
50.3200,0.795
50.3600,0.747
50.4000,0.775
50.4400,0.739
50.4800,0.747
50.5200,0.751
50.5600,0.708
50.6000,0.754
50.6400,0.761
50.6800,0.736
50.7200,0.767
50.7600,0.770
50.8000,0.776
50.8400,0.759
50.8800,0.757
50.9200,0.756
50.9600,0.742
51.0000,0.767
51.0400,0.724
51.0800,0.687
51.1200,0.764
51.1600,0.726
51.2000,0.721
51.2400,0.774
51.2800,0.712
51.3200,0.745
51.3600,0.751
51.4000,0.714
51.4400,0.752
51.4800,0.717
51.5200,0.707
51.5600,0.718
51.6000,0.728
51.6400,0.710
51.6800,0.709
51.7200,0.733
51.7600,0.690
51.8000,0.741
51.8400,0.727
51.8800,0.695
51.9200,0.715
51.9600,0.672
52.0000,0.724
52.0400,0.720
52.0800,0.737
52.1200,0.742
52.1600,0.698
52.2000,0.718
52.2400,0.716
52.2800,0.737
52.3200,0.734
52.3600,0.724
52.4000,0.719
52.4400,0.750
52.4800,0.708
52.5200,0.678
52.5600,0.700
52.6000,0.687
52.6400,0.703
52.6800,0.697
52.7200,0.670
52.7600,0.714
52.8000,0.677
52.8400,0.702
52.8800,0.661
52.9200,0.673
52.9600,0.695
53.0000,0.699
53.0400,0.689
53.0800,0.705
53.1200,0.732
53.1600,0.664
53.2000,0.703
53.2400,0.632
53.2800,0.706
53.3200,0.665
53.3600,0.725
53.4000,0.654
53.4400,0.694
53.4800,0.719
53.5200,0.694
53.5600,0.639
53.6000,0.673
53.6400,0.675
53.6800,0.703
53.7200,0.699
53.7600,0.633
53.8000,0.653
53.8400,0.676
53.8800,0.658
53.9200,0.687
53.9600,0.678
54.0000,0.728
54.0400,0.640
54.0800,0.665
54.1200,0.660
54.1600,0.638
54.2000,0.655
54.2400,0.635
54.2800,0.652
54.3200,0.659
54.3600,0.634
54.4000,0.623
54.4400,0.689
54.4800,0.619
54.5200,0.662
54.5600,0.677
54.6000,0.693
54.6400,0.675
54.6800,0.651
54.7200,0.634
54.7600,0.607
54.8000,0.665
54.8400,0.628
54.8800,0.618
54.9200,0.642
54.9600,0.621
55.0000,0.648
55.0400,0.614
55.0800,0.664
55.1200,0.674
55.1600,0.617
55.2000,0.612
55.2400,0.611
55.2800,0.645
55.3200,0.633
55.3600,0.590
55.4000,0.590
55.4400,0.597
55.4800,0.626
55.5200,0.627
55.5600,0.655
55.6000,0.610
55.6400,0.587
55.6800,0.617
55.7200,0.595
55.7600,0.649
55.8000,0.586
55.8400,0.588
55.8800,0.591
55.9200,0.597
55.9600,0.597
56.0000,0.589
56.0400,0.579
56.0800,0.590
56.1200,0.586
56.1600,0.570
56.2000,0.600
56.2400,0.640
56.2800,0.626
56.3200,0.595
56.3600,0.613
56.4000,0.605
56.4400,0.624
56.4800,0.603
56.5200,0.645
56.5600,0.564
56.6000,0.544
56.6400,0.583
56.6800,0.615
56.7200,0.581
56.7600,0.622
56.8000,0.601
56.8400,0.605
56.8800,0.576
56.9200,0.572
56.9600,0.598
57.0000,0.593
57.0400,0.563
57.0800,0.559
57.1200,0.570
57.1600,0.571
57.2000,0.586
57.2400,0.568
57.2800,0.584
57.3200,0.574
57.3600,0.595
57.4000,0.583
57.4400,0.603
57.4800,0.557
57.5200,0.592
57.5600,0.575
57.6000,0.558
57.6400,0.545
57.6800,0.601
57.7200,0.552
57.7600,0.558
57.8000,0.580
57.8400,0.546
57.8800,0.600
57.9200,0.537
57.9600,0.581
58.0000,0.539
58.0400,0.557
58.0800,0.584
58.1200,0.573
58.1600,0.558
58.2000,0.588
58.2400,0.547
58.2800,0.578
58.3200,0.560
58.3600,0.616
58.4000,0.568
58.4400,0.587
58.4800,0.541
58.5200,0.565
58.5600,0.572
58.6000,0.627
58.6400,0.563
58.6800,0.571
58.7200,0.531
58.7600,0.575
58.8000,0.608
58.8400,0.608
58.8800,0.585
58.9200,0.571
58.9600,0.509
59.0000,0.559
59.0400,0.508
59.0800,0.567
59.1200,0.547
59.1600,0.562
59.2000,0.524
59.2400,0.526
59.2800,0.551
59.3200,0.541
59.3600,0.517
59.4000,0.535
59.4400,0.533
59.4800,0.533
59.5200,0.532
59.5600,0.553
59.6000,0.579
59.6400,0.509
59.6800,0.524
59.7200,0.543
59.7600,0.583
59.8000,0.534
59.8400,0.530
59.8800,0.522
59.9200,0.568
59.9600,0.543
60.0000,0.536
60.0400,0.526
60.0800,0.506
60.1200,0.513
60.1600,0.493
60.2000,0.539
60.2400,0.537
60.2800,0.550
60.3200,0.544
60.3600,0.511
60.4000,0.522
60.4400,0.528
60.4800,0.507
60.5200,0.491
60.5600,0.506
60.6000,0.527
60.6400,0.546
60.6800,0.509
60.7200,0.493
60.7600,0.519
60.8000,0.527
60.8400,0.521
60.8800,0.526
60.9200,0.528
60.9600,0.508
61.0000,0.494
61.0400,0.504
61.0800,0.493
61.1200,0.475
61.1600,0.487
61.2000,0.536
61.2400,0.527
61.2800,0.482
61.3200,0.494
61.3600,0.519
61.4000,0.474
61.4400,0.507
61.4800,0.511
61.5200,0.500
61.5600,0.524
61.6000,0.471
61.6400,0.499
61.6800,0.488
61.7200,0.478
61.7600,0.465
61.8000,0.492
61.8400,0.510
61.8800,0.469
61.9200,0.519
61.9600,0.492
62.0000,0.485
62.0400,0.454
62.0800,0.465
62.1200,0.505
62.1600,0.538
62.2000,0.497
62.2400,0.486
62.2800,0.492
62.3200,0.476
62.3600,0.487
62.4000,0.464
62.4400,0.497
62.4800,0.523
62.5200,0.491
62.5600,0.510
62.6000,0.519
62.6400,0.463
62.6800,0.471
62.7200,0.498
62.7600,0.451
62.8000,0.508
62.8400,0.507
62.8800,0.528
62.9200,0.485
62.9600,0.479
63.0000,0.496
63.0400,0.464
63.0800,0.534
63.1200,0.479
63.1600,0.517
63.2000,0.534
63.2400,0.474
63.2800,0.466
63.3200,0.538
63.3600,0.445
63.4000,0.478
63.4400,0.486
63.4800,0.486
63.5200,0.461
63.5600,0.493
63.6000,0.462
63.6400,0.433
63.6800,0.471
63.7200,0.465
63.7600,0.477
63.8000,0.508
63.8400,0.473
63.8800,0.530
63.9200,0.482
63.9600,0.478
64.0000,0.490
64.0400,0.493
64.0800,0.480
64.1200,0.522
64.1600,0.506
64.2000,0.493
64.2400,0.523
64.2800,0.536
64.3200,0.545
64.3600,0.506
64.4000,0.533
64.4400,0.539
64.4800,0.520
64.5200,0.541
64.5600,0.619
64.6000,0.618
64.6400,0.646
64.6800,0.690
64.7200,0.607
64.7600,0.635
64.8000,0.698
64.8400,0.734
64.8800,0.754
64.9200,0.812
64.9600,0.838
65.0000,0.875
65.0400,0.944
65.0800,0.977
65.1200,1.012
65.1600,1.112
65.2000,1.198
65.2400,1.274
65.2800,1.311
65.3200,1.339
65.3600,1.500
65.4000,1.616
65.4400,1.747
65.4800,1.823
65.5200,1.911
65.5600,1.818
65.6000,1.955
65.6400,2.032
65.6800,2.018
65.7200,1.964
65.7600,1.903
65.8000,1.882
65.8400,1.959
65.8800,1.892
65.9200,1.724
65.9600,1.700
66.0000,1.589
66.0400,1.550
66.0800,1.492
66.1200,1.439
66.1600,1.367
66.2000,1.255
66.2400,1.199
66.2800,1.165
66.3200,1.048
66.3600,1.072
66.4000,1.010
66.4400,0.946
66.4800,0.931
66.5200,0.918
66.5600,0.865
66.6000,0.829
66.6400,0.810
66.6800,0.783
66.7200,0.812
66.7600,0.775
66.8000,0.759
66.8400,0.702
66.8800,0.647
66.9200,0.630
66.9600,0.633
67.0000,0.618
67.0400,0.629
67.0800,0.607
67.1200,0.591
67.1600,0.595
67.2000,0.589
67.2400,0.569
67.2800,0.575
67.3200,0.551
67.3600,0.570
67.4000,0.544
67.4400,0.521
67.4800,0.545
67.5200,0.522
67.5600,0.507
67.6000,0.545
67.6400,0.517
67.6800,0.525
67.7200,0.474
67.7600,0.507
67.8000,0.503
67.8400,0.518
67.8800,0.499
67.9200,0.517
67.9600,0.512
68.0000,0.467
68.0400,0.466
68.0800,0.462
68.1200,0.471
68.1600,0.439
68.2000,0.419
68.2400,0.437
68.2800,0.449
68.3200,0.433
68.3600,0.429
68.4000,0.399
68.4400,0.395
68.4800,0.407
68.5200,0.409
68.5600,0.451
68.6000,0.420
68.6400,0.415
68.6800,0.440
68.7200,0.408
68.7600,0.410
68.8000,0.395
68.8400,0.430
68.8800,0.387
68.9200,0.366
68.9600,0.351
69.0000,0.369
69.0400,0.389
69.0800,0.388
69.1200,0.375
69.1600,0.353
69.2000,0.386
69.2400,0.363
69.2800,0.382
69.3200,0.376
69.3600,0.382
69.4000,0.394
69.4400,0.363
69.4800,0.353
69.5200,0.378
69.5600,0.378
69.6000,0.368
69.6400,0.384
69.6800,0.345
69.7200,0.376
69.7600,0.366
69.8000,0.345
69.8400,0.349
69.8800,0.326
69.9200,0.405
69.9600,0.407
70.0000,0.352
70.0400,0.366
70.0800,0.378
70.1200,0.396
70.1600,0.369
70.2000,0.396
70.2400,0.362
70.2800,0.345
70.3200,0.365
70.3600,0.364
70.4000,0.341
70.4400,0.378
70.4800,0.359
70.5200,0.344
70.5600,0.315
70.6000,0.345
70.6400,0.340
70.6800,0.345
70.7200,0.358
70.7600,0.338
70.8000,0.380
70.8400,0.330
70.8800,0.388
70.9200,0.355
70.9600,0.342
71.0000,0.376
71.0400,0.349
71.0800,0.359
71.1200,0.343
71.1600,0.353
71.2000,0.338
71.2400,0.333
71.2800,0.322
71.3200,0.344
71.3600,0.327
71.4000,0.354
71.4400,0.344
71.4800,0.348
71.5200,0.348
71.5600,0.342
71.6000,0.345
71.6400,0.333
71.6800,0.313
71.7200,0.343
71.7600,0.342
71.8000,0.341
71.8400,0.333
71.8800,0.349
71.9200,0.305
71.9600,0.344
72.0000,0.332
72.0400,0.320
72.0800,0.348
72.1200,0.316
72.1600,0.317
72.2000,0.335
72.2400,0.343
72.2800,0.350
72.3200,0.301
72.3600,0.358
72.4000,0.359
72.4400,0.341
72.4800,0.373
72.5200,0.347
72.5600,0.341
72.6000,0.351
72.6400,0.314
72.6800,0.321
72.7200,0.320
72.7600,0.318
72.8000,0.341
72.8400,0.346
72.8800,0.355
72.9200,0.323
72.9600,0.343
73.0000,0.317
73.0400,0.331
73.0800,0.339
73.1200,0.314
73.1600,0.355
73.2000,0.344
73.2400,0.332
73.2800,0.342
73.3200,0.337
73.3600,0.311
73.4000,0.302
73.4400,0.316
73.4800,0.302
73.5200,0.292
73.5600,0.313
73.6000,0.327
73.6400,0.310
73.6800,0.297
73.7200,0.330
73.7600,0.322
73.8000,0.330
73.8400,0.301
73.8800,0.296
73.9200,0.301
73.9600,0.334
74.0000,0.345
74.0400,0.357
74.0800,0.320
74.1200,0.334
74.1600,0.311
74.2000,0.334
74.2400,0.338
74.2800,0.328
74.3200,0.337
74.3600,0.298
74.4000,0.306
74.4400,0.344
74.4800,0.286
74.5200,0.321
74.5600,0.320
74.6000,0.332
74.6400,0.351
74.6800,0.304
74.7200,0.296
74.7600,0.309
74.8000,0.286
74.8400,0.292
74.8800,0.313
74.9200,0.367
74.9600,0.343
75.0000,0.337
75.0400,0.327
75.0800,0.320
75.1200,0.352
75.1600,0.274
75.2000,0.290
75.2400,0.304
75.2800,0.324
75.3200,0.317
75.3600,0.284
75.4000,0.324
75.4400,0.311
75.4800,0.318
75.5200,0.326
75.5600,0.286
75.6000,0.298
75.6400,0.334
75.6800,0.304
75.7200,0.321
75.7600,0.315
75.8000,0.326
75.8400,0.326
75.8800,0.292
75.9200,0.296
75.9600,0.346
76.0000,0.361
76.0400,0.329
76.0800,0.319
76.1200,0.351
76.1600,0.300
76.2000,0.324
76.2400,0.286
76.2800,0.306
76.3200,0.340
76.3600,0.323
76.4000,0.328
76.4400,0.306
76.4800,0.349
76.5200,0.309
76.5600,0.341
76.6000,0.338
76.6400,0.348
76.6800,0.302
76.7200,0.322
76.7600,0.286
76.8000,0.316
76.8400,0.299
76.8800,0.306
76.9200,0.319
76.9600,0.310
77.0000,0.366
77.0400,0.351
77.0800,0.326
77.1200,0.323
77.1600,0.363
77.2000,0.330
77.2400,0.363
77.2800,0.362
77.3200,0.370
77.3600,0.348
77.4000,0.357
77.4400,0.334
77.4800,0.402
77.5200,0.441
77.5600,0.423
77.6000,0.411
77.6400,0.429
77.6800,0.469
77.7200,0.441
77.7600,0.469
77.8000,0.498
77.8400,0.507
77.8800,0.561
77.9200,0.547
77.9600,0.601
78.0000,0.595
78.0400,0.608
78.0800,0.676
78.1200,0.685
78.1600,0.725
78.2000,0.741
78.2400,0.780
78.2800,0.786
78.3200,0.866
78.3600,0.878
78.4000,0.906
78.4400,0.996
78.4800,1.009
78.5200,1.078
78.5600,1.095
78.6000,1.111
78.6400,1.198
78.6800,1.284
78.7200,1.418
78.7600,1.411
78.8000,1.451
78.8400,1.545
78.8800,1.561
78.9200,1.559
78.9600,1.628
79.0000,1.601
79.0400,1.572
79.0800,1.498
79.1200,1.500
79.1600,1.513
79.2000,1.474
79.2400,1.478
79.2800,1.385
79.3200,1.396
79.3600,1.278
79.4000,1.234
79.4400,1.131
79.4800,1.154
79.5200,1.121
79.5600,1.074
79.6000,1.026
79.6400,1.001
79.6800,0.896
79.7200,0.895
79.7600,0.914
79.8000,0.859
79.8400,0.791
79.8800,0.807
79.9200,0.745
79.9600,0.738
80.0000,0.690
