theta,intensity
5.0000,6.835
5.0400,6.705
5.0800,6.748
5.1200,6.764
5.1600,6.763
5.2000,6.450
5.2400,6.455
5.2800,6.461
5.3200,6.387
5.3600,6.384
5.4000,6.320
5.4400,6.241
5.4800,6.108
5.5200,5.992
5.5600,6.104
5.6000,5.972
5.6400,5.919
5.6800,5.733
5.7200,5.622
5.7600,5.680
5.8000,5.502
5.8400,5.619
5.8800,5.508
5.9200,5.326
5.9600,5.250
6.0000,5.305
6.0400,5.235
6.0800,5.163
6.1200,5.067
6.1600,5.039
6.2000,4.974
6.2400,4.749
6.2800,4.706
6.3200,4.733
6.3600,4.739
6.4000,4.663
6.4400,4.575
6.4800,4.488
6.5200,4.564
6.5600,4.463
6.6000,4.413
6.6400,4.343
6.6800,4.388
6.7200,4.296
6.7600,4.170
6.8000,4.274
6.8400,4.240
6.8800,4.156
6.9200,4.148
6.9600,3.995
7.0000,4.032
7.0400,3.980
7.0800,3.932
7.1200,4.000
7.1600,3.991
7.2000,3.970
7.2400,3.918
7.2800,3.999
7.3200,3.941
7.3600,3.880
7.4000,3.959
7.4400,3.749
7.4800,3.923
7.5200,3.871
7.5600,3.777
7.6000,3.859
7.6400,3.698
7.6800,3.738
7.7200,3.684
7.7600,3.868
7.8000,3.809
7.8400,3.850
7.8800,3.777
7.9200,3.809
7.9600,3.880
8.0000,3.768
8.0400,3.695
8.0800,3.783
8.1200,3.741
8.1600,3.754
8.2000,3.694
8.2400,3.769
8.2800,3.707
8.3200,3.819
8.3600,3.689
8.4000,3.659
8.4400,3.786
8.4800,3.805
8.5200,3.773
8.5600,3.593
8.6000,3.622
8.6400,3.654
8.6800,3.829
8.7200,3.672
8.7600,3.683
8.8000,3.710
8.8400,3.683
8.8800,3.558
8.9200,3.669
8.9600,3.711
9.0000,3.583
9.0400,3.643
9.0800,3.781
9.1200,3.734
9.1600,3.718
9.2000,3.651
9.2400,3.655
9.2800,3.600
9.3200,3.532
9.3600,3.595
9.4000,3.577
9.4400,3.638
9.4800,3.614
9.5200,3.575
9.5600,3.520
9.6000,3.598
9.6400,3.517
9.6800,3.596
9.7200,3.685
9.7600,3.615
9.8000,3.600
9.8400,3.609
9.8800,3.605
9.9200,3.546
9.9600,3.513
10.0000,3.498
10.0400,3.502
10.0800,3.466
10.1200,3.569
10.1600,3.378
10.2000,3.485
10.2400,3.445
10.2800,3.581
10.3200,3.552
10.3600,3.417
10.4000,3.473
10.4400,3.476
10.4800,3.455
10.5200,3.467
10.5600,3.517
10.6000,3.459
10.6400,3.491
10.6800,3.569
10.7200,3.320
10.7600,3.519
10.8000,3.484
10.8400,3.469
10.8800,3.451
10.9200,3.465
10.9600,3.414
11.0000,3.381
11.0400,3.547
11.0800,3.406
11.1200,3.490
11.1600,3.449
11.2000,3.392
11.2400,3.341
11.2800,3.333
11.3200,3.369
11.3600,3.450
11.4000,3.293
11.4400,3.388
11.4800,3.405
11.5200,3.384
11.5600,3.288
11.6000,3.388
11.6400,3.314
11.6800,3.447
11.7200,3.401
11.7600,3.448
11.8000,3.276
11.8400,3.447
11.8800,3.444
11.9200,3.450
11.9600,3.372
12.0000,3.509
12.0400,3.458
12.0800,3.328
12.1200,3.417
12.1600,3.323
12.2000,3.424
12.2400,3.338
12.2800,3.288
12.3200,3.314
12.3600,3.243
12.4000,3.253
12.4400,3.326
12.4800,3.388
12.5200,3.291
12.5600,3.259
12.6000,3.266
12.6400,3.202
12.6800,3.240
12.7200,3.342
12.7600,3.273
12.8000,3.210
12.8400,3.288
12.8800,3.228
12.9200,3.268
12.9600,3.205
13.0000,3.279
13.0400,3.250
13.0800,3.273
13.1200,3.268
13.1600,3.235
13.2000,3.192
13.2400,3.219
13.2800,3.217
13.3200,3.182
13.3600,3.103
13.4000,3.189
13.4400,3.189
13.4800,3.174
13.5200,3.159
13.5600,3.251
13.6000,3.222
13.6400,3.259
13.6800,3.165
13.7200,3.130
13.7600,3.313
13.8000,3.232
13.8400,3.051
13.8800,3.173
13.9200,3.080
13.9600,3.144
14.0000,3.158
14.0400,3.340
14.0800,3.126
14.1200,3.133
14.1600,3.081
14.2000,3.251
14.2400,3.188
14.2800,3.205
14.3200,3.093
14.3600,3.134
14.4000,3.186
14.4400,3.216
14.4800,3.152
14.5200,3.095
14.5600,3.169
14.6000,3.066
14.6400,3.140
14.6800,3.134
14.7200,3.154
14.7600,3.140
14.8000,3.127
14.8400,3.058
14.8800,3.041
14.9200,3.073
14.9600,3.154
15.0000,3.191
15.0400,3.126
15.0800,3.017
15.1200,2.996
15.1600,3.054
15.2000,3.053
15.2400,3.046
15.2800,3.060
15.3200,3.131
15.3600,2.991
15.4000,2.982
15.4400,3.008
15.4800,3.020
15.5200,3.133
15.5600,2.965
15.6000,3.028
15.6400,3.038
15.6800,3.054
15.7200,3.057
15.7600,2.961
15.8000,3.122
15.8400,3.024
15.8800,2.896
15.9200,2.961
15.9600,2.949
16.0000,2.916
16.0400,2.939
16.0800,2.888
16.1200,3.054
16.1600,2.992
16.2000,2.949
16.2400,2.949
16.2800,2.987
16.3200,3.001
16.3600,2.938
16.4000,2.918
16.4400,2.931
16.4800,2.935
16.5200,2.952
16.5600,2.879
16.6000,2.923
16.6400,2.948
16.6800,2.935
16.7200,2.847
16.7600,2.874
16.8000,2.913
16.8400,2.837
16.8800,2.876
16.9200,2.961
16.9600,2.875
17.0000,2.811
17.0400,2.828
17.0800,2.925
17.1200,2.835
17.1600,2.922
17.2000,2.852
17.2400,2.809
17.2800,2.769
17.3200,2.879
17.3600,2.796
17.4000,2.920
17.4400,2.865
17.4800,2.910
17.5200,2.902
17.5600,2.767
17.6000,2.741
17.6400,2.816
17.6800,2.947
17.7200,2.876
17.7600,2.879
17.8000,2.872
17.8400,2.854
17.8800,2.889
17.9200,2.811
17.9600,2.861
18.0000,2.812
18.0400,2.837
18.0800,2.805
18.1200,2.906
18.1600,2.763
18.2000,2.825
18.2400,2.691
18.2800,2.819
18.3200,2.859
18.3600,2.769
18.4000,2.824
18.4400,2.793
18.4800,2.819
18.5200,2.706
18.5600,2.742
18.6000,2.819
18.6400,2.765
18.6800,2.713
18.7200,2.866
18.7600,2.824
18.8000,2.622
18.8400,2.771
18.8800,2.758
18.9200,2.638
18.9600,2.702
19.0000,2.685
19.0400,2.726
19.0800,2.767
19.1200,2.687
19.1600,2.635
19.2000,2.662
19.2400,2.685
19.2800,2.726
19.3200,2.688
19.3600,2.651
19.4000,2.669
19.4400,2.770
19.4800,2.740
19.5200,2.685
19.5600,2.673
19.6000,2.670
19.6400,2.596
19.6800,2.667
19.7200,2.687
19.7600,2.676
19.8000,2.676
19.8400,2.654
19.8800,2.660
19.9200,2.579
19.9600,2.677
20.0000,2.657
20.0400,2.652
20.0800,2.684
20.1200,2.701
20.1600,2.679
20.2000,2.593
20.2400,2.570
20.2800,2.678
20.3200,2.672
20.3600,2.616
20.4000,2.599
20.4400,2.528
20.4800,2.619
20.5200,2.609
20.5600,2.630
20.6000,2.623
20.6400,2.474
20.6800,2.598
20.7200,2.549
20.7600,2.637
20.8000,2.572
20.8400,2.662
20.8800,2.618
20.9200,2.511
20.9600,2.580
21.0000,2.640
21.0400,2.519
21.0800,2.561
21.1200,2.571
21.1600,2.499
21.2000,2.530
21.2400,2.600
21.2800,2.564
21.3200,2.541
21.3600,2.641
21.4000,2.561
21.4400,2.581
21.4800,2.552
21.5200,2.526
21.5600,2.484
21.6000,2.579
21.6400,2.593
21.6800,2.551
21.7200,2.608
21.7600,2.533
21.8000,2.581
21.8400,2.441
21.8800,2.464
21.9200,2.682
21.9600,2.469
22.0000,2.465
22.0400,2.493
22.0800,2.556
22.1200,2.483
22.1600,2.528
22.2000,2.599
22.2400,2.547
22.2800,2.443
22.3200,2.466
22.3600,2.576
22.4000,2.573
22.4400,2.541
22.4800,2.492
22.5200,2.483
22.5600,2.528
22.6000,2.548
22.6400,2.516
22.6800,2.686
22.7200,2.576
22.7600,2.417
22.8000,2.512
22.8400,2.609
22.8800,2.606
22.9200,2.555
22.9600,2.524
23.0000,2.477
23.0400,2.554
23.0800,2.570
23.1200,2.594
23.1600,2.518
23.2000,2.562
23.2400,2.582
23.2800,2.662
23.3200,2.599
23.3600,2.601
23.4000,2.654
23.4400,2.682
23.4800,2.671
23.5200,2.647
23.5600,2.620
23.6000,2.675
23.6400,2.609
23.6800,2.725
23.7200,2.648
23.7600,2.700
23.8000,2.671
23.8400,2.712
23.8800,2.532
23.9200,2.603
23.9600,2.610
24.0000,2.520
24.0400,2.496
24.0800,2.555
24.1200,2.483
24.1600,2.556
24.2000,2.448
24.2400,2.520
24.2800,2.529
24.3200,2.622
24.3600,2.534
24.4000,2.445
24.4400,2.424
24.4800,2.467
24.5200,2.388
24.5600,2.527
24.6000,2.371
24.6400,2.447
24.6800,2.345
24.7200,2.337
24.7600,2.422
24.8000,2.379
24.8400,2.445
24.8800,2.360
24.9200,2.372
24.9600,2.379
25.0000,2.429
25.0400,2.272
25.0800,2.349
25.1200,2.296
25.1600,2.311
25.2000,2.293
25.2400,2.335
25.2800,2.448
25.3200,2.276
25.3600,2.343
25.4000,2.334
25.4400,2.287
25.4800,2.291
25.5200,2.285
25.5600,2.273
25.6000,2.212
25.6400,2.244
25.6800,2.270
25.7200,2.311
25.7600,2.283
25.8000,2.204
25.8400,2.300
25.8800,2.276
25.9200,2.188
25.9600,2.206
26.0000,2.264
26.0400,2.203
26.0800,2.245
26.1200,2.254
26.1600,2.253
26.2000,2.287
26.2400,2.209
26.2800,2.234
26.3200,2.197
26.3600,2.226
26.4000,2.172
26.4400,2.118
26.4800,2.220
26.5200,2.184
26.5600,2.115
26.6000,2.086
26.6400,2.210
26.6800,2.164
26.7200,2.221
26.7600,2.162
26.8000,2.217
26.8400,2.137
26.8800,2.165
26.9200,2.225
26.9600,2.199
27.0000,2.133
27.0400,2.265
27.0800,2.154
27.1200,2.123
27.1600,2.233
27.2000,2.156
27.2400,2.158
27.2800,2.204
27.3200,2.101
27.3600,2.093
27.4000,2.199
27.4400,2.211
27.4800,2.219
27.5200,2.180
27.5600,2.242
27.6000,2.093
27.6400,2.184
27.6800,2.120
27.7200,2.160
27.7600,2.203
27.8000,2.126
27.8400,2.215
27.8800,2.232
27.9200,2.136
27.9600,2.206
28.0000,2.197
28.0400,2.210
28.0800,2.305
28.1200,2.231
28.1600,2.388
28.2000,2.205
28.2400,2.215
28.2800,2.262
28.3200,2.300
28.3600,2.254
28.4000,2.305
28.4400,2.272
28.4800,2.233
28.5200,2.233
28.5600,2.262
28.6000,2.226
28.6400,2.144
28.6800,2.265
28.7200,2.203
28.7600,2.197
28.8000,2.125
28.8400,2.222
28.8800,2.150
28.9200,2.157
28.9600,2.150
29.0000,2.166
29.0400,2.069
29.0800,2.149
29.1200,2.149
29.1600,2.112
29.2000,2.033
29.2400,2.069
29.2800,2.046
29.3200,1.982
29.3600,2.081
29.4000,2.089
29.4400,1.988
29.4800,2.020
29.5200,2.020
29.5600,2.032
29.6000,1.983
29.6400,1.993
29.6800,1.981
29.7200,2.030
29.7600,1.951
29.8000,1.920
29.8400,2.009
29.8800,1.992
29.9200,1.969
29.9600,1.939
30.0000,1.986
30.0400,1.842
30.0800,1.939
30.1200,1.828
30.1600,1.778
30.2000,1.846
30.2400,1.943
30.2800,1.980
30.3200,1.895
30.3600,1.802
30.4000,1.859
30.4400,1.889
30.4800,1.780
30.5200,1.950
30.5600,1.866
30.6000,1.832
30.6400,1.854
30.6800,1.847
30.7200,1.793
30.7600,1.806
30.8000,1.904
30.8400,1.866
30.8800,1.853
30.9200,1.882
30.9600,1.864
31.0000,1.797
31.0400,1.878
31.0800,1.803
31.1200,1.808
31.1600,1.795
31.2000,1.790
31.2400,1.827
31.2800,1.823
31.3200,1.880
31.3600,1.840
31.4000,1.769
31.4400,1.793
31.4800,1.782
31.5200,1.781
31.5600,1.808
31.6000,1.825
31.6400,1.779
31.6800,1.772
31.7200,1.705
31.7600,1.778
31.8000,1.775
31.8400,1.709
31.8800,1.746
31.9200,1.722
31.9600,1.782
32.0000,1.811
32.0400,1.850
32.0800,1.816
32.1200,1.742
32.1600,1.733
32.2000,1.768
32.2400,1.807
32.2800,1.776
32.3200,1.791
32.3600,1.850
32.4000,1.762
32.4400,1.791
32.4800,1.810
32.5200,1.678
32.5600,1.735
32.6000,1.776
32.6400,1.797
32.6800,1.813
32.7200,1.753
32.7600,1.719
32.8000,1.693
32.8400,1.730
32.8800,1.831
32.9200,1.756
32.9600,1.735
33.0000,1.743
33.0400,1.674
33.0800,1.741
33.1200,1.708
33.1600,1.725
33.2000,1.672
33.2400,1.732
33.2800,1.719
33.3200,1.746
33.3600,1.761
33.4000,1.693
33.4400,1.705
33.4800,1.788
33.5200,1.749
33.5600,1.608
33.6000,1.762
33.6400,1.831
33.6800,1.730
33.7200,1.673
33.7600,1.774
33.8000,1.696
33.8400,1.649
33.8800,1.708
33.9200,1.689
33.9600,1.718
34.0000,1.629
34.0400,1.665
34.0800,1.653
34.1200,1.646
34.1600,1.625
34.2000,1.623
34.2400,1.655
34.2800,1.659
34.3200,1.713
34.3600,1.631
34.4000,1.602
34.4400,1.574
34.4800,1.700
34.5200,1.620
34.5600,1.641
34.6000,1.593
34.6400,1.620
34.6800,1.619
34.7200,1.647
34.7600,1.605
34.8000,1.610
34.8400,1.586
34.8800,1.558
34.9200,1.641
34.9600,1.648
35.0000,1.525
35.0400,1.571
35.0800,1.544
35.1200,1.462
35.1600,1.526
35.2000,1.456
35.2400,1.451
35.2800,1.471
35.3200,1.514
35.3600,1.534
35.4000,1.417
35.4400,1.424
35.4800,1.429
35.5200,1.464
35.5600,1.484
35.6000,1.459
35.6400,1.531
35.6800,1.447
35.7200,1.450
35.7600,1.425
35.8000,1.496
35.8400,1.471
35.8800,1.530
35.9200,1.458
35.9600,1.514
36.0000,1.478
36.0400,1.464
36.0800,1.452
36.1200,1.521
36.1600,1.421
36.2000,1.360
36.2400,1.482
36.2800,1.469
36.3200,1.478
36.3600,1.509
36.4000,1.540
36.4400,1.385
36.4800,1.495
36.5200,1.465
36.5600,1.474
36.6000,1.502
36.6400,1.461
36.6800,1.423
36.7200,1.432
36.7600,1.402
36.8000,1.470
36.8400,1.492
36.8800,1.443
36.9200,1.491
36.9600,1.472
37.0000,1.457
37.0400,1.463
37.0800,1.491
37.1200,1.434
37.1600,1.442
37.2000,1.427
37.2400,1.369
37.2800,1.417
37.3200,1.422
37.3600,1.501
37.4000,1.384
37.4400,1.392
37.4800,1.540
37.5200,1.402
37.5600,1.434
37.6000,1.530
37.6400,1.496
37.6800,1.530
37.7200,1.598
37.7600,1.615
37.8000,1.630
37.8400,1.738
37.8800,1.748
37.9200,1.884
37.9600,2.078
38.0000,2.248
38.0400,2.609
38.0800,3.255
38.1200,4.274
38.1600,6.007
38.2000,7.977
38.2400,9.907
38.2800,10.634
38.3200,10.464
38.3600,9.422
38.4000,7.878
38.4400,6.452
38.4800,4.969
38.5200,3.994
38.5600,3.204
38.6000,2.732
38.6400,2.375
38.6800,2.126
38.7200,1.988
38.7600,1.783
38.8000,1.752
38.8400,1.617
38.8800,1.576
38.9200,1.587
38.9600,1.577
39.0000,1.547
39.0400,1.534
39.0800,1.468
39.1200,1.411
39.1600,1.525
39.2000,1.419
39.2400,1.441
39.2800,1.359
39.3200,1.376
39.3600,1.314
39.4000,1.410
39.4400,1.450
39.4800,1.360
39.5200,1.410
39.5600,1.448
39.6000,1.332
39.6400,1.400
39.6800,1.337
39.7200,1.369
39.7600,1.320
39.8000,1.371
39.8400,1.395
39.8800,1.375
39.9200,1.439
39.9600,1.425
40.0000,1.409
40.0400,1.478
40.0800,1.437
40.1200,1.441
40.1600,1.522
40.2000,1.633
40.2400,1.583
40.2800,1.637
40.3200,1.769
40.3600,1.801
40.4000,1.978
40.4400,1.913
40.4800,2.154
40.5200,2.405
40.5600,2.322
40.6000,2.651
40.6400,2.714
40.6800,2.851
40.7200,2.955
40.7600,3.135
40.8000,3.279
40.8400,3.449
40.8800,3.431
40.9200,3.495
40.9600,3.749
41.0000,3.726
41.0400,3.807
41.0800,3.944
41.1200,4.050
41.1600,4.003
41.2000,4.035
41.2400,3.952
41.2800,4.085
41.3200,3.867
41.3600,3.871
41.4000,3.878
41.4400,3.867
41.4800,3.656
41.5200,3.437
41.5600,3.287
41.6000,3.012
41.6400,2.723
41.6800,2.367
41.7200,2.143
41.7600,1.908
41.8000,1.778
41.8400,1.574
41.8800,1.482
41.9200,1.377
41.9600,1.336
42.0000,1.276
42.0400,1.326
42.0800,1.294
42.1200,1.228
42.1600,1.193
42.2000,1.110
42.2400,1.223
42.2800,1.214
42.3200,1.207
42.3600,1.162
42.4000,1.141
42.4400,1.147
42.4800,1.145
42.5200,1.131
42.5600,1.226
42.6000,1.185
42.6400,1.105
42.6800,1.103
42.7200,1.109
42.7600,1.117
42.8000,1.151
42.8400,1.203
42.8800,1.085
42.9200,1.106
42.9600,1.158
43.0000,1.087
43.0400,1.155
43.0800,1.151
43.1200,1.141
43.1600,1.150
43.2000,1.135
43.2400,1.092
43.2800,1.089
43.3200,1.093
43.3600,1.131
43.4000,1.107
43.4400,1.178
43.4800,1.124
43.5200,1.094
43.5600,1.142
43.6000,1.088
43.6400,1.113
43.6800,1.122
43.7200,1.154
43.7600,1.250
43.8000,1.159
43.8400,1.188
43.8800,1.213
43.9200,1.222
43.9600,1.250
44.0000,1.306
44.0400,1.361
44.0800,1.362
44.1200,1.487
44.1600,1.547
44.2000,1.665
44.2400,1.876
44.2800,2.021
44.3200,2.375
44.3600,2.718
44.4000,3.270
44.4400,3.619
44.4800,3.950
44.5200,4.159
44.5600,3.861
44.6000,3.583
44.6400,3.359
44.6800,2.813
44.7200,2.475
44.7600,2.114
44.8000,1.850
44.8400,1.664
44.8800,1.547
44.9200,1.508
44.9600,1.391
45.0000,1.259
45.0400,1.224
45.0800,1.222
45.1200,1.209
45.1600,1.135
45.2000,1.093
45.2400,1.062
45.2800,1.121
45.3200,1.101
45.3600,1.068
45.4000,1.069
45.4400,1.018
45.4800,1.023
45.5200,1.097
45.5600,1.076
45.6000,1.009
45.6400,0.996
45.6800,1.053
45.7200,1.084
45.7600,1.093
45.8000,1.081
45.8400,1.096
45.8800,1.008
45.9200,1.041
45.9600,1.064
46.0000,0.981
46.0400,0.964
46.0800,1.069
46.1200,1.025
46.1600,0.992
46.2000,1.023
46.2400,1.026
46.2800,1.032
46.3200,0.982
46.3600,0.998
46.4000,0.964
46.4400,1.006
46.4800,1.029
46.5200,1.001
46.5600,0.996
46.6000,0.996
46.6400,1.009
46.6800,0.976
46.7200,0.946
46.7600,0.986
46.8000,1.034
46.8400,1.032
46.8800,1.094
46.9200,1.042
46.9600,0.998
47.0000,1.033
47.0400,1.110
47.0800,1.114
47.1200,1.093
47.1600,1.199
47.2000,1.202
47.2400,1.235
47.2800,1.308
47.3200,1.324
47.3600,1.379
47.4000,1.404
47.4400,1.440
47.4800,1.550
47.5200,1.564
47.5600,1.648
47.6000,1.647
47.6400,1.714
47.6800,1.652
47.7200,1.756
47.7600,1.752
47.8000,1.890
47.8400,1.793
47.8800,1.828
47.9200,1.906
47.9600,1.984
48.0000,1.880
48.0400,1.866
48.0800,1.832
48.1200,1.906
48.1600,1.833
48.2000,1.855
48.2400,1.832
48.2800,1.738
48.3200,1.725
48.3600,1.651
48.4000,1.473
48.4400,1.503
48.4800,1.407
48.5200,1.342
48.5600,1.272
48.6000,1.151
48.6400,1.130
48.6800,1.095
48.7200,1.033
48.7600,0.969
48.8000,0.975
48.8400,0.915
48.8800,0.914
48.9200,0.921
48.9600,0.953
49.0000,0.963
49.0400,0.923
49.0800,0.882
49.1200,0.894
49.1600,0.905
49.2000,0.839
49.2400,0.853
49.2800,0.820
49.3200,0.882
49.3600,0.836
49.4000,0.890
49.4400,0.801
49.4800,0.780
49.5200,0.817
49.5600,0.807
49.6000,0.803
49.6400,0.758
49.6800,0.818
49.7200,0.772
49.7600,0.806
49.8000,0.790
49.8400,0.816
49.8800,0.771
49.9200,0.828
49.9600,0.766
50.0000,0.759
50.0400,0.849
50.0800,0.792
50.1200,0.764
50.1600,0.804
50.2000,0.782
50.2400,0.814
50.2800,0.800
50.3200,0.823
50.3600,0.859
50.4000,0.813
50.4400,0.797
50.4800,0.788
50.5200,0.772
50.5600,0.727
50.6000,0.778
50.6400,0.780
50.6800,0.749
50.7200,0.761
50.7600,0.743
50.8000,0.739
50.8400,0.752
50.8800,0.777
50.9200,0.747
50.9600,0.781
51.0000,0.763
51.0400,0.773
51.0800,0.700
51.1200,0.790
51.1600,0.772
51.2000,0.739
51.2400,0.828
51.2800,0.749
51.3200,0.748
51.3600,0.737
51.4000,0.681
51.4400,0.704
51.4800,0.752
51.5200,0.783
51.5600,0.754
51.6000,0.758
51.6400,0.736
51.6800,0.772
51.7200,0.760
51.7600,0.771
51.8000,0.761
51.8400,0.729
51.8800,0.698
51.9200,0.745
51.9600,0.756
52.0000,0.747
52.0400,0.769
52.0800,0.768
52.1200,0.718
52.1600,0.719
52.2000,0.749
52.2400,0.740
52.2800,0.770
52.3200,0.724
52.3600,0.759
52.4000,0.721
52.4400,0.708
52.4800,0.722
52.5200,0.766
52.5600,0.749
52.6000,0.744
52.6400,0.739
52.6800,0.768
52.7200,0.770
52.7600,0.741
52.8000,0.754
52.8400,0.731
52.8800,0.723
52.9200,0.720
52.9600,0.668
53.0000,0.739
53.0400,0.789
53.0800,0.752
53.1200,0.702
53.1600,0.717
53.2000,0.734
53.2400,0.761
53.2800,0.742
53.3200,0.754
53.3600,0.720
53.4000,0.745
53.4400,0.703
53.4800,0.717
53.5200,0.670
53.5600,0.723
53.6000,0.675
53.6400,0.772
53.6800,0.651
53.7200,0.718
53.7600,0.677
53.8000,0.699
53.8400,0.721
53.8800,0.757
53.9200,0.786
53.9600,0.712
54.0000,0.715
54.0400,0.739
54.0800,0.703
54.1200,0.711
54.1600,0.685
54.2000,0.706
54.2400,0.709
54.2800,0.734
54.3200,0.712
54.3600,0.712
54.4000,0.702
54.4400,0.717
54.4800,0.771
54.5200,0.688
54.5600,0.742
54.6000,0.701
54.6400,0.695
54.6800,0.761
54.7200,0.718
54.7600,0.729
54.8000,0.772
54.8400,0.708
54.8800,0.705
54.9200,0.749
54.9600,0.722
55.0000,0.754
55.0400,0.657
55.0800,0.706
55.1200,0.716
55.1600,0.701
55.2000,0.622
55.2400,0.681
55.2800,0.711
55.3200,0.624
55.3600,0.636
55.4000,0.634
55.4400,0.735
55.4800,0.689
55.5200,0.738
55.5600,0.639
55.6000,0.651
55.6400,0.652
55.6800,0.627
55.7200,0.661
55.7600,0.671
55.8000,0.710
55.8400,0.648
55.8800,0.633
55.9200,0.641
55.9600,0.653
56.0000,0.680
56.0400,0.696
56.0800,0.649
56.1200,0.644
56.1600,0.648
56.2000,0.621
56.2400,0.611
56.2800,0.583
56.3200,0.611
56.3600,0.587
56.4000,0.645
56.4400,0.615
56.4800,0.641
56.5200,0.605
56.5600,0.632
56.6000,0.613
56.6400,0.589
56.6800,0.639
56.7200,0.663
56.7600,0.619
56.8000,0.621
56.8400,0.701
56.8800,0.633
56.9200,0.587
56.9600,0.635
57.0000,0.616
57.0400,0.583
57.0800,0.620
57.1200,0.630
57.1600,0.593
57.2000,0.627
57.2400,0.609
57.2800,0.637
57.3200,0.643
57.3600,0.614
57.4000,0.625
57.4400,0.609
57.4800,0.623
57.5200,0.634
57.5600,0.595
57.6000,0.573
57.6400,0.626
57.6800,0.618
57.7200,0.575
57.7600,0.563
57.8000,0.593
57.8400,0.563
57.8800,0.588
57.9200,0.583
57.9600,0.581
58.0000,0.601
58.0400,0.592
58.0800,0.636
58.1200,0.636
58.1600,0.602
58.2000,0.611
58.2400,0.632
58.2800,0.616
58.3200,0.640
58.3600,0.568
58.4000,0.547
58.4400,0.628
58.4800,0.612
58.5200,0.636
58.5600,0.588
58.6000,0.612
58.6400,0.628
58.6800,0.561
58.7200,0.590
58.7600,0.613
58.8000,0.541
58.8400,0.578
58.8800,0.600
58.9200,0.582
58.9600,0.644
59.0000,0.618
59.0400,0.572
59.0800,0.557
59.1200,0.608
59.1600,0.579
59.2000,0.588
59.2400,0.601
59.2800,0.576
59.3200,0.601
59.3600,0.635
59.4000,0.577
59.4400,0.635
59.4800,0.561
59.5200,0.577
59.5600,0.579
59.6000,0.638
59.6400,0.556
59.6800,0.626
59.7200,0.574
59.7600,0.611
59.8000,0.610
59.8400,0.617
59.8800,0.575
59.9200,0.631
59.9600,0.637
60.0000,0.586
60.0400,0.626
60.0800,0.578
60.1200,0.610
60.1600,0.592
60.2000,0.547
60.2400,0.592
60.2800,0.608
60.3200,0.606
60.3600,0.598
60.4000,0.620
60.4400,0.567
60.4800,0.532
60.5200,0.538
60.5600,0.604
60.6000,0.577
60.6400,0.550
60.6800,0.573
60.7200,0.571
60.7600,0.522
60.8000,0.572
60.8400,0.605
60.8800,0.548
60.9200,0.539
60.9600,0.553
61.0000,0.525
61.0400,0.525
61.0800,0.551
61.1200,0.547
61.1600,0.529
61.2000,0.534
61.2400,0.534
61.2800,0.519
61.3200,0.574
61.3600,0.542
61.4000,0.519
61.4400,0.480
61.4800,0.499
61.5200,0.543
61.5600,0.476
61.6000,0.528
61.6400,0.488
61.6800,0.537
61.7200,0.518
61.7600,0.543
61.8000,0.519
61.8400,0.567
61.8800,0.522
61.9200,0.507
61.9600,0.514
62.0000,0.515
62.0400,0.536
62.0800,0.520
62.1200,0.508
62.1600,0.509
62.2000,0.527
62.2400,0.509
62.2800,0.509
62.3200,0.528
62.3600,0.481
62.4000,0.523
62.4400,0.465
62.4800,0.489
62.5200,0.524
62.5600,0.484
62.6000,0.490
62.6400,0.470
62.6800,0.494
62.7200,0.457
62.7600,0.534
62.8000,0.487
62.8400,0.504
62.8800,0.487
62.9200,0.540
62.9600,0.494
63.0000,0.513
63.0400,0.467
63.0800,0.517
63.1200,0.461
63.1600,0.485
63.2000,0.491
63.2400,0.514
63.2800,0.492
63.3200,0.492
63.3600,0.473
63.4000,0.494
63.4400,0.511
63.4800,0.504
63.5200,0.501
63.5600,0.498
63.6000,0.443
63.6400,0.470
63.6800,0.515
63.7200,0.505
63.7600,0.510
63.8000,0.518
63.8400,0.546
63.8800,0.484
63.9200,0.522
63.9600,0.553
64.0000,0.497
64.0400,0.496
64.0800,0.509
64.1200,0.549
64.1600,0.508
64.2000,0.563
64.2400,0.571
64.2800,0.578
64.3200,0.603
64.3600,0.675
64.4000,0.667
64.4400,0.707
64.4800,0.775
64.5200,0.908
64.5600,1.062
64.6000,1.151
64.6400,1.349
64.6800,1.518
64.7200,1.586
64.7600,1.607
64.8000,1.722
64.8400,1.608
64.8800,1.567
64.9200,1.440
64.9600,1.392
65.0000,1.223
65.0400,1.104
65.0800,1.000
65.1200,0.923
65.1600,0.825
65.2000,0.803
65.2400,0.707
65.2800,0.627
65.3200,0.585
65.3600,0.613
65.4000,0.587
65.4400,0.572
65.4800,0.525
65.5200,0.541
65.5600,0.503
65.6000,0.535
65.6400,0.533
65.6800,0.496
65.7200,0.460
65.7600,0.519
65.8000,0.492
65.8400,0.546
65.8800,0.480
65.9200,0.462
65.9600,0.459
66.0000,0.426
66.0400,0.465
66.0800,0.475
66.1200,0.490
66.1600,0.459
66.2000,0.433
66.2400,0.434
66.2800,0.469
66.3200,0.466
66.3600,0.452
66.4000,0.449
66.4400,0.437
66.4800,0.412
66.5200,0.453
66.5600,0.481
66.6000,0.459
66.6400,0.435
66.6800,0.442
66.7200,0.436
66.7600,0.483
66.8000,0.424
66.8400,0.458
66.8800,0.479
66.9200,0.443
66.9600,0.440
67.0000,0.422
67.0400,0.437
67.0800,0.413
67.1200,0.417
67.1600,0.442
67.2000,0.451
67.2400,0.445
67.2800,0.433
67.3200,0.424
67.3600,0.443
67.4000,0.383
67.4400,0.444
67.4800,0.418
67.5200,0.412
67.5600,0.407
67.6000,0.443
67.6400,0.474
67.6800,0.413
67.7200,0.407
67.7600,0.414
67.8000,0.418
67.8400,0.426
67.8800,0.423
67.9200,0.413
67.9600,0.414
68.0000,0.436
68.0400,0.387
68.0800,0.392
68.1200,0.428
68.1600,0.441
68.2000,0.474
68.2400,0.446
68.2800,0.440
68.3200,0.396
68.3600,0.441
68.4000,0.389
68.4400,0.425
68.4800,0.425
68.5200,0.462
68.5600,0.434
68.6000,0.431
68.6400,0.440
68.6800,0.425
68.7200,0.410
68.7600,0.456
68.8000,0.436
68.8400,0.420
68.8800,0.454
68.9200,0.449
68.9600,0.471
69.0000,0.499
69.0400,0.473
69.0800,0.477
69.1200,0.516
69.1600,0.553
69.2000,0.546
69.2400,0.555
69.2800,0.542
69.3200,0.609
69.3600,0.573
69.4000,0.640
69.4400,0.604
69.4800,0.640
69.5200,0.576
69.5600,0.644
69.6000,0.650
69.6400,0.617
69.6800,0.662
69.7200,0.687
69.7600,0.711
69.8000,0.678
69.8400,0.654
69.8800,0.683
69.9200,0.782
69.9600,0.678
70.0000,0.674
70.0400,0.726
70.0800,0.695
70.1200,0.690
70.1600,0.673
70.2000,0.689
70.2400,0.679
70.2800,0.668
70.3200,0.685
70.3600,0.696
70.4000,0.670
70.4400,0.669
70.4800,0.717
70.5200,0.710
70.5600,0.654
70.6000,0.661
70.6400,0.663
70.6800,0.649
70.7200,0.617
70.7600,0.625
70.8000,0.648
70.8400,0.633
70.8800,0.605
70.9200,0.553
70.9600,0.522
71.0000,0.548
71.0400,0.534
71.0800,0.518
71.1200,0.453
71.1600,0.440
71.2000,0.464
71.2400,0.404
71.2800,0.405
71.3200,0.388
71.3600,0.384
71.4000,0.386
71.4400,0.395
71.4800,0.391
71.5200,0.378
71.5600,0.406
71.6000,0.372
71.6400,0.391
71.6800,0.365
71.7200,0.371
71.7600,0.387
71.8000,0.361
71.8400,0.387
71.8800,0.355
71.9200,0.369
71.9600,0.353
72.0000,0.339
72.0400,0.358
72.0800,0.364
72.1200,0.364
72.1600,0.381
72.2000,0.391
72.2400,0.354
72.2800,0.351
72.3200,0.364
72.3600,0.331
72.4000,0.355
72.4400,0.331
72.4800,0.331
72.5200,0.320
72.5600,0.333
72.6000,0.327
72.6400,0.333
72.6800,0.402
72.7200,0.333
72.7600,0.345
72.8000,0.380
72.8400,0.380
72.8800,0.343
72.9200,0.364
72.9600,0.347
73.0000,0.315
73.0400,0.338
73.0800,0.336
73.1200,0.354
73.1600,0.361
73.2000,0.360
73.2400,0.342
73.2800,0.328
73.3200,0.358
73.3600,0.366
73.4000,0.342
73.4400,0.358
73.4800,0.344
73.5200,0.331
73.5600,0.354
73.6000,0.315
73.6400,0.327
73.6800,0.313
73.7200,0.338
73.7600,0.343
73.8000,0.349
73.8400,0.344
73.8800,0.321
73.9200,0.328
73.9600,0.317
74.0000,0.308
74.0400,0.299
74.0800,0.339
74.1200,0.335
74.1600,0.353
74.2000,0.357
74.2400,0.315
74.2800,0.330
74.3200,0.335
74.3600,0.348
74.4000,0.345
74.4400,0.346
74.4800,0.340
74.5200,0.342
74.5600,0.340
74.6000,0.359
74.6400,0.321
74.6800,0.331
74.7200,0.339
74.7600,0.341
74.8000,0.360
74.8400,0.373
74.8800,0.317
74.9200,0.375
74.9600,0.339
75.0000,0.350
75.0400,0.359
75.0800,0.323
75.1200,0.332
75.1600,0.378
75.2000,0.342
75.2400,0.330
75.2800,0.364
75.3200,0.334
75.3600,0.316
75.4000,0.357
75.4400,0.361
75.4800,0.377
75.5200,0.357
75.5600,0.388
75.6000,0.369
75.6400,0.353
75.6800,0.371
75.7200,0.376
75.7600,0.357
75.8000,0.345
75.8400,0.335
75.8800,0.353
75.9200,0.320
75.9600,0.338
76.0000,0.323
76.0400,0.341
76.0800,0.334
76.1200,0.344
76.1600,0.325
76.2000,0.321
76.2400,0.338
76.2800,0.362
76.3200,0.362
76.3600,0.366
76.4000,0.339
76.4400,0.328
76.4800,0.349
76.5200,0.354
76.5600,0.321
76.6000,0.356
76.6400,0.356
76.6800,0.331
76.7200,0.348
76.7600,0.346
76.8000,0.366
76.8400,0.386
76.8800,0.339
76.9200,0.393
76.9600,0.413
77.0000,0.372
77.0400,0.370
77.0800,0.400
77.1200,0.397
77.1600,0.425
77.2000,0.411
77.2400,0.462
77.2800,0.481
77.3200,0.486
77.3600,0.502
77.4000,0.599
77.4400,0.596
77.4800,0.624
77.5200,0.712
77.5600,0.827
77.6000,0.915
77.6400,0.999
77.6800,1.174
77.7200,1.184
77.7600,1.307
77.8000,1.307
77.8400,1.269
77.8800,1.306
77.9200,1.198
77.9600,1.206
78.0000,1.125
78.0400,1.094
78.0800,1.019
78.1200,0.875
78.1600,0.843
78.2000,0.725
78.2400,0.697
78.2800,0.682
78.3200,0.601
78.3600,0.541
78.4000,0.533
78.4400,0.493
78.4800,0.475
78.5200,0.422
78.5600,0.437
78.6000,0.416
78.6400,0.405
78.6800,0.408
78.7200,0.392
78.7600,0.385
78.8000,0.394
78.8400,0.378
78.8800,0.364
78.9200,0.357
78.9600,0.353
79.0000,0.347
79.0400,0.377
79.0800,0.327
79.1200,0.337
79.1600,0.337
79.2000,0.364
79.2400,0.368
79.2800,0.319
79.3200,0.356
79.3600,0.357
79.4000,0.351
79.4400,0.336
79.4800,0.342
79.5200,0.355
79.5600,0.313
79.6000,0.344
79.6400,0.331
79.6800,0.341
79.7200,0.340
79.7600,0.340
79.8000,0.347
79.8400,0.317
79.8800,0.331
79.9200,0.301
79.9600,0.305
80.0000,0.316
