theta,intensity
5.0000,4.253
5.0400,4.298
5.0800,4.340
5.1200,4.297
5.1600,4.239
5.2000,4.262
5.2400,4.225
5.2800,4.241
5.3200,4.212
5.3600,4.337
5.4000,4.233
5.4400,4.190
5.4800,4.272
5.5200,4.314
5.5600,4.238
5.6000,4.208
5.6400,4.111
5.6800,4.248
5.7200,4.151
5.7600,4.052
5.8000,4.223
5.8400,4.077
5.8800,4.162
5.9200,4.157
5.9600,4.165
6.0000,4.037
6.0400,4.171
6.0800,4.098
6.1200,4.080
6.1600,4.167
6.2000,4.118
6.2400,4.195
6.2800,4.151
6.3200,4.049
6.3600,4.092
6.4000,4.028
6.4400,4.012
6.4800,3.985
6.5200,3.966
6.5600,3.947
6.6000,4.029
6.6400,3.961
6.6800,3.990
6.7200,3.952
6.7600,4.087
6.8000,3.901
6.8400,3.971
6.8800,3.940
6.9200,3.910
6.9600,3.939
7.0000,3.798
7.0400,3.962
7.0800,3.871
7.1200,3.987
7.1600,3.859
7.2000,3.975
7.2400,3.828
7.2800,3.951
7.3200,3.953
7.3600,3.903
7.4000,3.877
7.4400,3.962
7.4800,3.905
7.5200,3.857
7.5600,3.909
7.6000,3.858
7.6400,3.913
7.6800,4.019
7.7200,3.934
7.7600,3.886
7.8000,3.883
7.8400,3.754
7.8800,3.753
7.9200,3.813
7.9600,3.833
8.0000,3.876
8.0400,3.709
8.0800,3.763
8.1200,3.906
8.1600,3.832
8.2000,3.775
8.2400,3.937
8.2800,3.691
8.3200,3.834
8.3600,3.725
8.4000,3.726
8.4400,3.883
8.4800,3.823
8.5200,3.844
8.5600,3.910
8.6000,3.802
8.6400,3.711
8.6800,3.772
8.7200,3.642
8.7600,3.714
8.8000,3.750
8.8400,3.807
8.8800,3.605
8.9200,3.801
8.9600,3.673
9.0000,3.645
9.0400,3.678
9.0800,3.780
9.1200,3.849
9.1600,3.735
9.2000,3.692
9.2400,3.710
9.2800,3.554
9.3200,3.697
9.3600,3.592
9.4000,3.597
9.4400,3.670
9.4800,3.639
9.5200,3.657
9.5600,3.662
9.6000,3.563
9.6400,3.627
9.6800,3.612
9.7200,3.572
9.7600,3.670
9.8000,3.665
9.8400,3.576
9.8800,3.690
9.9200,3.679
9.9600,3.635
10.0000,3.558
10.0400,3.612
10.0800,3.709
10.1200,3.569
10.1600,3.671
10.2000,3.575
10.2400,3.574
10.2800,3.601
10.3200,3.571
10.3600,3.652
10.4000,3.653
10.4400,3.591
10.4800,3.546
10.5200,3.589
10.5600,3.485
10.6000,3.552
10.6400,3.459
10.6800,3.429
10.7200,3.555
10.7600,3.569
10.8000,3.541
10.8400,3.552
10.8800,3.658
10.9200,3.465
10.9600,3.558
11.0000,3.525
11.0400,3.427
11.0800,3.478
11.1200,3.469
11.1600,3.545
11.2000,3.566
11.2400,3.513
11.2800,3.494
11.3200,3.493
11.3600,3.537
11.4000,3.576
11.4400,3.573
11.4800,3.471
11.5200,3.415
11.5600,3.448
11.6000,3.521
11.6400,3.476
11.6800,3.448
11.7200,3.429
11.7600,3.461
11.8000,3.364
11.8400,3.552
11.8800,3.515
11.9200,3.399
11.9600,3.402
12.0000,3.561
12.0400,3.387
12.0800,3.411
12.1200,3.438
12.1600,3.369
12.2000,3.354
12.2400,3.379
12.2800,3.523
12.3200,3.421
12.3600,3.381
12.4000,3.301
12.4400,3.413
12.4800,3.496
12.5200,3.378
12.5600,3.348
12.6000,3.388
12.6400,3.292
12.6800,3.319
12.7200,3.324
12.7600,3.302
12.8000,3.309
12.8400,3.317
12.8800,3.352
12.9200,3.304
12.9600,3.329
13.0000,3.382
13.0400,3.355
13.0800,3.442
13.1200,3.303
13.1600,3.320
13.2000,3.465
13.2400,3.349
13.2800,3.245
13.3200,3.255
13.3600,3.216
13.4000,3.282
13.4400,3.302
13.4800,3.312
13.5200,3.378
13.5600,3.454
13.6000,3.234
13.6400,3.365
13.6800,3.349
13.7200,3.338
13.7600,3.311
13.8000,3.209
13.8400,3.313
13.8800,3.252
13.9200,3.203
13.9600,3.196
14.0000,3.317
14.0400,3.255
14.0800,3.191
14.1200,3.258
14.1600,3.219
14.2000,3.335
14.2400,3.339
14.2800,3.221
14.3200,3.234
14.3600,3.259
14.4000,3.223
14.4400,3.197
14.4800,3.211
14.5200,3.258
14.5600,3.232
14.6000,3.180
14.6400,3.182
14.6800,3.218
14.7200,3.292
14.7600,3.274
14.8000,3.137
14.8400,3.173
14.8800,3.098
14.9200,3.169
14.9600,3.233
15.0000,3.164
15.0400,3.192
15.0800,3.128
15.1200,3.181
15.1600,3.217
15.2000,3.271
15.2400,3.157
15.2800,3.215
15.3200,3.299
15.3600,3.262
15.4000,3.186
15.4400,3.216
15.4800,3.122
15.5200,3.208
15.5600,3.141
15.6000,3.194
15.6400,3.165
15.6800,3.083
15.7200,3.167
15.7600,3.117
15.8000,3.103
15.8400,3.241
15.8800,3.149
15.9200,3.163
15.9600,3.126
16.0000,3.155
16.0400,3.216
16.0800,3.169
16.1200,3.203
16.1600,3.153
16.2000,3.121
16.2400,3.156
16.2800,3.110
16.3200,3.054
16.3600,3.177
16.4000,3.133
16.4400,3.089
16.4800,3.087
16.5200,3.148
16.5600,3.078
16.6000,3.120
16.6400,3.111
16.6800,3.135
16.7200,3.033
16.7600,2.980
16.8000,3.107
16.8400,3.088
16.8800,3.099
16.9200,3.095
16.9600,2.981
17.0000,3.041
17.0400,2.984
17.0800,3.053
17.1200,3.051
17.1600,3.042
17.2000,3.050
17.2400,2.980
17.2800,2.951
17.3200,3.099
17.3600,2.941
17.4000,3.050
17.4400,2.949
17.4800,3.004
17.5200,2.980
17.5600,2.939
17.6000,3.011
17.6400,2.987
17.6800,3.084
17.7200,2.886
17.7600,2.963
17.8000,2.944
17.8400,3.000
17.8800,2.970
17.9200,2.826
17.9600,2.902
18.0000,2.901
18.0400,2.936
18.0800,2.959
18.1200,2.941
18.1600,2.967
18.2000,2.861
18.2400,2.880
18.2800,2.955
18.3200,2.914
18.3600,2.851
18.4000,2.915
18.4400,2.887
18.4800,2.876
18.5200,2.817
18.5600,2.982
18.6000,2.772
18.6400,2.793
18.6800,2.818
18.7200,2.844
18.7600,2.821
18.8000,2.826
18.8400,2.950
18.8800,2.922
18.9200,2.902
18.9600,2.878
19.0000,2.847
19.0400,2.826
19.0800,2.932
19.1200,2.830
19.1600,2.780
19.2000,2.885
19.2400,2.810
19.2800,2.803
19.3200,2.969
19.3600,2.844
19.4000,2.796
19.4400,2.745
19.4800,2.792
19.5200,2.792
19.5600,2.758
19.6000,2.744
19.6400,2.710
19.6800,2.826
19.7200,2.706
19.7600,2.805
19.8000,2.857
19.8400,2.751
19.8800,2.734
19.9200,2.684
19.9600,2.710
20.0000,2.782
20.0400,2.739
20.0800,2.750
20.1200,2.738
20.1600,2.778
20.2000,2.700
20.2400,2.640
20.2800,2.711
20.3200,2.651
20.3600,2.744
20.4000,2.762
20.4400,2.760
20.4800,2.694
20.5200,2.694
20.5600,2.722
20.6000,2.770
20.6400,2.688
20.6800,2.676
20.7200,2.629
20.7600,2.632
20.8000,2.742
20.8400,2.656
20.8800,2.790
20.9200,2.652
20.9600,2.595
21.0000,2.678
21.0400,2.658
21.0800,2.563
21.1200,2.642
21.1600,2.571
21.2000,2.661
21.2400,2.632
21.2800,2.666
21.3200,2.702
21.3600,2.692
21.4000,2.577
21.4400,2.644
21.4800,2.643
21.5200,2.663
21.5600,2.530
21.6000,2.571
21.6400,2.624
21.6800,2.599
21.7200,2.520
21.7600,2.629
21.8000,2.530
21.8400,2.614
21.8800,2.606
21.9200,2.516
21.9600,2.596
22.0000,2.560
22.0400,2.631
22.0800,2.506
22.1200,2.617
22.1600,2.520
22.2000,2.555
22.2400,2.521
22.2800,2.592
22.3200,2.506
22.3600,2.567
22.4000,2.546
22.4400,2.665
22.4800,2.474
22.5200,2.500
22.5600,2.469
22.6000,2.558
22.6400,2.508
22.6800,2.534
22.7200,2.590
22.7600,2.603
22.8000,2.511
22.8400,2.601
22.8800,2.446
22.9200,2.517
22.9600,2.535
23.0000,2.536
23.0400,2.489
23.0800,2.510
23.1200,2.511
23.1600,2.470
23.2000,2.409
23.2400,2.478
23.2800,2.509
23.3200,2.489
23.3600,2.496
23.4000,2.473
23.4400,2.518
23.4800,2.571
23.5200,2.505
23.5600,2.382
23.6000,2.415
23.6400,2.464
23.6800,2.475
23.7200,2.493
23.7600,2.513
23.8000,2.454
23.8400,2.396
23.8800,2.435
23.9200,2.488
23.9600,2.470
24.0000,2.350
24.0400,2.425
24.0800,2.438
24.1200,2.420
24.1600,2.396
24.2000,2.503
24.2400,2.429
24.2800,2.500
24.3200,2.483
24.3600,2.432
24.4000,2.479
24.4400,2.413
24.4800,2.421
24.5200,2.485
24.5600,2.369
24.6000,2.471
24.6400,2.406
24.6800,2.436
24.7200,2.438
24.7600,2.440
24.8000,2.479
24.8400,2.313
24.8800,2.446
24.9200,2.411
24.9600,2.419
25.0000,2.323
25.0400,2.378
25.0800,2.318
25.1200,2.460
25.1600,2.493
25.2000,2.344
25.2400,2.411
25.2800,2.318
25.3200,2.389
25.3600,2.360
25.4000,2.313
25.4400,2.307
25.4800,2.366
25.5200,2.282
25.5600,2.400
25.6000,2.306
25.6400,2.383
25.6800,2.354
25.7200,2.325
25.7600,2.391
25.8000,2.357
25.8400,2.391
25.8800,2.286
25.9200,2.392
25.9600,2.307
26.0000,2.323
26.0400,2.290
26.0800,2.220
26.1200,2.248
26.1600,2.203
26.2000,2.242
26.2400,2.302
26.2800,2.320
26.3200,2.328
26.3600,2.308
26.4000,2.269
26.4400,2.261
26.4800,2.259
26.5200,2.289
26.5600,2.304
26.6000,2.229
26.6400,2.236
26.6800,2.370
26.7200,2.286
26.7600,2.201
26.8000,2.241
26.8400,2.210
26.8800,2.219
26.9200,2.232
26.9600,2.286
27.0000,2.223
27.0400,2.214
27.0800,2.291
27.1200,2.216
27.1600,2.145
27.2000,2.175
27.2400,2.182
27.2800,2.141
27.3200,2.273
27.3600,2.227
27.4000,2.190
27.4400,2.182
27.4800,2.170
27.5200,2.195
27.5600,2.208
27.6000,2.228
27.6400,2.204
27.6800,2.272
27.7200,2.212
27.7600,2.220
27.8000,2.249
27.8400,2.309
27.8800,2.275
27.9200,2.203
27.9600,2.327
28.0000,2.242
28.0400,2.284
28.0800,2.310
28.1200,2.300
28.1600,2.239
28.2000,2.291
28.2400,2.243
28.2800,2.224
28.3200,2.291
28.3600,2.272
28.4000,2.424
28.4400,2.387
28.4800,2.275
28.5200,2.321
28.5600,2.333
28.6000,2.381
28.6400,2.395
28.6800,2.385
28.7200,2.273
28.7600,2.343
28.8000,2.418
28.8400,2.290
28.8800,2.227
28.9200,2.425
28.9600,2.262
29.0000,2.242
29.0400,2.272
29.0800,2.178
29.1200,2.207
29.1600,2.295
29.2000,2.171
29.2400,2.195
29.2800,2.158
29.3200,2.162
29.3600,2.193
29.4000,2.176
29.4400,2.093
29.4800,2.116
29.5200,2.141
29.5600,2.217
29.6000,2.070
29.6400,2.135
29.6800,2.045
29.7200,2.147
29.7600,2.060
29.8000,2.029
29.8400,2.077
29.8800,2.023
29.9200,2.025
29.9600,2.106
30.0000,2.070
30.0400,2.101
30.0800,2.052
30.1200,2.072
30.1600,1.997
30.2000,2.064
30.2400,2.023
30.2800,2.024
30.3200,2.050
30.3600,2.016
30.4000,2.095
30.4400,2.020
30.4800,2.075
30.5200,2.021
30.5600,2.053
30.6000,2.041
30.6400,1.973
30.6800,1.919
30.7200,2.045
30.7600,1.892
30.8000,1.957
30.8400,2.019
30.8800,1.881
30.9200,1.911
30.9600,1.876
31.0000,1.939
31.0400,1.981
31.0800,1.925
31.1200,1.990
31.1600,1.896
31.2000,1.983
31.2400,1.978
31.2800,1.892
31.3200,1.992
31.3600,1.914
31.4000,1.967
31.4400,1.891
31.4800,1.939
31.5200,1.983
31.5600,1.871
31.6000,1.931
31.6400,1.876
31.6800,1.885
31.7200,1.948
31.7600,1.955
31.8000,1.865
31.8400,2.038
31.8800,2.440
31.9200,2.421
31.9600,2.281
32.0000,2.220
32.0400,1.953
32.0800,2.021
32.1200,1.871
32.1600,1.849
32.2000,1.871
32.2400,2.008
32.2800,1.961
32.3200,2.024
32.3600,1.965
32.4000,1.957
32.4400,2.066
32.4800,2.091
32.5200,2.086
32.5600,2.145
32.6000,2.190
32.6400,2.235
32.6800,2.363
32.7200,2.602
32.7600,2.740
32.8000,3.089
32.8400,3.505
32.8800,4.549
32.9200,5.890
32.9600,8.469
33.0000,12.290
33.0400,16.945
33.0800,20.146
33.1200,20.576
33.1600,17.824
33.2000,13.736
33.2400,9.950
33.2800,6.859
33.3200,4.916
33.3600,3.757
33.4000,3.135
33.4400,2.770
33.4800,2.520
33.5200,2.275
33.5600,2.230
33.6000,2.125
33.6400,2.067
33.6800,2.067
33.7200,1.954
33.7600,1.923
33.8000,1.985
33.8400,1.887
33.8800,1.857
33.9200,1.878
33.9600,1.882
34.0000,1.820
34.0400,1.824
34.0800,1.816
34.1200,1.815
34.1600,1.781
34.2000,1.748
34.2400,1.709
34.2800,1.747
34.3200,1.738
34.3600,1.688
34.4000,1.720
34.4400,1.679
34.4800,1.690
34.5200,1.693
34.5600,1.630
34.6000,1.647
34.6400,1.671
34.6800,1.685
34.7200,1.613
34.7600,1.697
34.8000,1.902
34.8400,1.990
34.8800,1.732
34.9200,1.783
34.9600,1.663
35.0000,1.606
35.0400,1.604
35.0800,1.711
35.1200,1.563
35.1600,1.615
35.2000,1.600
35.2400,1.577
35.2800,1.644
35.3200,1.560
35.3600,1.597
35.4000,1.509
35.4400,1.591
35.4800,1.579
35.5200,1.531
35.5600,1.518
35.6000,1.560
35.6400,1.530
35.6800,1.580
35.7200,1.600
35.7600,1.504
35.8000,1.560
35.8400,1.474
35.8800,1.504
35.9200,1.546
35.9600,1.582
36.0000,1.565
36.0400,1.553
36.0800,1.478
36.1200,1.557
36.1600,1.540
36.2000,1.501
36.2400,1.582
36.2800,1.488
36.3200,1.503
36.3600,1.487
36.4000,1.478
36.4400,1.435
36.4800,1.487
36.5200,1.476
36.5600,1.497
36.6000,1.567
36.6400,1.545
36.6800,1.417
36.7200,1.532
36.7600,1.517
36.8000,1.487
36.8400,1.506
36.8800,1.408
36.9200,1.497
36.9600,1.444
37.0000,1.538
37.0400,1.463
37.0800,1.561
37.1200,1.433
37.1600,1.438
37.2000,1.484
37.2400,1.550
37.2800,1.467
37.3200,1.484
37.3600,1.554
37.4000,1.628
37.4400,1.483
37.4800,1.533
37.5200,1.540
37.5600,1.567
37.6000,1.607
37.6400,1.590
37.6800,1.652
37.7200,1.614
37.7600,1.644
37.8000,1.754
37.8400,1.718
37.8800,1.749
37.9200,1.841
37.9600,1.949
38.0000,2.118
38.0400,2.258
38.0800,2.569
38.1200,3.133
38.1600,3.824
38.2000,5.073
38.2400,6.634
38.2800,9.433
38.3200,12.712
38.3600,15.329
38.4000,16.479
38.4400,15.914
38.4800,14.075
38.5200,10.764
38.5600,8.104
38.6000,5.771
38.6400,4.246
38.6800,3.330
38.7200,2.761
38.7600,2.352
38.8000,2.157
38.8400,1.968
38.8800,1.946
38.9200,1.731
38.9600,1.629
39.0000,1.618
39.0400,1.552
39.0800,1.501
39.1200,1.496
39.1600,1.464
39.2000,1.521
39.2400,1.490
39.2800,1.471
39.3200,1.408
39.3600,1.450
39.4000,1.408
39.4400,1.473
39.4800,1.365
39.5200,1.364
39.5600,1.338
39.6000,1.310
39.6400,1.337
39.6800,1.341
39.7200,1.403
39.7600,1.320
39.8000,1.297
39.8400,1.357
39.8800,1.358
39.9200,1.308
39.9600,1.327
40.0000,1.278
40.0400,1.275
40.0800,1.332
40.1200,1.228
40.1600,1.294
40.2000,1.345
40.2400,1.254
40.2800,1.283
40.3200,1.224
40.3600,1.266
40.4000,1.245
40.4400,1.271
40.4800,1.274
40.5200,1.236
40.5600,1.233
40.6000,1.307
40.6400,1.222
40.6800,1.204
40.7200,1.179
40.7600,1.237
40.8000,1.145
40.8400,1.181
40.8800,1.321
40.9200,1.184
40.9600,1.194
41.0000,1.200
41.0400,1.158
41.0800,1.256
41.1200,1.222
41.1600,1.186
41.2000,1.153
41.2400,1.223
41.2800,1.222
41.3200,1.199
41.3600,1.268
41.4000,1.187
41.4400,1.132
41.4800,1.134
41.5200,1.196
41.5600,1.185
41.6000,1.197
41.6400,1.171
41.6800,1.105
41.7200,1.166
41.7600,1.210
41.8000,1.145
41.8400,1.101
41.8800,1.158
41.9200,1.136
41.9600,1.179
42.0000,1.185
42.0400,1.147
42.0800,1.160
42.1200,1.140
42.1600,1.159
42.2000,1.186
42.2400,1.125
42.2800,1.192
42.3200,1.142
42.3600,1.187
42.4000,1.162
42.4400,1.093
42.4800,1.108
42.5200,1.109
42.5600,1.109
42.6000,1.141
42.6400,1.166
42.6800,1.121
42.7200,1.075
42.7600,1.098
42.8000,1.127
42.8400,1.131
42.8800,1.106
42.9200,1.160
42.9600,1.129
43.0000,1.165
43.0400,1.131
43.0800,1.086
43.1200,1.073
43.1600,1.095
43.2000,1.152
43.2400,1.136
43.2800,1.143
43.3200,1.107
43.3600,1.102
43.4000,1.131
43.4400,1.174
43.4800,1.133
43.5200,1.099
43.5600,1.169
43.6000,1.115
43.6400,1.075
43.6800,1.137
43.7200,1.149
43.7600,1.088
43.8000,1.096
43.8400,1.051
43.8800,1.014
43.9200,1.047
43.9600,1.075
44.0000,1.055
44.0400,1.078
44.0800,1.079
44.1200,1.136
44.1600,1.049
44.2000,1.059
44.2400,1.075
44.2800,1.041
44.3200,1.033
44.3600,1.033
44.4000,1.028
44.4400,1.115
44.4800,1.108
44.5200,1.029
44.5600,1.054
44.6000,1.064
44.6400,1.044
44.6800,1.029
44.7200,1.075
44.7600,1.082
44.8000,1.041
44.8400,1.015
44.8800,0.999
44.9200,1.004
44.9600,1.027
45.0000,0.989
45.0400,1.087
45.0800,1.042
45.1200,1.059
45.1600,1.012
45.2000,0.985
45.2400,0.947
45.2800,0.993
45.3200,0.983
45.3600,1.067
45.4000,1.034
45.4400,1.023
45.4800,1.030
45.5200,0.949
45.5600,0.976
45.6000,1.033
45.6400,1.000
45.6800,0.931
45.7200,0.970
45.7600,1.004
45.8000,0.936
45.8400,1.025
45.8800,0.961
45.9200,0.956
45.9600,1.021
46.0000,0.941
46.0400,1.027
46.0800,1.016
46.1200,0.976
46.1600,0.909
46.2000,0.979
46.2400,0.951
46.2800,0.998
46.3200,1.022
46.3600,0.935
46.4000,0.935
46.4400,0.930
46.4800,0.863
46.5200,0.990
46.5600,0.994
46.6000,1.041
46.6400,0.955
46.6800,0.917
46.7200,0.912
46.7600,0.968
46.8000,0.968
46.8400,0.935
46.8800,0.972
46.9200,0.925
46.9600,0.913
47.0000,0.922
47.0400,0.984
47.0800,0.986
47.1200,0.976
47.1600,0.879
47.2000,0.911
47.2400,0.928
47.2800,0.931
47.3200,0.984
47.3600,0.951
47.4000,0.858
47.4400,0.912
47.4800,0.985
47.5200,0.868
47.5600,0.895
47.6000,0.946
47.6400,0.983
47.6800,0.908
47.7200,0.919
47.7600,0.879
47.8000,0.905
47.8400,0.915
47.8800,0.963
47.9200,0.975
47.9600,0.947
48.0000,0.931
48.0400,0.925
48.0800,0.915
48.1200,0.905
48.1600,0.965
48.2000,0.909
48.2400,0.922
48.2800,0.894
48.3200,0.919
48.3600,0.884
48.4000,0.925
48.4400,0.895
48.4800,0.869
48.5200,0.943
48.5600,0.871
48.6000,0.886
48.6400,0.890
48.6800,0.883
48.7200,0.892
48.7600,0.848
48.8000,0.859
48.8400,0.887
48.8800,0.944
48.9200,0.898
48.9600,0.899
49.0000,0.854
49.0400,0.910
49.0800,0.872
49.1200,0.870
49.1600,0.938
49.2000,0.906
49.2400,0.895
49.2800,0.876
49.3200,0.908
49.3600,0.851
49.4000,0.857
49.4400,0.804
49.4800,0.879
49.5200,0.892
49.5600,0.886
49.6000,0.863
49.6400,0.846
49.6800,0.879
49.7200,0.881
49.7600,0.869
49.8000,0.863
49.8400,0.885
49.8800,0.880
49.9200,0.881
49.9600,0.878
50.0000,0.824
50.0400,0.925
50.0800,0.901
50.1200,0.837
50.1600,0.862
50.2000,0.841
50.2400,0.876
50.2800,0.857
50.3200,0.814
50.3600,0.812
50.4000,0.811
50.4400,0.840
50.4800,0.845
50.5200,0.821
50.5600,0.822
50.6000,0.803
50.6400,0.834
50.6800,0.880
50.7200,0.860
50.7600,0.806
50.8000,0.840
50.8400,0.860
50.8800,0.825
50.9200,0.784
50.9600,0.863
51.0000,0.795
51.0400,0.827
51.0800,0.842
51.1200,0.884
51.1600,0.900
51.2000,0.792
51.2400,0.847
51.2800,0.806
51.3200,0.790
51.3600,0.838
51.4000,0.780
51.4400,0.821
51.4800,0.779
51.5200,0.769
51.5600,0.798
51.6000,0.802
51.6400,0.793
51.6800,0.798
51.7200,0.756
51.7600,0.757
51.8000,0.803
51.8400,0.743
51.8800,0.794
51.9200,0.810
51.9600,0.760
52.0000,0.793
52.0400,0.773
52.0800,0.787
52.1200,0.783
52.1600,0.796
52.2000,0.824
52.2400,0.752
52.2800,0.760
52.3200,0.796
52.3600,0.815
52.4000,0.800
52.4400,0.807
52.4800,0.768
52.5200,0.807
52.5600,0.772
52.6000,0.783
52.6400,0.781
52.6800,0.824
52.7200,0.823
52.7600,0.786
52.8000,0.786
52.8400,0.763
52.8800,0.782
52.9200,0.757
52.9600,0.755
53.0000,0.801
53.0400,0.807
53.0800,0.815
53.1200,0.767
53.1600,0.783
53.2000,0.763
53.2400,0.779
53.2800,0.761
53.3200,0.784
53.3600,0.768
53.4000,0.756
53.4400,0.803
53.4800,0.793
53.5200,0.775
53.5600,0.716
53.6000,0.806
53.6400,0.703
53.6800,0.765
53.7200,0.718
53.7600,0.730
53.8000,0.796
53.8400,0.757
53.8800,0.716
53.9200,0.745
53.9600,0.777
54.0000,0.771
54.0400,0.792
54.0800,0.703
54.1200,0.727
54.1600,0.763
54.2000,0.768
54.2400,0.778
54.2800,0.760
54.3200,0.757
54.3600,0.847
54.4000,0.835
54.4400,0.774
54.4800,0.814
54.5200,0.802
54.5600,0.784
54.6000,0.848
54.6400,0.861
54.6800,0.866
54.7200,0.837
54.7600,0.882
54.8000,0.929
54.8400,0.955
54.8800,1.073
54.9200,1.075
54.9600,1.156
55.0000,1.329
55.0400,1.540
55.0800,1.811
55.1200,2.146
55.1600,2.706
55.2000,3.431
55.2400,4.484
55.2800,5.572
55.3200,6.866
55.3600,7.014
55.4000,6.849
55.4400,6.366
55.4800,5.667
55.5200,4.899
55.5600,4.128
55.6000,3.122
55.6400,2.611
55.6800,2.020
55.7200,1.733
55.7600,1.466
55.8000,1.284
55.8400,1.155
55.8800,1.038
55.9200,1.005
55.9600,0.936
56.0000,0.869
56.0400,0.884
56.0800,0.848
56.1200,0.798
56.1600,0.817
56.2000,0.767
56.2400,0.770
56.2800,0.763
56.3200,0.785
56.3600,0.777
56.4000,0.717
56.4400,0.747
56.4800,0.747
56.5200,0.739
56.5600,0.744
56.6000,0.732
56.6400,0.705
56.6800,0.677
56.7200,0.673
56.7600,0.754
56.8000,0.665
56.8400,0.674
56.8800,0.709
56.9200,0.699
56.9600,0.626
57.0000,0.680
57.0400,0.672
57.0800,0.680
57.1200,0.671
57.1600,0.671
57.2000,0.686
57.2400,0.693
57.2800,0.712
57.3200,0.736
57.3600,0.612
57.4000,0.659
57.4400,0.682
57.4800,0.704
57.5200,0.703
57.5600,0.677
57.6000,0.732
57.6400,0.641
57.6800,0.650
57.7200,0.670
57.7600,0.627
57.8000,0.613
57.8400,0.645
57.8800,0.642
57.9200,0.640
57.9600,0.599
58.0000,0.638
58.0400,0.656
58.0800,0.638
58.1200,0.618
58.1600,0.653
58.2000,0.661
58.2400,0.656
58.2800,0.648
58.3200,0.600
58.3600,0.624
58.4000,0.640
58.4400,0.676
58.4800,0.643
58.5200,0.598
58.5600,0.588
58.6000,0.638
58.6400,0.612
58.6800,0.577
58.7200,0.602
58.7600,0.633
58.8000,0.615
58.8400,0.634
58.8800,0.656
58.9200,0.585
58.9600,0.603
59.0000,0.628
59.0400,0.589
59.0800,0.590
59.1200,0.604
59.1600,0.668
59.2000,0.623
59.2400,0.604
59.2800,0.590
59.3200,0.589
59.3600,0.625
59.4000,0.595
59.4400,0.565
59.4800,0.601
59.5200,0.580
59.5600,0.636
59.6000,0.562
59.6400,0.667
59.6800,0.597
59.7200,0.618
59.7600,0.566
59.8000,0.557
59.8400,0.555
59.8800,0.597
59.9200,0.581
59.9600,0.608
60.0000,0.603
60.0400,0.580
60.0800,0.612
60.1200,0.627
60.1600,0.556
60.2000,0.533
60.2400,0.570
60.2800,0.630
60.3200,0.588
60.3600,0.609
60.4000,0.555
60.4400,0.548
60.4800,0.568
60.5200,0.581
60.5600,0.596
60.6000,0.570
60.6400,0.526
60.6800,0.552
60.7200,0.558
60.7600,0.587
60.8000,0.570
60.8400,0.557
60.8800,0.621
60.9200,0.557
60.9600,0.583
61.0000,0.515
61.0400,0.580
61.0800,0.534
61.1200,0.606
61.1600,0.610
61.2000,0.638
61.2400,0.577
61.2800,0.550
61.3200,0.583
61.3600,0.562
61.4000,0.549
61.4400,0.561
61.4800,0.543
61.5200,0.504
61.5600,0.574
61.6000,0.516
61.6400,0.504
61.6800,0.541
61.7200,0.529
61.7600,0.531
61.8000,0.564
61.8400,0.499
61.8800,0.525
61.9200,0.555
61.9600,0.501
62.0000,0.503
62.0400,0.504
62.0800,0.587
62.1200,0.523
62.1600,0.519
62.2000,0.496
62.2400,0.522
62.2800,0.524
62.3200,0.574
62.3600,0.608
62.4000,0.513
62.4400,0.528
62.4800,0.543
62.5200,0.565
62.5600,0.560
62.6000,0.520
62.6400,0.492
62.6800,0.499
62.7200,0.511
62.7600,0.514
62.8000,0.495
62.8400,0.499
62.8800,0.524
62.9200,0.511
62.9600,0.522
63.0000,0.500
63.0400,0.527
63.0800,0.512
63.1200,0.491
63.1600,0.504
63.2000,0.508
63.2400,0.497
63.2800,0.502
63.3200,0.524
63.3600,0.534
63.4000,0.492
63.4400,0.476
63.4800,0.483
63.5200,0.471
63.5600,0.468
63.6000,0.461
63.6400,0.489
63.6800,0.510
63.7200,0.467
63.7600,0.478
63.8000,0.477
63.8400,0.513
63.8800,0.475
63.9200,0.494
63.9600,0.479
64.0000,0.494
64.0400,0.501
64.0800,0.487
64.1200,0.515
64.1600,0.485
64.2000,0.486
64.2400,0.476
64.2800,0.521
64.3200,0.527
64.3600,0.492
64.4000,0.511
64.4400,0.447
64.4800,0.446
64.5200,0.470
64.5600,0.500
64.6000,0.526
64.6400,0.458
64.6800,0.490
64.7200,0.511
64.7600,0.481
64.8000,0.509
64.8400,0.531
64.8800,0.498
64.9200,0.502
64.9600,0.516
65.0000,0.548
65.0400,0.550
65.0800,0.523
65.1200,0.532
65.1600,0.500
65.2000,0.519
65.2400,0.521
65.2800,0.553
65.3200,0.605
65.3600,0.593
65.4000,0.617
65.4400,0.676
65.4800,0.628
65.5200,0.723
65.5600,0.787
65.6000,0.833
65.6400,0.949
65.6800,1.065
65.7200,1.273
65.7600,1.496
65.8000,1.930
65.8400,2.387
65.8800,2.820
65.9200,3.304
65.9600,3.787
66.0000,3.857
66.0400,3.669
66.0800,3.532
66.1200,3.163
66.1600,2.943
66.2000,2.551
66.2400,2.088
66.2800,1.803
66.3200,1.433
66.3600,1.184
66.4000,0.963
66.4400,0.951
66.4800,0.838
66.5200,0.787
66.5600,0.747
66.6000,0.661
66.6400,0.659
66.6800,0.593
66.7200,0.607
66.7600,0.578
66.8000,0.576
66.8400,0.588
66.8800,0.553
66.9200,0.493
66.9600,0.492
67.0000,0.524
67.0400,0.498
67.0800,0.461
67.1200,0.467
67.1600,0.446
67.2000,0.457
67.2400,0.443
67.2800,0.487
67.3200,0.486
67.3600,0.468
67.4000,0.389
67.4400,0.462
67.4800,0.436
67.5200,0.442
67.5600,0.422
67.6000,0.426
67.6400,0.470
67.6800,0.471
67.7200,0.426
67.7600,0.445
67.8000,0.460
67.8400,0.414
67.8800,0.396
67.9200,0.473
67.9600,0.402
68.0000,0.401
68.0400,0.420
68.0800,0.424
68.1200,0.393
68.1600,0.417
68.2000,0.421
68.2400,0.444
68.2800,0.398
68.3200,0.435
68.3600,0.404
68.4000,0.447
68.4400,0.449
68.4800,0.460
68.5200,0.462
68.5600,0.445
68.6000,0.415
68.6400,0.448
68.6800,0.466
68.7200,0.473
68.7600,0.489
68.8000,0.467
68.8400,0.534
68.8800,0.589
68.9200,0.519
68.9600,0.574
69.0000,0.667
69.0400,0.725
69.0800,0.827
69.1200,0.923
69.1600,1.191
69.2000,1.385
69.2400,1.654
69.2800,1.794
69.3200,1.877
69.3600,1.922
69.4000,1.713
69.4400,1.586
69.4800,1.447
69.5200,1.328
69.5600,1.180
69.6000,1.054
69.6400,0.887
69.6800,0.733
69.7200,0.676
69.7600,0.583
69.8000,0.525
69.8400,0.484
69.8800,0.458
69.9200,0.430
69.9600,0.451
70.0000,0.401
70.0400,0.397
70.0800,0.475
70.1200,0.430
70.1600,0.395
70.2000,0.419
70.2400,0.389
70.2800,0.390
70.3200,0.410
70.3600,0.383
70.4000,0.400
70.4400,0.418
70.4800,0.392
70.5200,0.402
70.5600,0.414
70.6000,0.338
70.6400,0.386
70.6800,0.382
70.7200,0.408
70.7600,0.410
70.8000,0.388
70.8400,0.383
70.8800,0.412
70.9200,0.366
70.9600,0.395
71.0000,0.345
71.0400,0.393
71.0800,0.343
71.1200,0.341
71.1600,0.340
71.2000,0.371
71.2400,0.354
71.2800,0.370
71.3200,0.359
71.3600,0.318
71.4000,0.376
71.4400,0.368
71.4800,0.328
71.5200,0.397
71.5600,0.371
71.6000,0.337
71.6400,0.364
71.6800,0.434
71.7200,0.480
71.7600,0.472
71.8000,0.392
71.8400,0.366
71.8800,0.402
71.9200,0.445
71.9600,0.416
72.0000,0.364
72.0400,0.343
72.0800,0.313
72.1200,0.358
72.1600,0.333
72.2000,0.337
72.2400,0.347
72.2800,0.354
72.3200,0.370
72.3600,0.376
72.4000,0.342
72.4400,0.362
72.4800,0.340
72.5200,0.324
72.5600,0.345
72.6000,0.338
72.6400,0.369
72.6800,0.318
72.7200,0.308
72.7600,0.331
72.8000,0.304
72.8400,0.336
72.8800,0.326
72.9200,0.309
72.9600,0.342
73.0000,0.352
73.0400,0.346
73.0800,0.357
73.1200,0.319
73.1600,0.324
73.2000,0.361
73.2400,0.307
73.2800,0.324
73.3200,0.368
73.3600,0.374
73.4000,0.383
73.4400,0.351
73.4800,0.369
73.5200,0.325
73.5600,0.357
73.6000,0.347
73.6400,0.322
73.6800,0.339
73.7200,0.336
73.7600,0.323
73.8000,0.318
73.8400,0.329
73.8800,0.320
73.9200,0.343
73.9600,0.319
74.0000,0.333
74.0400,0.328
74.0800,0.319
74.1200,0.339
74.1600,0.289
74.2000,0.299
74.2400,0.320
74.2800,0.324
74.3200,0.375
74.3600,0.348
74.4000,0.312
74.4400,0.326
74.4800,0.358
74.5200,0.323
74.5600,0.332
74.6000,0.317
74.6400,0.349
74.6800,0.343
74.7200,0.331
74.7600,0.333
74.8000,0.308
74.8400,0.309
74.8800,0.293
74.9200,0.303
74.9600,0.345
75.0000,0.301
75.0400,0.317
75.0800,0.338
75.1200,0.285
75.1600,0.322
75.2000,0.312
75.2400,0.315
75.2800,0.311
75.3200,0.327
75.3600,0.336
75.4000,0.326
75.4400,0.321
75.4800,0.307
75.5200,0.314
75.5600,0.361
75.6000,0.373
75.6400,0.391
75.6800,0.417
75.7200,0.352
75.7600,0.299
75.8000,0.301
75.8400,0.354
75.8800,0.358
75.9200,0.335
75.9600,0.334
76.0000,0.343
76.0400,0.328
76.0800,0.331
76.1200,0.295
76.1600,0.327
76.2000,0.296
76.2400,0.333
76.2800,0.302
76.3200,0.281
76.3600,0.300
76.4000,0.282
76.4400,0.328
76.4800,0.302
76.5200,0.285
76.5600,0.322
76.6000,0.308
76.6400,0.308
76.6800,0.331
76.7200,0.327
76.7600,0.301
76.8000,0.313
76.8400,0.297
76.8800,0.321
76.9200,0.281
76.9600,0.324
77.0000,0.329
77.0400,0.332
77.0800,0.316
77.1200,0.320
77.1600,0.277
77.2000,0.341
77.2400,0.323
77.2800,0.291
77.3200,0.333
77.3600,0.298
77.4000,0.302
77.4400,0.304
77.4800,0.304
77.5200,0.314
77.5600,0.283
77.6000,0.293
77.6400,0.306
77.6800,0.318
77.7200,0.287
77.7600,0.258
77.8000,0.309
77.8400,0.319
77.8800,0.328
77.9200,0.316
77.9600,0.283
78.0000,0.281
78.0400,0.292
78.0800,0.306
78.1200,0.302
78.1600,0.272
78.2000,0.294
78.2400,0.317
78.2800,0.307
78.3200,0.305
78.3600,0.297
78.4000,0.328
78.4400,0.292
78.4800,0.291
78.5200,0.309
78.5600,0.301
78.6000,0.287
78.6400,0.319
78.6800,0.277
78.7200,0.314
78.7600,0.318
78.8000,0.306
78.8400,0.283
78.8800,0.297
78.9200,0.293
78.9600,0.284
79.0000,0.276
79.0400,0.262
79.0800,0.337
79.1200,0.308
79.1600,0.301
79.2000,0.310
79.2400,0.257
79.2800,0.282
79.3200,0.301
79.3600,0.303
79.4000,0.287
79.4400,0.292
79.4800,0.288
79.5200,0.309
79.5600,0.280
79.6000,0.302
79.6400,0.281
79.6800,0.304
79.7200,0.316
79.7600,0.289
79.8000,0.309
79.8400,0.271
79.8800,0.316
79.9200,0.307
79.9600,0.276
80.0000,0.276
