theta,intensity
5.0000,2.178
5.0400,2.271
5.0800,2.249
5.1200,2.260
5.1600,2.244
5.2000,2.295
5.2400,2.272
5.2800,2.258
5.3200,2.266
5.3600,2.231
5.4000,2.248
5.4400,2.225
5.4800,2.231
5.5200,2.207
5.5600,2.185
5.6000,2.022
5.6400,2.189
5.6800,2.210
5.7200,2.126
5.7600,2.064
5.8000,2.021
5.8400,2.090
5.8800,2.079
5.9200,2.058
5.9600,2.053
6.0000,2.015
6.0400,2.014
6.0800,1.940
6.1200,1.961
6.1600,1.943
6.2000,1.914
6.2400,1.894
6.2800,1.917
6.3200,1.903
6.3600,1.829
6.4000,1.841
6.4400,1.838
6.4800,1.779
6.5200,1.832
6.5600,1.739
6.6000,1.744
6.6400,1.704
6.6800,1.682
6.7200,1.741
6.7600,1.674
6.8000,1.705
6.8400,1.645
6.8800,1.668
6.9200,1.655
6.9600,1.638
7.0000,1.593
7.0400,1.645
7.0800,1.616
7.1200,1.634
7.1600,1.588
7.2000,1.569
7.2400,1.537
7.2800,1.569
7.3200,1.562
7.3600,1.508
7.4000,1.581
7.4400,1.528
7.4800,1.545
7.5200,1.543
7.5600,1.529
7.6000,1.558
7.6400,1.490
7.6800,1.548
7.7200,1.486
7.7600,1.520
7.8000,1.556
7.8400,1.550
7.8800,1.569
7.9200,1.516
7.9600,1.515
8.0000,1.514
8.0400,1.538
8.0800,1.487
8.1200,1.523
8.1600,1.521
8.2000,1.481
8.2400,1.513
8.2800,1.468
8.3200,1.455
8.3600,1.506
8.4000,1.447
8.4400,1.489
8.4800,1.491
8.5200,1.516
8.5600,1.450
8.6000,1.539
8.6400,1.481
8.6800,1.471
8.7200,1.492
8.7600,1.463
8.8000,1.501
8.8400,1.443
8.8800,1.458
8.9200,1.462
8.9600,1.484
9.0000,1.457
9.0400,1.477
9.0800,1.451
9.1200,1.491
9.1600,1.428
9.2000,1.444
9.2400,1.482
9.2800,1.424
9.3200,1.447
9.3600,1.483
9.4000,1.417
9.4400,1.437
9.4800,1.475
9.5200,1.425
9.5600,1.483
9.6000,1.481
9.6400,1.449
9.6800,1.485
9.7200,1.423
9.7600,1.424
9.8000,1.454
9.8400,1.455
9.8800,1.456
9.9200,1.379
9.9600,1.468
10.0000,1.438
10.0400,1.392
10.0800,1.447
10.1200,1.448
10.1600,1.406
10.2000,1.393
10.2400,1.400
10.2800,1.464
10.3200,1.438
10.3600,1.461
10.4000,1.445
10.4400,1.419
10.4800,1.416
10.5200,1.430
10.5600,1.429
10.6000,1.434
10.6400,1.423
10.6800,1.447
10.7200,1.397
10.7600,1.421
10.8000,1.439
10.8400,1.386
10.8800,1.466
10.9200,1.448
10.9600,1.413
11.0000,1.448
11.0400,1.413
11.0800,1.445
11.1200,1.424
11.1600,1.414
11.2000,1.355
11.2400,1.378
11.2800,1.387
11.3200,1.402
11.3600,1.411
11.4000,1.409
11.4400,1.419
11.4800,1.386
11.5200,1.439
11.5600,1.430
11.6000,1.383
11.6400,1.360
11.6800,1.374
11.7200,1.365
11.7600,1.448
11.8000,1.330
11.8400,1.320
11.8800,1.404
11.9200,1.382
11.9600,1.390
12.0000,1.435
12.0400,1.406
12.0800,1.394
12.1200,1.324
12.1600,1.368
12.2000,1.339
12.2400,1.354
12.2800,1.379
12.3200,1.383
12.3600,1.325
12.4000,1.359
12.4400,1.342
12.4800,1.347
12.5200,1.351
12.5600,1.352
12.6000,1.360
12.6400,1.315
12.6800,1.388
12.7200,1.338
12.7600,1.371
12.8000,1.377
12.8400,1.347
12.8800,1.382
12.9200,1.404
12.9600,1.383
13.0000,1.337
13.0400,1.391
13.0800,1.407
13.1200,1.351
13.1600,1.334
13.2000,1.296
13.2400,1.351
13.2800,1.347
13.3200,1.385
13.3600,1.378
13.4000,1.339
13.4400,1.337
13.4800,1.337
13.5200,1.323
13.5600,1.345
13.6000,1.292
13.6400,1.308
13.6800,1.342
13.7200,1.371
13.7600,1.316
13.8000,1.346
13.8400,1.300
13.8800,1.317
13.9200,1.348
13.9600,1.372
14.0000,1.369
14.0400,1.335
14.0800,1.273
14.1200,1.325
14.1600,1.353
14.2000,1.346
14.2400,1.362
14.2800,1.305
14.3200,1.312
14.3600,1.304
14.4000,1.320
14.4400,1.356
14.4800,1.309
14.5200,1.268
14.5600,1.315
14.6000,1.338
14.6400,1.308
14.6800,1.330
14.7200,1.341
14.7600,1.305
14.8000,1.330
14.8400,1.298
14.8800,1.297
14.9200,1.349
14.9600,1.361
15.0000,1.296
15.0400,1.342
15.0800,1.321
15.1200,1.327
15.1600,1.360
15.2000,1.317
15.2400,1.301
15.2800,1.293
15.3200,1.293
15.3600,1.300
15.4000,1.313
15.4400,1.274
15.4800,1.302
15.5200,1.293
15.5600,1.334
15.6000,1.312
15.6400,1.290
15.6800,1.324
15.7200,1.213
15.7600,1.274
15.8000,1.310
15.8400,1.279
15.8800,1.315
15.9200,1.311
15.9600,1.282
16.0000,1.267
16.0400,1.264
16.0800,1.305
16.1200,1.281
16.1600,1.343
16.2000,1.294
16.2400,1.308
16.2800,1.253
16.3200,1.287
16.3600,1.308
16.4000,1.263
16.4400,1.261
16.4800,1.262
16.5200,1.311
16.5600,1.316
16.6000,1.351
16.6400,1.242
16.6800,1.286
16.7200,1.347
16.7600,1.330
16.8000,1.331
16.8400,1.253
16.8800,1.272
16.9200,1.287
16.9600,1.264
17.0000,1.298
17.0400,1.305
17.0800,1.321
17.1200,1.308
17.1600,1.332
17.2000,1.301
17.2400,1.303
17.2800,1.387
17.3200,1.309
17.3600,1.283
17.4000,1.260
17.4400,1.283
17.4800,1.272
17.5200,1.343
17.5600,1.267
17.6000,1.309
17.6400,1.273
17.6800,1.261
17.7200,1.350
17.7600,1.268
17.8000,1.299
17.8400,1.306
17.8800,1.287
17.9200,1.279
17.9600,1.229
18.0000,1.278
18.0400,1.303
18.0800,1.326
18.1200,1.283
18.1600,1.271
18.2000,1.248
18.2400,1.282
18.2800,1.298
18.3200,1.301
18.3600,1.280
18.4000,1.248
18.4400,1.283
18.4800,1.235
18.5200,1.302
18.5600,1.354
18.6000,1.303
18.6400,1.264
18.6800,1.323
18.7200,1.297
18.7600,1.318
18.8000,1.266
18.8400,1.312
18.8800,1.295
18.9200,1.239
18.9600,1.241
19.0000,1.294
19.0400,1.322
19.0800,1.281
19.1200,1.260
19.1600,1.280
19.2000,1.298
19.2400,1.269
19.2800,1.283
19.3200,1.293
19.3600,1.325
19.4000,1.303
19.4400,1.286
19.4800,1.276
19.5200,1.286
19.5600,1.303
19.6000,1.262
19.6400,1.291
19.6800,1.270
19.7200,1.286
19.7600,1.230
19.8000,1.236
19.8400,1.245
19.8800,1.253
19.9200,1.321
19.9600,1.325
20.0000,1.282
20.0400,1.318
20.0800,1.225
20.1200,1.311
20.1600,1.258
20.2000,1.317
20.2400,1.294
20.2800,1.304
20.3200,1.311
20.3600,1.268
20.4000,1.288
20.4400,1.312
20.4800,1.289
20.5200,1.314
20.5600,1.299
20.6000,1.288
20.6400,1.262
20.6800,1.273
20.7200,1.218
20.7600,1.305
20.8000,1.298
20.8400,1.280
20.8800,1.284
20.9200,1.230
20.9600,1.267
21.0000,1.330
21.0400,1.293
21.0800,1.253
21.1200,1.300
21.1600,1.278
21.2000,1.279
21.2400,1.249
21.2800,1.272
21.3200,1.242
21.3600,1.279
21.4000,1.272
21.4400,1.236
21.4800,1.252
21.5200,1.270
21.5600,1.292
21.6000,1.230
21.6400,1.268
21.6800,1.316
21.7200,1.288
21.7600,1.187
21.8000,1.223
21.8400,1.252
21.8800,1.235
21.9200,1.266
21.9600,1.284
22.0000,1.292
22.0400,1.245
22.0800,1.256
22.1200,1.245
22.1600,1.258
22.2000,1.293
22.2400,1.221
22.2800,1.260
22.3200,1.197
22.3600,1.240
22.4000,1.235
22.4400,1.251
22.4800,1.265
22.5200,1.237
22.5600,1.215
22.6000,1.266
22.6400,1.202
22.6800,1.206
22.7200,1.217
22.7600,1.224
22.8000,1.217
22.8400,1.233
22.8800,1.233
22.9200,1.210
22.9600,1.248
23.0000,1.200
23.0400,1.229
23.0800,1.199
23.1200,1.198
23.1600,1.179
23.2000,1.175
23.2400,1.215
23.2800,1.203
23.3200,1.175
23.3600,1.217
23.4000,1.220
23.4400,1.257
23.4800,1.246
23.5200,1.261
23.5600,1.280
23.6000,1.277
23.6400,1.240
23.6800,1.229
23.7200,1.217
23.7600,1.242
23.8000,1.240
23.8400,1.255
23.8800,1.274
23.9200,1.337
23.9600,1.333
24.0000,1.334
24.0400,1.382
24.0800,1.458
24.1200,1.522
24.1600,1.483
24.2000,1.494
24.2400,1.573
24.2800,1.502
24.3200,1.507
24.3600,1.480
24.4000,1.466
24.4400,1.394
24.4800,1.322
24.5200,1.249
24.5600,1.274
24.6000,1.225
24.6400,1.235
24.6800,1.182
24.7200,1.153
24.7600,1.132
24.8000,1.128
24.8400,1.110
24.8800,1.132
24.9200,1.096
24.9600,1.133
25.0000,1.070
25.0400,1.103
25.0800,1.083
25.1200,1.101
25.1600,1.137
25.2000,1.100
25.2400,1.042
25.2800,1.045
25.3200,1.070
25.3600,1.068
25.4000,1.090
25.4400,1.056
25.4800,1.077
25.5200,1.073
25.5600,1.007
25.6000,1.033
25.6400,1.054
25.6800,1.035
25.7200,1.003
25.7600,1.048
25.8000,1.025
25.8400,1.030
25.8800,1.001
25.9200,0.958
25.9600,1.020
26.0000,1.016
26.0400,1.032
26.0800,1.007
26.1200,1.015
26.1600,0.993
26.2000,0.987
26.2400,0.970
26.2800,0.970
26.3200,0.992
26.3600,0.969
26.4000,0.973
26.4400,1.001
26.4800,0.971
26.5200,0.974
26.5600,0.971
26.6000,0.968
26.6400,0.931
26.6800,0.939
26.7200,0.934
26.7600,0.903
26.8000,0.947
26.8400,0.923
26.8800,0.928
26.9200,0.923
26.9600,0.918
27.0000,0.910
27.0400,0.912
27.0800,0.873
27.1200,0.912
27.1600,0.872
27.2000,0.853
27.2400,0.873
27.2800,0.928
27.3200,0.896
27.3600,0.834
27.4000,0.889
27.4400,0.874
27.4800,0.872
27.5200,0.889
27.5600,0.883
27.6000,0.887
27.6400,0.856
27.6800,0.874
27.7200,0.858
27.7600,0.853
27.8000,0.841
27.8400,0.838
27.8800,0.861
27.9200,0.875
27.9600,0.836
28.0000,0.809
28.0400,0.824
28.0800,0.838
28.1200,0.838
28.1600,0.815
28.2000,0.806
28.2400,0.858
28.2800,0.840
28.3200,0.788
28.3600,0.829
28.4000,0.777
28.4400,0.777
28.4800,0.802
28.5200,0.800
28.5600,0.800
28.6000,0.758
28.6400,0.786
28.6800,0.850
28.7200,0.800
28.7600,0.806
28.8000,0.776
28.8400,0.748
28.8800,0.756
28.9200,0.767
28.9600,0.774
29.0000,0.764
29.0400,0.818
29.0800,0.782
29.1200,0.749
29.1600,0.793
29.2000,0.800
29.2400,0.772
29.2800,0.737
29.3200,0.746
29.3600,0.741
29.4000,0.753
29.4400,0.742
29.4800,0.754
29.5200,0.718
29.5600,0.729
29.6000,0.743
29.6400,0.742
29.6800,0.783
29.7200,0.759
29.7600,0.759
29.8000,0.777
29.8400,0.746
29.8800,0.744
29.9200,0.745
29.9600,0.761
30.0000,0.749
30.0400,0.740
30.0800,0.728
30.1200,0.726
30.1600,0.743
30.2000,0.718
30.2400,0.745
30.2800,0.784
30.3200,0.755
30.3600,0.721
30.4000,0.773
30.4400,0.785
30.4800,0.730
30.5200,0.792
30.5600,0.764
30.6000,0.766
30.6400,0.783
30.6800,0.740
30.7200,0.772
30.7600,0.737
30.8000,0.749
30.8400,0.720
30.8800,0.757
30.9200,0.750
30.9600,0.769
31.0000,0.732
31.0400,0.752
31.0800,0.715
31.1200,0.728
31.1600,0.734
31.2000,0.715
31.2400,0.695
31.2800,0.723
31.3200,0.728
31.3600,0.720
31.4000,0.703
31.4400,0.735
31.4800,0.736
31.5200,0.705
31.5600,0.748
31.6000,0.763
31.6400,0.767
31.6800,0.739
31.7200,0.783
31.7600,0.830
31.8000,0.841
31.8400,0.846
31.8800,0.872
31.9200,0.885
31.9600,0.891
32.0000,0.854
32.0400,0.835
32.0800,0.880
32.1200,0.843
32.1600,0.805
32.2000,0.771
32.2400,0.758
32.2800,0.758
32.3200,0.739
32.3600,0.706
32.4000,0.722
32.4400,0.711
32.4800,0.695
32.5200,0.717
32.5600,0.728
32.6000,0.735
32.6400,0.655
32.6800,0.650
32.7200,0.699
32.7600,0.662
32.8000,0.668
32.8400,0.657
32.8800,0.687
32.9200,0.677
32.9600,0.709
33.0000,0.700
33.0400,0.649
33.0800,0.681
33.1200,0.672
33.1600,0.654
33.2000,0.670
33.2400,0.657
33.2800,0.664
33.3200,0.703
33.3600,0.696
33.4000,0.707
33.4400,0.658
33.4800,0.648
33.5200,0.680
33.5600,0.670
33.6000,0.673
33.6400,0.696
33.6800,0.660
33.7200,0.652
33.7600,0.687
33.8000,0.664
33.8400,0.628
33.8800,0.634
33.9200,0.621
33.9600,0.629
34.0000,0.648
34.0400,0.612
34.0800,0.625
34.1200,0.630
34.1600,0.597
34.2000,0.617
34.2400,0.578
34.2800,0.597
34.3200,0.596
34.3600,0.590
34.4000,0.593
34.4400,0.608
34.4800,0.602
34.5200,0.604
34.5600,0.560
34.6000,0.557
34.6400,0.571
34.6800,0.591
34.7200,0.591
34.7600,0.592
34.8000,0.572
34.8400,0.580
34.8800,0.567
34.9200,0.552
34.9600,0.556
35.0000,0.544
35.0400,0.545
35.0800,0.578
35.1200,0.536
35.1600,0.546
35.2000,0.570
35.2400,0.543
35.2800,0.540
35.3200,0.553
35.3600,0.534
35.4000,0.558
35.4400,0.553
35.4800,0.553
35.5200,0.555
35.5600,0.555
35.6000,0.568
35.6400,0.564
35.6800,0.556
35.7200,0.545
35.7600,0.571
35.8000,0.567
35.8400,0.529
35.8800,0.495
35.9200,0.546
35.9600,0.553
36.0000,0.559
36.0400,0.539
36.0800,0.555
36.1200,0.530
36.1600,0.531
36.2000,0.512
36.2400,0.521
36.2800,0.531
36.3200,0.544
36.3600,0.539
36.4000,0.562
36.4400,0.476
36.4800,0.496
36.5200,0.520
36.5600,0.520
36.6000,0.542
36.6400,0.521
36.6800,0.534
36.7200,0.513
36.7600,0.512
36.8000,0.543
36.8400,0.508
36.8800,0.512
36.9200,0.519
36.9600,0.529
37.0000,0.516
37.0400,0.511
37.0800,0.525
37.1200,0.513
37.1600,0.515
37.2000,0.510
37.2400,0.491
37.2800,0.548
37.3200,0.524
37.3600,0.512
37.4000,0.501
37.4400,0.512
37.4800,0.524
37.5200,0.523
37.5600,0.536
37.6000,0.548
37.6400,0.503
37.6800,0.524
37.7200,0.512
37.7600,0.504
37.8000,0.520
37.8400,0.501
37.8800,0.483
37.9200,0.503
37.9600,0.504
38.0000,0.493
38.0400,0.534
38.0800,0.470
38.1200,0.502
38.1600,0.502
38.2000,0.500
38.2400,0.515
38.2800,0.490
38.3200,0.495
38.3600,0.533
38.4000,0.498
38.4400,0.516
38.4800,0.526
38.5200,0.511
38.5600,0.509
38.6000,0.502
38.6400,0.516
38.6800,0.494
38.7200,0.510
38.7600,0.528
38.8000,0.503
38.8400,0.495
38.8800,0.533
38.9200,0.501
38.9600,0.547
39.0000,0.506
39.0400,0.521
39.0800,0.519
39.1200,0.527
39.1600,0.540
39.2000,0.541
39.2400,0.544
39.2800,0.517
39.3200,0.550
39.3600,0.562
39.4000,0.571
39.4400,0.566
39.4800,0.599
39.5200,0.648
39.5600,0.619
39.6000,0.678
39.6400,0.708
39.6800,0.735
39.7200,0.776
39.7600,0.815
39.8000,0.832
39.8400,0.868
39.8800,0.943
39.9200,0.957
39.9600,1.004
40.0000,1.030
40.0400,1.088
40.0800,1.175
40.1200,1.185
40.1600,1.216
40.2000,1.336
40.2400,1.482
40.2800,1.547
40.3200,1.768
40.3600,1.919
40.4000,2.076
40.4400,2.305
40.4800,2.437
40.5200,2.431
40.5600,2.481
40.6000,2.467
40.6400,2.300
40.6800,2.158
40.7200,2.023
40.7600,1.868
40.8000,1.779
40.8400,1.664
40.8800,1.603
40.9200,1.566
40.9600,1.433
41.0000,1.350
41.0400,1.218
41.0800,1.109
41.1200,1.052
41.1600,0.956
41.2000,0.857
41.2400,0.787
41.2800,0.736
41.3200,0.716
41.3600,0.685
41.4000,0.629
41.4400,0.617
41.4800,0.570
41.5200,0.553
41.5600,0.563
41.6000,0.546
41.6400,0.521
41.6800,0.520
41.7200,0.502
41.7600,0.480
41.8000,0.479
41.8400,0.453
41.8800,0.493
41.9200,0.480
41.9600,0.438
42.0000,0.434
42.0400,0.467
42.0800,0.464
42.1200,0.452
42.1600,0.469
42.2000,0.432
42.2400,0.469
42.2800,0.460
42.3200,0.422
42.3600,0.445
42.4000,0.462
42.4400,0.431
42.4800,0.431
42.5200,0.406
42.5600,0.426
42.6000,0.436
42.6400,0.445
42.6800,0.435
42.7200,0.419
42.7600,0.424
42.8000,0.405
42.8400,0.413
42.8800,0.398
42.9200,0.420
42.9600,0.441
43.0000,0.406
43.0400,0.393
43.0800,0.428
43.1200,0.432
43.1600,0.426
43.2000,0.411
43.2400,0.403
43.2800,0.426
43.3200,0.407
43.3600,0.416
43.4000,0.425
43.4400,0.439
43.4800,0.409
43.5200,0.422
43.5600,0.409
43.6000,0.409
43.6400,0.402
43.6800,0.396
43.7200,0.404
43.7600,0.375
43.8000,0.399
43.8400,0.397
43.8800,0.380
43.9200,0.405
43.9600,0.415
44.0000,0.408
44.0400,0.370
44.0800,0.378
44.1200,0.410
44.1600,0.401
44.2000,0.361
44.2400,0.395
44.2800,0.402
44.3200,0.398
44.3600,0.405
44.4000,0.425
44.4400,0.409
44.4800,0.400
44.5200,0.383
44.5600,0.397
44.6000,0.403
44.6400,0.382
44.6800,0.427
44.7200,0.397
44.7600,0.414
44.8000,0.397
44.8400,0.385
44.8800,0.421
44.9200,0.420
44.9600,0.428
45.0000,0.409
45.0400,0.414
45.0800,0.434
45.1200,0.435
45.1600,0.407
45.2000,0.433
45.2400,0.448
45.2800,0.441
45.3200,0.474
45.3600,0.468
45.4000,0.493
45.4400,0.556
45.4800,0.586
45.5200,0.608
45.5600,0.655
45.6000,0.701
45.6400,0.773
45.6800,0.810
45.7200,0.856
45.7600,0.877
45.8000,0.887
45.8400,0.859
45.8800,0.897
45.9200,0.879
45.9600,0.828
46.0000,0.805
46.0400,0.724
46.0800,0.691
46.1200,0.693
46.1600,0.659
46.2000,0.582
46.2400,0.634
46.2800,0.566
46.3200,0.545
46.3600,0.526
46.4000,0.485
46.4400,0.511
46.4800,0.463
46.5200,0.442
46.5600,0.454
46.6000,0.443
46.6400,0.467
46.6800,0.431
46.7200,0.448
46.7600,0.413
46.8000,0.434
46.8400,0.428
46.8800,0.414
46.9200,0.387
46.9600,0.422
47.0000,0.383
47.0400,0.388
47.0800,0.381
47.1200,0.398
47.1600,0.413
47.2000,0.395
47.2400,0.412
47.2800,0.375
47.3200,0.398
47.3600,0.404
47.4000,0.406
47.4400,0.403
47.4800,0.446
47.5200,0.433
47.5600,0.445
47.6000,0.432
47.6400,0.431
47.6800,0.458
47.7200,0.436
47.7600,0.475
47.8000,0.467
47.8400,0.436
47.8800,0.435
47.9200,0.445
47.9600,0.432
48.0000,0.416
48.0400,0.429
48.0800,0.403
48.1200,0.425
48.1600,0.424
48.2000,0.408
48.2400,0.389
48.2800,0.383
48.3200,0.386
48.3600,0.365
48.4000,0.378
48.4400,0.367
48.4800,0.373
48.5200,0.374
48.5600,0.375
48.6000,0.362
48.6400,0.343
48.6800,0.365
48.7200,0.372
48.7600,0.362
48.8000,0.353
48.8400,0.360
48.8800,0.367
48.9200,0.374
48.9600,0.365
49.0000,0.357
49.0400,0.346
49.0800,0.370
49.1200,0.400
49.1600,0.367
49.2000,0.360
49.2400,0.382
49.2800,0.410
49.3200,0.423
49.3600,0.397
49.4000,0.393
49.4400,0.403
49.4800,0.418
49.5200,0.414
49.5600,0.437
49.6000,0.448
49.6400,0.449
49.6800,0.442
49.7200,0.409
49.7600,0.380
49.8000,0.409
49.8400,0.369
49.8800,0.351
49.9200,0.362
49.9600,0.345
50.0000,0.361
50.0400,0.343
50.0800,0.339
50.1200,0.313
50.1600,0.330
50.2000,0.341
50.2400,0.309
50.2800,0.302
50.3200,0.314
50.3600,0.309
50.4000,0.279
50.4400,0.310
50.4800,0.313
50.5200,0.296
50.5600,0.303
50.6000,0.316
50.6400,0.298
50.6800,0.329
50.7200,0.309
50.7600,0.289
50.8000,0.289
50.8400,0.307
50.8800,0.292
50.9200,0.273
50.9600,0.307
51.0000,0.277
51.0400,0.300
51.0800,0.299
51.1200,0.292
51.1600,0.309
51.2000,0.292
51.2400,0.281
51.2800,0.279
51.3200,0.288
51.3600,0.301
51.4000,0.279
51.4400,0.275
51.4800,0.278
51.5200,0.288
51.5600,0.301
51.6000,0.305
51.6400,0.266
51.6800,0.275
51.7200,0.277
51.7600,0.289
51.8000,0.303
51.8400,0.304
51.8800,0.285
51.9200,0.306
51.9600,0.302
52.0000,0.293
52.0400,0.299
52.0800,0.312
52.1200,0.321
52.1600,0.318
52.2000,0.304
52.2400,0.347
52.2800,0.315
52.3200,0.323
52.3600,0.350
52.4000,0.348
52.4400,0.388
52.4800,0.369
52.5200,0.374
52.5600,0.347
52.6000,0.381
52.6400,0.360
52.6800,0.337
52.7200,0.329
52.7600,0.333
52.8000,0.333
52.8400,0.305
52.8800,0.305
52.9200,0.337
52.9600,0.304
53.0000,0.268
53.0400,0.294
53.0800,0.303
53.1200,0.312
53.1600,0.285
53.2000,0.301
53.2400,0.278
53.2800,0.290
53.3200,0.257
53.3600,0.273
53.4000,0.283
53.4400,0.280
53.4800,0.268
53.5200,0.263
53.5600,0.272
53.6000,0.258
53.6400,0.277
53.6800,0.265
53.7200,0.271
53.7600,0.272
53.8000,0.252
53.8400,0.283
53.8800,0.267
53.9200,0.267
53.9600,0.278
54.0000,0.301
54.0400,0.294
54.0800,0.277
54.1200,0.244
54.1600,0.255
54.2000,0.240
54.2400,0.265
54.2800,0.242
54.3200,0.258
54.3600,0.281
54.4000,0.273
54.4400,0.245
54.4800,0.253
54.5200,0.275
54.5600,0.259
54.6000,0.254
54.6400,0.260
54.6800,0.280
54.7200,0.260
54.7600,0.274
54.8000,0.266
54.8400,0.264
54.8800,0.249
54.9200,0.259
54.9600,0.274
55.0000,0.266
55.0400,0.260
55.0800,0.255
55.1200,0.243
55.1600,0.252
55.2000,0.268
55.2400,0.237
55.2800,0.246
55.3200,0.250
55.3600,0.268
55.4000,0.255
55.4400,0.254
55.4800,0.245
55.5200,0.231
55.5600,0.248
55.6000,0.266
55.6400,0.240
55.6800,0.236
55.7200,0.232
55.7600,0.243
55.8000,0.231
55.8400,0.236
55.8800,0.244
55.9200,0.249
55.9600,0.249
56.0000,0.242
56.0400,0.247
56.0800,0.231
56.1200,0.259
56.1600,0.256
56.2000,0.224
56.2400,0.245
56.2800,0.251
56.3200,0.236
56.3600,0.254
56.4000,0.233
56.4400,0.223
56.4800,0.231
56.5200,0.230
56.5600,0.253
56.6000,0.251
56.6400,0.223
56.6800,0.226
56.7200,0.238
56.7600,0.234
56.8000,0.223
56.8400,0.238
56.8800,0.255
56.9200,0.225
56.9600,0.245
57.0000,0.232
57.0400,0.243
57.0800,0.233
57.1200,0.234
57.1600,0.239
57.2000,0.260
57.2400,0.216
57.2800,0.244
57.3200,0.227
57.3600,0.239
57.4000,0.236
57.4400,0.234
57.4800,0.239
57.5200,0.221
57.5600,0.224
57.6000,0.240
57.6400,0.238
57.6800,0.223
57.7200,0.221
57.7600,0.225
57.8000,0.240
57.8400,0.246
57.8800,0.257
57.9200,0.216
57.9600,0.231
58.0000,0.226
58.0400,0.235
58.0800,0.241
58.1200,0.218
58.1600,0.245
58.2000,0.218
58.2400,0.238
58.2800,0.232
58.3200,0.233
58.3600,0.234
58.4000,0.235
58.4400,0.239
58.4800,0.231
58.5200,0.248
58.5600,0.235
58.6000,0.264
58.6400,0.243
58.6800,0.220
58.7200,0.234
58.7600,0.233
58.8000,0.237
58.8400,0.227
58.8800,0.222
58.9200,0.243
58.9600,0.213
59.0000,0.240
59.0400,0.225
59.0800,0.227
59.1200,0.242
59.1600,0.241
59.2000,0.241
59.2400,0.241
59.2800,0.257
59.3200,0.242
59.3600,0.232
59.4000,0.234
59.4400,0.239
59.4800,0.255
59.5200,0.242
59.5600,0.245
59.6000,0.239
59.6400,0.245
59.6800,0.252
59.7200,0.243
59.7600,0.248
59.8000,0.255
59.8400,0.248
59.8800,0.246
59.9200,0.257
59.9600,0.265
60.0000,0.254
60.0400,0.249
60.0800,0.247
60.1200,0.259
60.1600,0.256
60.2000,0.265
60.2400,0.273
60.2800,0.257
60.3200,0.292
60.3600,0.271
60.4000,0.263
60.4400,0.257
60.4800,0.269
60.5200,0.253
60.5600,0.255
60.6000,0.234
60.6400,0.246
60.6800,0.271
60.7200,0.256
60.7600,0.255
60.8000,0.262
60.8400,0.258
60.8800,0.235
60.9200,0.246
60.9600,0.251
61.0000,0.238
61.0400,0.250
61.0800,0.241
61.1200,0.233
61.1600,0.234
61.2000,0.247
61.2400,0.246
61.2800,0.254
61.3200,0.247
61.3600,0.229
61.4000,0.238
61.4400,0.230
61.4800,0.219
61.5200,0.227
61.5600,0.228
61.6000,0.245
61.6400,0.236
61.6800,0.249
61.7200,0.251
61.7600,0.245
61.8000,0.250
61.8400,0.230
61.8800,0.206
61.9200,0.244
61.9600,0.246
62.0000,0.229
62.0400,0.207
62.0800,0.230
62.1200,0.240
62.1600,0.222
62.2000,0.247
62.2400,0.238
62.2800,0.221
62.3200,0.258
62.3600,0.213
62.4000,0.214
62.4400,0.243
62.4800,0.249
62.5200,0.238
62.5600,0.230
62.6000,0.230
62.6400,0.251
62.6800,0.238
62.7200,0.234
62.7600,0.220
62.8000,0.226
62.8400,0.246
62.8800,0.234
62.9200,0.232
62.9600,0.238
63.0000,0.222
63.0400,0.247
63.0800,0.233
63.1200,0.237
63.1600,0.242
63.2000,0.247
63.2400,0.231
63.2800,0.237
63.3200,0.224
63.3600,0.262
63.4000,0.250
63.4400,0.249
63.4800,0.243
63.5200,0.233
63.5600,0.247
63.6000,0.260
63.6400,0.243
63.6800,0.252
63.7200,0.269
63.7600,0.267
63.8000,0.274
63.8400,0.243
63.8800,0.238
63.9200,0.270
63.9600,0.259
64.0000,0.254
64.0400,0.254
64.0800,0.259
64.1200,0.256
64.1600,0.257
64.2000,0.260
64.2400,0.273
64.2800,0.266
64.3200,0.289
64.3600,0.262
64.4000,0.280
64.4400,0.282
64.4800,0.257
64.5200,0.276
64.5600,0.294
64.6000,0.265
64.6400,0.263
64.6800,0.279
64.7200,0.300
64.7600,0.255
64.8000,0.293
64.8400,0.281
64.8800,0.257
64.9200,0.260
64.9600,0.280
65.0000,0.260
65.0400,0.284
65.0800,0.286
65.1200,0.309
65.1600,0.270
65.2000,0.275
65.2400,0.278
65.2800,0.283
65.3200,0.289
65.3600,0.274
65.4000,0.301
65.4400,0.323
65.4800,0.319
65.5200,0.336
65.5600,0.335
65.6000,0.302
65.6400,0.331
65.6800,0.322
65.7200,0.296
65.7600,0.317
65.8000,0.337
65.8400,0.350
65.8800,0.320
65.9200,0.337
65.9600,0.370
66.0000,0.358
66.0400,0.319
66.0800,0.354
66.1200,0.367
66.1600,0.389
66.2000,0.378
66.2400,0.367
66.2800,0.376
66.3200,0.403
66.3600,0.409
66.4000,0.399
66.4400,0.427
66.4800,0.443
66.5200,0.440
66.5600,0.440
66.6000,0.443
66.6400,0.465
66.6800,0.506
66.7200,0.465
66.7600,0.486
66.8000,0.506
66.8400,0.479
66.8800,0.522
66.9200,0.511
66.9600,0.499
67.0000,0.503
67.0400,0.498
67.0800,0.501
67.1200,0.512
67.1600,0.492
67.2000,0.498
67.2400,0.495
67.2800,0.527
67.3200,0.526
67.3600,0.548
67.4000,0.566
67.4400,0.537
67.4800,0.541
67.5200,0.525
67.5600,0.562
67.6000,0.580
67.6400,0.597
67.6800,0.584
67.7200,0.558
67.7600,0.635
67.8000,0.640
67.8400,0.644
67.8800,0.602
67.9200,0.642
67.9600,0.620
68.0000,0.663
68.0400,0.673
68.0800,0.685
68.1200,0.710
68.1600,0.722
68.2000,0.716
68.2400,0.756
68.2800,0.789
68.3200,0.759
68.3600,0.770
68.4000,0.843
68.4400,0.869
68.4800,0.879
68.5200,0.913
68.5600,1.031
68.6000,1.064
68.6400,1.137
68.6800,1.233
68.7200,1.413
68.7600,1.745
68.8000,2.112
68.8400,2.348
68.8800,2.447
68.9200,2.583
68.9600,3.202
69.0000,4.744
69.0400,10.604
69.0800,41.606
69.1200,92.268
69.1600,107.007
69.2000,85.506
69.2400,44.843
69.2800,31.552
69.3200,51.213
69.3600,57.139
69.4000,44.831
69.4400,21.179
69.4800,6.749
69.5200,3.638
69.5600,2.765
69.6000,2.217
69.6400,1.932
69.6800,1.671
69.7200,1.580
69.7600,1.460
69.8000,1.378
69.8400,1.302
69.8800,1.243
69.9200,1.200
69.9600,1.121
70.0000,1.156
70.0400,1.121
70.0800,1.017
70.1200,0.993
70.1600,0.937
70.2000,0.984
70.2400,0.860
70.2800,0.852
70.3200,0.804
70.3600,0.770
70.4000,0.775
70.4400,0.748
70.4800,0.734
70.5200,0.700
70.5600,0.663
70.6000,0.668
70.6400,0.668
70.6800,0.615
70.7200,0.600
70.7600,0.577
70.8000,0.563
70.8400,0.580
70.8800,0.579
70.9200,0.535
70.9600,0.539
71.0000,0.530
71.0400,0.516
71.0800,0.519
71.1200,0.502
71.1600,0.502
71.2000,0.463
71.2400,0.444
71.2800,0.483
71.3200,0.460
71.3600,0.452
71.4000,0.439
71.4400,0.413
71.4800,0.420
71.5200,0.409
71.5600,0.406
71.6000,0.413
71.6400,0.416
71.6800,0.426
71.7200,0.409
71.7600,0.394
71.8000,0.392
71.8400,0.410
71.8800,0.379
71.9200,0.378
71.9600,0.345
72.0000,0.376
72.0400,0.360
72.0800,0.358
72.1200,0.365
72.1600,0.363
72.2000,0.359
72.2400,0.343
72.2800,0.358
72.3200,0.348
72.3600,0.337
72.4000,0.329
72.4400,0.326
72.4800,0.292
72.5200,0.327
72.5600,0.309
72.6000,0.317
72.6400,0.280
72.6800,0.323
72.7200,0.306
72.7600,0.287
72.8000,0.304
72.8400,0.320
72.8800,0.306
72.9200,0.298
72.9600,0.314
73.0000,0.274
73.0400,0.270
73.0800,0.281
73.1200,0.250
73.1600,0.293
73.2000,0.273
73.2400,0.282
73.2800,0.251
73.3200,0.269
73.3600,0.263
73.4000,0.281
73.4400,0.283
73.4800,0.273
73.5200,0.264
73.5600,0.269
73.6000,0.252
73.6400,0.271
73.6800,0.241
73.7200,0.242
73.7600,0.241
73.8000,0.245
73.8400,0.259
73.8800,0.253
73.9200,0.246
73.9600,0.239
74.0000,0.225
74.0400,0.246
74.0800,0.234
74.1200,0.217
74.1600,0.206
74.2000,0.245
74.2400,0.233
74.2800,0.216
74.3200,0.267
74.3600,0.245
74.4000,0.281
74.4400,0.233
74.4800,0.245
74.5200,0.207
74.5600,0.234
74.6000,0.234
74.6400,0.247
74.6800,0.235
74.7200,0.227
74.7600,0.213
74.8000,0.218
74.8400,0.211
74.8800,0.224
74.9200,0.248
74.9600,0.212
75.0000,0.239
75.0400,0.230
75.0800,0.240
75.1200,0.208
75.1600,0.197
75.2000,0.210
75.2400,0.228
75.2800,0.213
75.3200,0.210
75.3600,0.220
75.4000,0.215
75.4400,0.211
75.4800,0.196
75.5200,0.222
75.5600,0.210
75.6000,0.223
75.6400,0.227
75.6800,0.221
75.7200,0.215
75.7600,0.217
75.8000,0.203
75.8400,0.195
75.8800,0.228
75.9200,0.207
75.9600,0.200
76.0000,0.212
76.0400,0.211
76.0800,0.181
76.1200,0.214
76.1600,0.207
76.2000,0.222
76.2400,0.220
76.2800,0.203
76.3200,0.222
76.3600,0.190
76.4000,0.201
76.4400,0.198
76.4800,0.215
76.5200,0.193
76.5600,0.199
76.6000,0.184
76.6400,0.189
76.6800,0.192
76.7200,0.210
76.7600,0.211
76.8000,0.184
76.8400,0.179
76.8800,0.197
76.9200,0.199
76.9600,0.199
77.0000,0.198
77.0400,0.190
77.0800,0.201
77.1200,0.179
77.1600,0.177
77.2000,0.186
77.2400,0.176
77.2800,0.213
77.3200,0.194
77.3600,0.189
77.4000,0.189
77.4400,0.195
77.4800,0.201
77.5200,0.195
77.5600,0.181
77.6000,0.205
77.6400,0.183
77.6800,0.191
77.7200,0.187
77.7600,0.175
77.8000,0.187
77.8400,0.199
77.8800,0.189
77.9200,0.179
77.9600,0.185
78.0000,0.177
78.0400,0.195
78.0800,0.188
78.1200,0.174
78.1600,0.186
78.2000,0.191
78.2400,0.206
78.2800,0.165
78.3200,0.171
78.3600,0.178
78.4000,0.176
78.4400,0.196
78.4800,0.188
78.5200,0.182
78.5600,0.176
78.6000,0.182
78.6400,0.176
78.6800,0.188
78.7200,0.188
78.7600,0.162
78.8000,0.171
78.8400,0.186
78.8800,0.178
78.9200,0.179
78.9600,0.179
79.0000,0.191
79.0400,0.210
79.0800,0.191
79.1200,0.184
79.1600,0.182
79.2000,0.182
79.2400,0.182
79.2800,0.194
79.3200,0.194
79.3600,0.177
79.4000,0.191
79.4400,0.199
79.4800,0.188
79.5200,0.195
79.5600,0.208
79.6000,0.175
79.6400,0.173
79.6800,0.173
79.7200,0.181
79.7600,0.179
79.8000,0.179
79.8400,0.193
79.8800,0.177
79.9200,0.194
79.9600,0.191
80.0000,0.188
