theta,intensity
5.0000,4.382
5.0400,4.398
5.0800,4.466
5.1200,4.455
5.1600,4.320
5.2000,4.390
5.2400,4.324
5.2800,4.232
5.3200,4.405
5.3600,4.360
5.4000,4.283
5.4400,4.321
5.4800,4.438
5.5200,4.348
5.5600,4.283
5.6000,4.292
5.6400,4.174
5.6800,4.287
5.7200,4.336
5.7600,4.339
5.8000,4.230
5.8400,4.286
5.8800,4.300
5.9200,4.239
5.9600,4.270
6.0000,4.179
6.0400,4.162
6.0800,4.238
6.1200,4.374
6.1600,4.145
6.2000,4.207
6.2400,4.137
6.2800,4.289
6.3200,4.270
6.3600,4.073
6.4000,4.061
6.4400,4.052
6.4800,4.176
6.5200,4.003
6.5600,3.977
6.6000,4.078
6.6400,3.973
6.6800,4.035
6.7200,4.191
6.7600,4.026
6.8000,4.030
6.8400,3.946
6.8800,4.115
6.9200,3.987
6.9600,3.955
7.0000,4.002
7.0400,3.971
7.0800,4.034
7.1200,3.973
7.1600,3.985
7.2000,3.973
7.2400,3.840
7.2800,3.970
7.3200,4.049
7.3600,3.966
7.4000,3.939
7.4400,4.020
7.4800,3.803
7.5200,3.998
7.5600,3.907
7.6000,3.871
7.6400,3.934
7.6800,3.842
7.7200,3.949
7.7600,3.964
7.8000,3.840
7.8400,3.826
7.8800,3.839
7.9200,3.922
7.9600,3.845
8.0000,3.865
8.0400,3.882
8.0800,3.802
8.1200,3.777
8.1600,3.892
8.2000,3.782
8.2400,3.758
8.2800,3.706
8.3200,3.851
8.3600,3.757
8.4000,3.987
8.4400,3.925
8.4800,3.790
8.5200,3.754
8.5600,3.803
8.6000,3.828
8.6400,3.828
8.6800,3.844
8.7200,3.777
8.7600,3.740
8.8000,3.714
8.8400,3.833
8.8800,3.756
8.9200,3.797
8.9600,3.645
9.0000,3.791
9.0400,3.654
9.0800,3.817
9.1200,3.749
9.1600,3.695
9.2000,3.770
9.2400,3.897
9.2800,3.669
9.3200,3.603
9.3600,3.810
9.4000,3.752
9.4400,3.707
9.4800,3.664
9.5200,3.649
9.5600,3.729
9.6000,3.727
9.6400,3.694
9.6800,3.719
9.7200,3.677
9.7600,3.602
9.8000,3.675
9.8400,3.644
9.8800,3.720
9.9200,3.639
9.9600,3.463
10.0000,3.695
10.0400,3.694
10.0800,3.747
10.1200,3.643
10.1600,3.699
10.2000,3.696
10.2400,3.639
10.2800,3.626
10.3200,3.595
10.3600,3.570
10.4000,3.683
10.4400,3.554
10.4800,3.488
10.5200,3.551
10.5600,3.584
10.6000,3.591
10.6400,3.472
10.6800,3.617
10.7200,3.507
10.7600,3.546
10.8000,3.636
10.8400,3.471
10.8800,3.521
10.9200,3.569
10.9600,3.425
11.0000,3.545
11.0400,3.464
11.0800,3.576
11.1200,3.541
11.1600,3.446
11.2000,3.540
11.2400,3.490
11.2800,3.521
11.3200,3.512
11.3600,3.506
11.4000,3.426
11.4400,3.560
11.4800,3.530
11.5200,3.535
11.5600,3.486
11.6000,3.477
11.6400,3.515
11.6800,3.480
11.7200,3.505
11.7600,3.546
11.8000,3.419
11.8400,3.523
11.8800,3.433
11.9200,3.463
11.9600,3.383
12.0000,3.455
12.0400,3.489
12.0800,3.427
12.1200,3.299
12.1600,3.414
12.2000,3.453
12.2400,3.398
12.2800,3.405
12.3200,3.514
12.3600,3.492
12.4000,3.471
12.4400,3.463
12.4800,3.336
12.5200,3.413
12.5600,3.309
12.6000,3.435
12.6400,3.475
12.6800,3.367
12.7200,3.444
12.7600,3.412
12.8000,3.374
12.8400,3.445
12.8800,3.368
12.9200,3.545
12.9600,3.390
13.0000,3.337
13.0400,3.437
13.0800,3.304
13.1200,3.330
13.1600,3.457
13.2000,3.384
13.2400,3.353
13.2800,3.316
13.3200,3.399
13.3600,3.374
13.4000,3.325
13.4400,3.269
13.4800,3.282
13.5200,3.267
13.5600,3.394
13.6000,3.278
13.6400,3.404
13.6800,3.326
13.7200,3.259
13.7600,3.354
13.8000,3.276
13.8400,3.366
13.8800,3.302
13.9200,3.250
13.9600,3.217
14.0000,3.207
14.0400,3.297
14.0800,3.156
14.1200,3.192
14.1600,3.215
14.2000,3.361
14.2400,3.289
14.2800,3.288
14.3200,3.238
14.3600,3.198
14.4000,3.243
14.4400,3.306
14.4800,3.320
14.5200,3.179
14.5600,3.163
14.6000,3.268
14.6400,3.219
14.6800,3.224
14.7200,3.183
14.7600,3.290
14.8000,3.330
14.8400,3.167
14.8800,3.190
14.9200,3.059
14.9600,3.150
15.0000,3.169
15.0400,3.219
15.0800,3.200
15.1200,3.296
15.1600,3.273
15.2000,3.125
15.2400,3.234
15.2800,3.156
15.3200,3.172
15.3600,3.168
15.4000,3.194
15.4400,3.116
15.4800,3.168
15.5200,3.179
15.5600,3.105
15.6000,3.070
15.6400,3.171
15.6800,3.200
15.7200,3.126
15.7600,3.092
15.8000,3.251
15.8400,3.171
15.8800,3.126
15.9200,3.202
15.9600,3.193
16.0000,3.165
16.0400,3.162
16.0800,3.121
16.1200,3.184
16.1600,2.974
16.2000,3.197
16.2400,3.104
16.2800,3.168
16.3200,3.213
16.3600,3.058
16.4000,3.216
16.4400,3.076
16.4800,3.124
16.5200,3.056
16.5600,3.081
16.6000,3.171
16.6400,3.116
16.6800,2.985
16.7200,3.086
16.7600,3.076
16.8000,2.991
16.8400,3.130
16.8800,3.174
16.9200,2.988
16.9600,3.034
17.0000,3.050
17.0400,3.016
17.0800,3.038
17.1200,3.100
17.1600,3.046
17.2000,2.866
17.2400,2.964
17.2800,3.111
17.3200,3.022
17.3600,3.036
17.4000,2.980
17.4400,2.946
17.4800,2.957
17.5200,3.020
17.5600,3.151
17.6000,3.015
17.6400,3.060
17.6800,2.855
17.7200,2.945
17.7600,2.917
17.8000,2.976
17.8400,2.984
17.8800,2.913
17.9200,3.011
17.9600,2.998
18.0000,3.002
18.0400,2.936
18.0800,2.986
18.1200,2.909
18.1600,3.005
18.2000,2.919
18.2400,2.922
18.2800,2.898
18.3200,2.955
18.3600,2.948
18.4000,2.921
18.4400,2.885
18.4800,2.988
18.5200,2.924
18.5600,2.917
18.6000,2.903
18.6400,2.916
18.6800,2.996
18.7200,2.868
18.7600,2.810
18.8000,2.808
18.8400,2.872
18.8800,2.910
18.9200,2.884
18.9600,2.806
19.0000,2.818
19.0400,2.735
19.0800,2.828
19.1200,2.844
19.1600,2.771
19.2000,2.798
19.2400,2.820
19.2800,2.876
19.3200,2.793
19.3600,2.746
19.4000,2.884
19.4400,2.862
19.4800,2.869
19.5200,2.787
19.5600,2.858
19.6000,2.807
19.6400,2.760
19.6800,2.744
19.7200,2.673
19.7600,2.783
19.8000,2.759
19.8400,2.709
19.8800,2.794
19.9200,2.713
19.9600,2.784
20.0000,2.683
20.0400,2.727
20.0800,2.786
20.1200,2.752
20.1600,2.718
20.2000,2.698
20.2400,2.817
20.2800,2.727
20.3200,2.757
20.3600,2.731
20.4000,2.641
20.4400,2.696
20.4800,2.661
20.5200,2.691
20.5600,2.713
20.6000,2.672
20.6400,2.756
20.6800,2.778
20.7200,2.624
20.7600,2.715
20.8000,2.684
20.8400,2.648
20.8800,2.549
20.9200,2.577
20.9600,2.598
21.0000,2.635
21.0400,2.686
21.0800,2.650
21.1200,2.670
21.1600,2.637
21.2000,2.630
21.2400,2.747
21.2800,2.662
21.3200,2.708
21.3600,2.613
21.4000,2.658
21.4400,2.682
21.4800,2.668
21.5200,2.722
21.5600,2.660
21.6000,2.817
21.6400,2.580
21.6800,2.647
21.7200,2.593
21.7600,2.620
21.8000,2.631
21.8400,2.671
21.8800,2.761
21.9200,2.688
21.9600,2.655
22.0000,2.705
22.0400,2.678
22.0800,2.652
22.1200,2.687
22.1600,2.540
22.2000,2.581
22.2400,2.665
22.2800,2.724
22.3200,2.730
22.3600,2.576
22.4000,2.609
22.4400,2.612
22.4800,2.575
22.5200,2.594
22.5600,2.513
22.6000,2.428
22.6400,2.542
22.6800,2.577
22.7200,2.570
22.7600,2.607
22.8000,2.536
22.8400,2.552
22.8800,2.538
22.9200,2.571
22.9600,2.631
23.0000,2.638
23.0400,2.498
23.0800,2.595
23.1200,2.594
23.1600,2.547
23.2000,2.488
23.2400,2.528
23.2800,2.539
23.3200,2.493
23.3600,2.457
23.4000,2.552
23.4400,2.420
23.4800,2.549
23.5200,2.516
23.5600,2.491
23.6000,2.525
23.6400,2.473
23.6800,2.522
23.7200,2.508
23.7600,2.549
23.8000,2.532
23.8400,2.472
23.8800,2.470
23.9200,2.475
23.9600,2.497
24.0000,2.534
24.0400,2.486
24.0800,2.468
24.1200,2.444
24.1600,2.374
24.2000,2.434
24.2400,2.453
24.2800,2.399
24.3200,2.544
24.3600,2.494
24.4000,2.381
24.4400,2.507
24.4800,2.457
24.5200,2.467
24.5600,2.411
24.6000,2.501
24.6400,2.459
24.6800,2.376
24.7200,2.408
24.7600,2.453
24.8000,2.416
24.8400,2.381
24.8800,2.389
24.9200,2.433
24.9600,2.338
25.0000,2.357
25.0400,2.446
25.0800,2.358
25.1200,2.342
25.1600,2.492
25.2000,2.303
25.2400,2.276
25.2800,2.423
25.3200,2.376
25.3600,2.379
25.4000,2.399
25.4400,2.409
25.4800,2.412
25.5200,2.413
25.5600,2.327
25.6000,2.198
25.6400,2.310
25.6800,2.338
25.7200,2.355
25.7600,2.352
25.8000,2.361
25.8400,2.366
25.8800,2.394
25.9200,2.283
25.9600,2.363
26.0000,2.393
26.0400,2.281
26.0800,2.358
26.1200,2.375
26.1600,2.361
26.2000,2.337
26.2400,2.506
26.2800,2.416
26.3200,2.327
26.3600,2.406
26.4000,2.329
26.4400,2.199
26.4800,2.299
26.5200,2.228
26.5600,2.299
26.6000,2.214
26.6400,2.336
26.6800,2.257
26.7200,2.334
26.7600,2.292
26.8000,2.397
26.8400,2.477
26.8800,2.561
26.9200,2.544
26.9600,2.430
27.0000,2.371
27.0400,2.260
27.0800,2.223
27.1200,2.369
27.1600,2.240
27.2000,2.262
27.2400,2.287
27.2800,2.256
27.3200,2.170
27.3600,2.215
27.4000,2.206
27.4400,2.241
27.4800,2.232
27.5200,2.264
27.5600,2.251
27.6000,2.320
27.6400,2.183
27.6800,2.197
27.7200,2.291
27.7600,2.287
27.8000,2.275
27.8400,2.223
27.8800,2.255
27.9200,2.309
27.9600,2.299
28.0000,2.189
28.0400,2.357
28.0800,2.271
28.1200,2.196
28.1600,2.262
28.2000,2.343
28.2400,2.389
28.2800,2.286
28.3200,2.264
28.3600,2.312
28.4000,2.481
28.4400,2.374
28.4800,2.411
28.5200,2.388
28.5600,2.397
28.6000,2.313
28.6400,2.363
28.6800,2.433
28.7200,2.398
28.7600,2.320
28.8000,2.432
28.8400,2.399
28.8800,2.331
28.9200,2.261
28.9600,2.347
29.0000,2.228
29.0400,2.259
29.0800,2.279
29.1200,2.328
29.1600,2.294
29.2000,2.256
29.2400,2.160
29.2800,2.140
29.3200,2.214
29.3600,2.186
29.4000,2.203
29.4400,2.162
29.4800,2.221
29.5200,2.164
29.5600,2.157
29.6000,2.145
29.6400,2.084
29.6800,2.073
29.7200,2.115
29.7600,2.031
29.8000,2.098
29.8400,2.062
29.8800,2.107
29.9200,2.054
29.9600,2.011
30.0000,2.015
30.0400,2.030
30.0800,1.998
30.1200,2.019
30.1600,2.014
30.2000,2.070
30.2400,2.021
30.2800,2.005
30.3200,2.085
30.3600,2.005
30.4000,1.999
30.4400,2.043
30.4800,1.993
30.5200,2.010
30.5600,1.924
30.6000,1.872
30.6400,1.913
30.6800,1.962
30.7200,1.978
30.7600,1.995
30.8000,2.020
30.8400,1.993
30.8800,1.950
30.9200,1.907
30.9600,1.915
31.0000,1.881
31.0400,1.897
31.0800,1.881
31.1200,1.960
31.1600,1.871
31.2000,1.838
31.2400,1.742
31.2800,1.825
31.3200,1.915
31.3600,1.859
31.4000,1.891
31.4400,1.828
31.4800,1.741
31.5200,1.849
31.5600,1.834
31.6000,1.879
31.6400,1.792
31.6800,1.880
31.7200,1.847
31.7600,1.859
31.8000,1.882
31.8400,1.873
31.8800,1.821
31.9200,1.823
31.9600,1.819
32.0000,1.762
32.0400,1.848
32.0800,1.790
32.1200,1.854
32.1600,1.830
32.2000,1.859
32.2400,1.818
32.2800,1.844
32.3200,1.771
32.3600,1.853
32.4000,1.758
32.4400,1.826
32.4800,1.829
32.5200,1.775
32.5600,1.762
32.6000,1.867
32.6400,1.888
32.6800,1.890
32.7200,1.831
32.7600,1.962
32.8000,2.016
32.8400,2.088
32.8800,2.065
32.9200,2.190
32.9600,2.158
33.0000,2.241
33.0400,2.187
33.0800,2.268
33.1200,2.341
33.1600,2.176
33.2000,2.155
33.2400,2.119
33.2800,1.999
33.3200,1.969
33.3600,2.073
33.4000,1.908
33.4400,1.986
33.4800,2.003
33.5200,1.813
33.5600,1.794
33.6000,1.714
33.6400,1.855
33.6800,1.729
33.7200,1.782
33.7600,1.763
33.8000,1.846
33.8400,1.815
33.8800,1.788
33.9200,1.811
33.9600,1.759
34.0000,1.771
34.0400,1.749
34.0800,1.756
34.1200,1.588
34.1600,1.712
34.2000,1.635
34.2400,1.663
34.2800,1.653
34.3200,1.689
34.3600,1.702
34.4000,1.678
34.4400,1.594
34.4800,1.556
34.5200,1.682
34.5600,1.591
34.6000,1.652
34.6400,1.571
34.6800,1.608
34.7200,1.626
34.7600,1.732
34.8000,1.707
34.8400,1.628
34.8800,1.651
34.9200,1.652
34.9600,1.636
35.0000,1.692
35.0400,1.568
35.0800,1.625
35.1200,1.560
35.1600,1.612
35.2000,1.643
35.2400,1.609
35.2800,1.621
35.3200,1.640
35.3600,1.677
35.4000,1.626
35.4400,1.678
35.4800,1.689
35.5200,1.884
35.5600,2.128
35.6000,2.220
35.6400,2.179
35.6800,2.089
35.7200,2.038
35.7600,1.984
35.8000,1.877
35.8400,1.856
35.8800,1.783
35.9200,1.823
35.9600,1.751
36.0000,1.750
36.0400,1.704
36.0800,1.681
36.1200,1.685
36.1600,1.698
36.2000,1.699
36.2400,1.717
36.2800,1.695
36.3200,1.683
36.3600,1.583
36.4000,1.566
36.4400,1.663
36.4800,1.662
36.5200,1.617
36.5600,1.678
36.6000,1.747
36.6400,1.645
36.6800,1.587
36.7200,1.632
36.7600,1.617
36.8000,1.649
36.8400,1.661
36.8800,1.728
36.9200,1.840
36.9600,1.888
37.0000,1.909
37.0400,2.006
37.0800,2.014
37.1200,1.890
37.1600,1.880
37.2000,1.918
37.2400,2.009
37.2800,2.053
37.3200,2.136
37.3600,2.584
37.4000,3.363
37.4400,3.830
37.4800,3.883
37.5200,3.625
37.5600,3.698
37.6000,3.785
37.6400,4.260
37.6800,5.311
37.7200,6.523
37.7600,8.467
37.8000,9.670
37.8400,10.123
37.8800,9.409
37.9200,8.735
37.9600,7.568
38.0000,6.395
38.0400,5.526
38.0800,4.641
38.1200,4.387
38.1600,4.668
38.2000,4.810
38.2400,4.475
38.2800,4.310
38.3200,4.081
38.3600,3.458
38.4000,3.377
38.4400,3.840
38.4800,4.330
38.5200,4.057
38.5600,3.750
38.6000,3.438
38.6400,2.961
38.6800,2.556
38.7200,2.220
38.7600,2.181
38.8000,2.051
38.8400,2.234
38.8800,2.331
38.9200,2.624
38.9600,2.980
39.0000,3.324
39.0400,3.239
39.0800,3.021
39.1200,2.673
39.1600,2.326
39.2000,2.138
39.2400,2.003
39.2800,1.940
39.3200,1.861
39.3600,1.888
39.4000,1.738
39.4400,1.822
39.4800,1.818
39.5200,1.833
39.5600,1.744
39.6000,1.799
39.6400,1.781
39.6800,1.836
39.7200,1.713
39.7600,1.737
39.8000,1.761
39.8400,1.877
39.8800,1.799
39.9200,1.806
39.9600,1.763
40.0000,1.868
40.0400,1.935
40.0800,1.875
40.1200,1.882
40.1600,2.008
40.2000,2.038
40.2400,2.034
40.2800,2.116
40.3200,2.275
40.3600,2.409
40.4000,2.376
40.4400,2.231
40.4800,2.149
40.5200,2.020
40.5600,1.941
40.6000,1.959
40.6400,1.839
40.6800,1.772
40.7200,1.699
40.7600,1.769
40.8000,1.672
40.8400,1.700
40.8800,1.686
40.9200,1.647
40.9600,1.676
41.0000,1.682
41.0400,1.614
41.0800,1.593
41.1200,1.523
41.1600,1.530
41.2000,1.522
41.2400,1.522
41.2800,1.492
41.3200,1.525
41.3600,1.395
41.4000,1.571
41.4400,1.455
41.4800,1.409
41.5200,1.436
41.5600,1.435
41.6000,1.573
41.6400,1.425
41.6800,1.482
41.7200,1.423
41.7600,1.451
41.8000,1.407
41.8400,1.360
41.8800,1.372
41.9200,1.444
41.9600,1.347
42.0000,1.287
42.0400,1.328
42.0800,1.266
42.1200,1.268
42.1600,1.345
42.2000,1.307
42.2400,1.375
42.2800,1.210
42.3200,1.194
42.3600,1.236
42.4000,1.270
42.4400,1.256
42.4800,1.305
42.5200,1.216
42.5600,1.192
42.6000,1.254
42.6400,1.242
42.6800,1.271
42.7200,1.208
42.7600,1.195
42.8000,1.213
42.8400,1.325
42.8800,1.252
42.9200,1.323
42.9600,1.322
43.0000,1.283
43.0400,1.321
43.0800,1.208
43.1200,1.241
43.1600,1.286
43.2000,1.348
43.2400,1.402
43.2800,1.421
43.3200,1.386
43.3600,1.454
43.4000,1.465
43.4400,1.444
43.4800,1.489
43.5200,1.613
43.5600,1.713
43.6000,1.642
43.6400,1.726
43.6800,1.876
43.7200,1.979
43.7600,2.191
43.8000,2.414
43.8400,2.775
43.8800,2.974
43.9200,3.372
43.9600,3.495
44.0000,3.412
44.0400,3.375
44.0800,3.067
44.1200,2.883
44.1600,2.723
44.2000,2.418
44.2400,2.098
44.2800,2.004
44.3200,1.831
44.3600,1.683
44.4000,1.489
44.4400,1.517
44.4800,1.447
44.5200,1.380
44.5600,1.355
44.6000,1.366
44.6400,1.226
44.6800,1.308
44.7200,1.230
44.7600,1.158
44.8000,1.231
44.8400,1.198
44.8800,1.121
44.9200,1.098
44.9600,1.159
45.0000,1.154
45.0400,1.088
45.0800,1.150
45.1200,1.114
45.1600,1.062
45.2000,1.133
45.2400,1.085
45.2800,1.101
45.3200,1.072
45.3600,1.001
45.4000,1.014
45.4400,1.072
45.4800,1.006
45.5200,1.069
45.5600,1.070
45.6000,1.033
45.6400,1.072
45.6800,1.030
45.7200,1.005
45.7600,1.046
45.8000,0.990
45.8400,0.963
45.8800,1.000
45.9200,1.022
45.9600,1.012
46.0000,1.039
46.0400,0.981
46.0800,1.014
46.1200,1.000
46.1600,1.016
46.2000,1.055
46.2400,1.002
46.2800,1.030
46.3200,1.059
46.3600,1.128
46.4000,1.123
46.4400,1.073
46.4800,1.132
46.5200,1.108
46.5600,1.038
46.6000,1.040
46.6400,1.030
46.6800,1.007
46.7200,1.024
46.7600,0.993
46.8000,0.975
46.8400,1.024
46.8800,0.983
46.9200,0.975
46.9600,0.991
47.0000,1.031
47.0400,0.943
47.0800,0.927
47.1200,0.937
47.1600,0.929
47.2000,0.928
47.2400,0.998
47.2800,1.018
47.3200,0.939
47.3600,0.889
47.4000,0.910
47.4400,0.970
47.4800,0.987
47.5200,1.016
47.5600,0.923
47.6000,1.041
47.6400,0.960
47.6800,0.952
47.7200,0.953
47.7600,0.956
47.8000,0.958
47.8400,0.932
47.8800,0.889
47.9200,0.951
47.9600,0.929
48.0000,0.980
48.0400,0.980
48.0800,0.922
48.1200,0.895
48.1600,0.902
48.2000,0.884
48.2400,0.895
48.2800,0.956
48.3200,0.940
48.3600,0.931
48.4000,0.837
48.4400,0.893
48.4800,0.824
48.5200,0.890
48.5600,0.868
48.6000,0.905
48.6400,0.973
48.6800,0.913
48.7200,0.914
48.7600,0.911
48.8000,0.925
48.8400,0.940
48.8800,0.934
48.9200,0.915
48.9600,0.882
49.0000,0.885
49.0400,0.874
49.0800,0.874
49.1200,0.917
49.1600,0.895
49.2000,0.922
49.2400,0.877
49.2800,0.938
49.3200,0.861
49.3600,0.883
49.4000,0.922
49.4400,0.924
49.4800,0.896
49.5200,0.922
49.5600,0.854
49.6000,0.872
49.6400,0.895
49.6800,0.934
49.7200,0.904
49.7600,0.955
49.8000,0.822
49.8400,0.868
49.8800,0.950
49.9200,0.912
49.9600,0.845
50.0000,0.894
50.0400,0.879
50.0800,0.886
50.1200,0.830
50.1600,0.838
50.2000,0.885
50.2400,0.814
50.2800,0.789
50.3200,0.804
50.3600,0.872
50.4000,0.858
50.4400,0.853
50.4800,0.866
50.5200,0.817
50.5600,0.817
50.6000,0.838
50.6400,0.857
50.6800,0.814
50.7200,0.829
50.7600,0.809
50.8000,0.775
50.8400,0.837
50.8800,0.825
50.9200,0.775
50.9600,0.813
51.0000,0.840
51.0400,0.840
51.0800,0.888
51.1200,0.888
51.1600,0.852
51.2000,0.805
51.2400,0.907
51.2800,0.820
51.3200,0.839
51.3600,0.792
51.4000,0.871
51.4400,0.820
51.4800,0.854
51.5200,0.832
51.5600,0.777
51.6000,0.850
51.6400,0.820
51.6800,0.833
51.7200,0.843
51.7600,0.820
51.8000,0.827
51.8400,0.851
51.8800,0.792
51.9200,0.833
51.9600,0.822
52.0000,0.900
52.0400,0.821
52.0800,0.805
52.1200,0.799
52.1600,0.777
52.2000,0.791
52.2400,0.808
52.2800,0.804
52.3200,0.853
52.3600,0.862
52.4000,0.810
52.4400,0.810
52.4800,0.844
52.5200,0.818
52.5600,0.799
52.6000,0.792
52.6400,0.822
52.6800,0.778
52.7200,0.828
52.7600,0.793
52.8000,0.806
52.8400,0.795
52.8800,0.750
52.9200,0.747
52.9600,0.763
53.0000,0.808
53.0400,0.784
53.0800,0.773
53.1200,0.751
53.1600,0.768
53.2000,0.762
53.2400,0.810
53.2800,0.785
53.3200,0.764
53.3600,0.730
53.4000,0.742
53.4400,0.782
53.4800,0.719
53.5200,0.756
53.5600,0.771
53.6000,0.710
53.6400,0.765
53.6800,0.755
53.7200,0.776
53.7600,0.800
53.8000,0.874
53.8400,0.781
53.8800,0.805
53.9200,0.813
53.9600,0.784
54.0000,0.830
54.0400,0.838
54.0800,0.775
54.1200,0.801
54.1600,0.786
54.2000,0.772
54.2400,0.777
54.2800,0.758
54.3200,0.784
54.3600,0.738
54.4000,0.733
54.4400,0.749
54.4800,0.756
54.5200,0.774
54.5600,0.824
54.6000,0.723
54.6400,0.804
54.6800,0.846
54.7200,0.776
54.7600,0.857
54.8000,0.801
54.8400,0.808
54.8800,0.777
54.9200,0.790
54.9600,0.799
55.0000,0.806
55.0400,0.820
55.0800,0.894
55.1200,0.869
55.1600,0.902
55.2000,0.917
55.2400,1.031
55.2800,1.160
55.3200,1.204
55.3600,1.108
55.4000,1.020
55.4400,1.046
55.4800,1.017
55.5200,0.951
55.5600,0.930
55.6000,0.855
55.6400,0.891
55.6800,0.779
55.7200,0.795
55.7600,0.785
55.8000,0.759
55.8400,0.810
55.8800,0.747
55.9200,0.755
55.9600,0.691
56.0000,0.777
56.0400,0.712
56.0800,0.690
56.1200,0.779
56.1600,0.733
56.2000,0.723
56.2400,0.696
56.2800,0.642
56.3200,0.661
56.3600,0.658
56.4000,0.705
56.4400,0.645
56.4800,0.650
56.5200,0.710
56.5600,0.736
56.6000,0.652
56.6400,0.696
56.6800,0.651
56.7200,0.713
56.7600,0.651
56.8000,0.661
56.8400,0.610
56.8800,0.622
56.9200,0.643
56.9600,0.651
57.0000,0.670
57.0400,0.662
57.0800,0.658
57.1200,0.673
57.1600,0.656
57.2000,0.719
57.2400,0.679
57.2800,0.663
57.3200,0.656
57.3600,0.682
57.4000,0.643
57.4400,0.664
57.4800,0.650
57.5200,0.655
57.5600,0.620
57.6000,0.612
57.6400,0.684
57.6800,0.635
57.7200,0.618
57.7600,0.649
57.8000,0.617
57.8400,0.684
57.8800,0.623
57.9200,0.630
57.9600,0.630
58.0000,0.627
58.0400,0.608
58.0800,0.643
58.1200,0.663
58.1600,0.672
58.2000,0.683
58.2400,0.637
58.2800,0.624
58.3200,0.605
58.3600,0.662
58.4000,0.651
58.4400,0.601
58.4800,0.669
58.5200,0.661
58.5600,0.661
58.6000,0.663
58.6400,0.656
58.6800,0.627
58.7200,0.716
58.7600,0.654
58.8000,0.691
58.8400,0.663
58.8800,0.668
58.9200,0.644
58.9600,0.658
59.0000,0.601
59.0400,0.614
59.0800,0.612
59.1200,0.631
59.1600,0.631
59.2000,0.581
59.2400,0.619
59.2800,0.608
59.3200,0.593
59.3600,0.558
59.4000,0.594
59.4400,0.624
59.4800,0.609
59.5200,0.610
59.5600,0.581
59.6000,0.611
59.6400,0.620
59.6800,0.584
59.7200,0.562
59.7600,0.541
59.8000,0.543
59.8400,0.552
59.8800,0.579
59.9200,0.575
59.9600,0.630
60.0000,0.574
60.0400,0.613
60.0800,0.623
60.1200,0.531
60.1600,0.551
60.2000,0.592
60.2400,0.589
60.2800,0.595
60.3200,0.563
60.3600,0.610
60.4000,0.629
60.4400,0.534
60.4800,0.578
60.5200,0.552
60.5600,0.587
60.6000,0.606
60.6400,0.578
60.6800,0.565
60.7200,0.580
60.7600,0.590
60.8000,0.514
60.8400,0.622
60.8800,0.591
60.9200,0.533
60.9600,0.535
61.0000,0.546
61.0400,0.586
61.0800,0.559
61.1200,0.582
61.1600,0.578
61.2000,0.546
61.2400,0.550
61.2800,0.570
61.3200,0.573
61.3600,0.537
61.4000,0.517
61.4400,0.595
61.4800,0.556
61.5200,0.575
61.5600,0.507
61.6000,0.565
61.6400,0.527
61.6800,0.533
61.7200,0.576
61.7600,0.570
61.8000,0.559
61.8400,0.539
61.8800,0.544
61.9200,0.548
61.9600,0.545
62.0000,0.587
62.0400,0.571
62.0800,0.590
62.1200,0.599
62.1600,0.569
62.2000,0.571
62.2400,0.530
62.2800,0.537
62.3200,0.534
62.3600,0.520
62.4000,0.563
62.4400,0.540
62.4800,0.546
62.5200,0.571
62.5600,0.514
62.6000,0.472
62.6400,0.586
62.6800,0.549
62.7200,0.548
62.7600,0.568
62.8000,0.542
62.8400,0.598
62.8800,0.549
62.9200,0.525
62.9600,0.604
63.0000,0.619
63.0400,0.578
63.0800,0.583
63.1200,0.614
63.1600,0.601
63.2000,0.601
63.2400,0.610
63.2800,0.628
63.3200,0.618
63.3600,0.672
63.4000,0.733
63.4400,0.727
63.4800,0.801
63.5200,0.847
63.5600,0.871
63.6000,1.017
63.6400,1.063
63.6800,1.151
63.7200,1.334
63.7600,1.646
63.8000,1.854
63.8400,1.973
63.8800,1.827
63.9200,1.766
63.9600,1.801
64.0000,1.685
64.0400,1.577
64.0800,1.420
64.1200,1.258
64.1600,1.219
64.2000,1.103
64.2400,1.074
64.2800,1.017
64.3200,0.913
64.3600,0.848
64.4000,0.746
64.4400,0.767
64.4800,0.748
64.5200,0.699
64.5600,0.723
64.6000,0.674
64.6400,0.710
64.6800,0.684
64.7200,0.638
64.7600,0.593
64.8000,0.557
64.8400,0.637
64.8800,0.567
64.9200,0.571
64.9600,0.550
65.0000,0.564
65.0400,0.519
65.0800,0.518
65.1200,0.565
65.1600,0.550
65.2000,0.536
65.2400,0.507
65.2800,0.510
65.3200,0.545
65.3600,0.495
65.4000,0.491
65.4400,0.530
65.4800,0.524
65.5200,0.545
65.5600,0.483
65.6000,0.537
65.6400,0.535
65.6800,0.542
65.7200,0.540
65.7600,0.594
65.8000,0.587
65.8400,0.549
65.8800,0.561
65.9200,0.564
65.9600,0.601
66.0000,0.604
66.0400,0.595
66.0800,0.557
66.1200,0.549
66.1600,0.544
66.2000,0.580
66.2400,0.595
66.2800,0.595
66.3200,0.593
66.3600,0.566
66.4000,0.567
66.4400,0.533
66.4800,0.515
66.5200,0.550
66.5600,0.538
66.6000,0.533
66.6400,0.503
66.6800,0.524
66.7200,0.481
66.7600,0.466
66.8000,0.497
66.8400,0.490
66.8800,0.445
66.9200,0.494
66.9600,0.436
67.0000,0.512
67.0400,0.475
67.0800,0.479
67.1200,0.466
67.1600,0.482
67.2000,0.466
67.2400,0.490
67.2800,0.449
67.3200,0.431
67.3600,0.460
67.4000,0.452
67.4400,0.431
67.4800,0.468
67.5200,0.455
67.5600,0.473
67.6000,0.493
67.6400,0.438
67.6800,0.425
67.7200,0.440
67.7600,0.487
67.8000,0.471
67.8400,0.494
67.8800,0.497
67.9200,0.489
67.9600,0.489
68.0000,0.478
68.0400,0.481
68.0800,0.533
68.1200,0.473
68.1600,0.480
68.2000,0.484
68.2400,0.481
68.2800,0.500
68.3200,0.512
68.3600,0.503
68.4000,0.468
68.4400,0.509
68.4800,0.494
68.5200,0.499
68.5600,0.477
68.6000,0.500
68.6400,0.466
68.6800,0.517
68.7200,0.540
68.7600,0.531
68.8000,0.543
68.8400,0.552
68.8800,0.607
68.9200,0.639
68.9600,0.616
69.0000,0.672
69.0400,0.625
69.0800,0.609
69.1200,0.634
69.1600,0.667
69.2000,0.619
69.2400,0.636
69.2800,0.717
69.3200,0.728
69.3600,0.802
69.4000,0.730
69.4400,0.750
69.4800,0.746
69.5200,0.790
69.5600,0.771
69.6000,0.655
69.6400,0.630
69.6800,0.600
69.7200,0.610
69.7600,0.584
69.8000,0.596
69.8400,0.538
69.8800,0.455
69.9200,0.462
69.9600,0.457
70.0000,0.492
70.0400,0.446
70.0800,0.464
70.1200,0.453
70.1600,0.414
70.2000,0.431
70.2400,0.449
70.2800,0.448
70.3200,0.479
70.3600,0.399
70.4000,0.418
70.4400,0.449
70.4800,0.470
70.5200,0.410
70.5600,0.445
70.6000,0.450
70.6400,0.452
70.6800,0.416
70.7200,0.425
70.7600,0.411
70.8000,0.407
70.8400,0.426
70.8800,0.451
70.9200,0.432
70.9600,0.479
71.0000,0.467
71.0400,0.440
71.0800,0.422
71.1200,0.430
71.1600,0.405
71.2000,0.428
71.2400,0.426
71.2800,0.482
71.3200,0.463
71.3600,0.461
71.4000,0.460
71.4400,0.475
71.4800,0.423
71.5200,0.442
71.5600,0.422
71.6000,0.439
71.6400,0.430
71.6800,0.398
71.7200,0.423
71.7600,0.438
71.8000,0.441
71.8400,0.432
71.8800,0.445
71.9200,0.430
71.9600,0.424
72.0000,0.432
72.0400,0.436
72.0800,0.388
72.1200,0.410
72.1600,0.355
72.2000,0.376
72.2400,0.395
72.2800,0.378
72.3200,0.395
72.3600,0.427
72.4000,0.443
72.4400,0.369
72.4800,0.346
72.5200,0.390
72.5600,0.409
72.6000,0.402
72.6400,0.393
72.6800,0.360
72.7200,0.402
72.7600,0.402
72.8000,0.416
72.8400,0.404
72.8800,0.367
72.9200,0.403
72.9600,0.389
73.0000,0.393
73.0400,0.395
73.0800,0.424
73.1200,0.393
73.1600,0.414
73.2000,0.380
73.2400,0.386
73.2800,0.378
73.3200,0.396
73.3600,0.375
73.4000,0.383
73.4400,0.382
73.4800,0.378
73.5200,0.364
73.5600,0.379
73.6000,0.322
73.6400,0.351
73.6800,0.388
73.7200,0.371
73.7600,0.335
73.8000,0.339
73.8400,0.353
73.8800,0.356
73.9200,0.378
73.9600,0.376
74.0000,0.378
74.0400,0.357
74.0800,0.349
74.1200,0.378
74.1600,0.380
74.2000,0.329
74.2400,0.351
74.2800,0.367
74.3200,0.369
74.3600,0.405
74.4000,0.368
74.4400,0.419
74.4800,0.425
74.5200,0.430
74.5600,0.427
74.6000,0.427
74.6400,0.411
74.6800,0.393
74.7200,0.457
74.7600,0.405
74.8000,0.410
74.8400,0.383
74.8800,0.403
74.9200,0.395
74.9600,0.386
75.0000,0.381
75.0400,0.391
75.0800,0.411
75.1200,0.397
75.1600,0.445
75.2000,0.434
75.2400,0.451
75.2800,0.458
75.3200,0.473
75.3600,0.439
75.4000,0.403
75.4400,0.414
75.4800,0.470
75.5200,0.471
75.5600,0.417
75.6000,0.440
75.6400,0.448
75.6800,0.426
75.7200,0.483
75.7600,0.456
75.8000,0.441
75.8400,0.477
75.8800,0.505
75.9200,0.496
75.9600,0.535
76.0000,0.506
76.0400,0.539
76.0800,0.551
76.1200,0.561
76.1600,0.660
76.2000,0.701
76.2400,0.767
76.2800,0.933
76.3200,1.031
76.3600,1.030
76.4000,1.102
76.4400,1.068
76.4800,1.237
76.5200,1.325
76.5600,1.369
76.6000,1.426
76.6400,1.337
76.6800,1.352
76.7200,1.292
76.7600,1.252
76.8000,1.179
76.8400,1.070
76.8800,1.053
76.9200,1.068
76.9600,0.987
77.0000,0.867
77.0400,0.815
77.0800,0.780
77.1200,0.753
77.1600,0.754
77.2000,0.651
77.2400,0.677
77.2800,0.625
77.3200,0.625
77.3600,0.614
77.4000,0.610
77.4400,0.617
77.4800,0.590
77.5200,0.535
77.5600,0.486
77.6000,0.504
77.6400,0.486
77.6800,0.470
77.7200,0.437
77.7600,0.432
77.8000,0.444
77.8400,0.402
77.8800,0.448
77.9200,0.419
77.9600,0.411
78.0000,0.440
78.0400,0.427
78.0800,0.443
78.1200,0.443
78.1600,0.448
78.2000,0.431
78.2400,0.441
78.2800,0.433
78.3200,0.430
78.3600,0.404
78.4000,0.440
78.4400,0.423
78.4800,0.458
78.5200,0.402
78.5600,0.391
78.6000,0.385
78.6400,0.399
78.6800,0.396
78.7200,0.406
78.7600,0.387
78.8000,0.366
78.8400,0.398
78.8800,0.341
78.9200,0.369
78.9600,0.369
79.0000,0.360
79.0400,0.385
79.0800,0.372
79.1200,0.392
79.1600,0.368
79.2000,0.356
79.2400,0.335
79.2800,0.344
79.3200,0.366
79.3600,0.350
79.4000,0.304
79.4400,0.350
79.4800,0.324
79.5200,0.352
79.5600,0.378
79.6000,0.348
79.6400,0.386
79.6800,0.395
79.7200,0.410
79.7600,0.421
79.8000,0.391
79.8400,0.409
79.8800,0.364
79.9200,0.364
79.9600,0.387
80.0000,0.382
