theta,intensity
5.0000,1.676
5.0400,1.698
5.0800,1.768
5.1200,1.676
5.1600,1.740
5.2000,1.808
5.2400,1.678
5.2800,1.725
5.3200,1.715
5.3600,1.746
5.4000,1.697
5.4400,1.674
5.4800,1.752
5.5200,1.699
5.5600,1.678
5.6000,1.716
5.6400,1.715
5.6800,1.667
5.7200,1.657
5.7600,1.661
5.8000,1.641
5.8400,1.607
5.8800,1.644
5.9200,1.663
5.9600,1.611
6.0000,1.688
6.0400,1.612
6.0800,1.638
6.1200,1.542
6.1600,1.541
6.2000,1.574
6.2400,1.587
6.2800,1.564
6.3200,1.533
6.3600,1.600
6.4000,1.587
6.4400,1.546
6.4800,1.470
6.5200,1.546
6.5600,1.542
6.6000,1.528
6.6400,1.482
6.6800,1.503
6.7200,1.500
6.7600,1.474
6.8000,1.534
6.8400,1.470
6.8800,1.435
6.9200,1.428
6.9600,1.498
7.0000,1.434
7.0400,1.457
7.0800,1.443
7.1200,1.384
7.1600,1.423
7.2000,1.394
7.2400,1.373
7.2800,1.410
7.3200,1.415
7.3600,1.406
7.4000,1.370
7.4400,1.408
7.4800,1.424
7.5200,1.377
7.5600,1.340
7.6000,1.337
7.6400,1.345
7.6800,1.376
7.7200,1.377
7.7600,1.319
7.8000,1.355
7.8400,1.342
7.8800,1.402
7.9200,1.303
7.9600,1.375
8.0000,1.345
8.0400,1.302
8.0800,1.317
8.1200,1.332
8.1600,1.283
8.2000,1.375
8.2400,1.370
8.2800,1.370
8.3200,1.314
8.3600,1.372
8.4000,1.374
8.4400,1.360
8.4800,1.377
8.5200,1.360
8.5600,1.337
8.6000,1.278
8.6400,1.346
8.6800,1.371
8.7200,1.349
8.7600,1.311
8.8000,1.320
8.8400,1.285
8.8800,1.339
8.9200,1.330
8.9600,1.327
9.0000,1.296
9.0400,1.352
9.0800,1.387
9.1200,1.332
9.1600,1.305
9.2000,1.329
9.2400,1.300
9.2800,1.353
9.3200,1.322
9.3600,1.314
9.4000,1.352
9.4400,1.339
9.4800,1.297
9.5200,1.331
9.5600,1.338
9.6000,1.280
9.6400,1.304
9.6800,1.337
9.7200,1.346
9.7600,1.291
9.8000,1.318
9.8400,1.326
9.8800,1.294
9.9200,1.275
9.9600,1.319
10.0000,1.339
10.0400,1.351
10.0800,1.323
10.1200,1.332
10.1600,1.356
10.2000,1.304
10.2400,1.254
10.2800,1.278
10.3200,1.345
10.3600,1.311
10.4000,1.271
10.4400,1.326
10.4800,1.308
10.5200,1.324
10.5600,1.261
10.6000,1.330
10.6400,1.331
10.6800,1.312
10.7200,1.336
10.7600,1.296
10.8000,1.312
10.8400,1.277
10.8800,1.311
10.9200,1.336
10.9600,1.294
11.0000,1.252
11.0400,1.236
11.0800,1.256
11.1200,1.307
11.1600,1.282
11.2000,1.301
11.2400,1.331
11.2800,1.292
11.3200,1.293
11.3600,1.204
11.4000,1.296
11.4400,1.251
11.4800,1.260
11.5200,1.246
11.5600,1.241
11.6000,1.284
11.6400,1.269
11.6800,1.296
11.7200,1.242
11.7600,1.318
11.8000,1.248
11.8400,1.263
11.8800,1.290
11.9200,1.306
11.9600,1.298
12.0000,1.272
12.0400,1.204
12.0800,1.279
12.1200,1.313
12.1600,1.234
12.2000,1.236
12.2400,1.256
12.2800,1.234
12.3200,1.291
12.3600,1.285
12.4000,1.243
12.4400,1.252
12.4800,1.207
12.5200,1.230
12.5600,1.272
12.6000,1.272
12.6400,1.291
12.6800,1.293
12.7200,1.262
12.7600,1.251
12.8000,1.231
12.8400,1.199
12.8800,1.242
12.9200,1.224
12.9600,1.269
13.0000,1.196
13.0400,1.227
13.0800,1.226
13.1200,1.256
13.1600,1.247
13.2000,1.240
13.2400,1.234
13.2800,1.175
13.3200,1.246
13.3600,1.206
13.4000,1.236
13.4400,1.224
13.4800,1.217
13.5200,1.189
13.5600,1.286
13.6000,1.221
13.6400,1.225
13.6800,1.258
13.7200,1.210
13.7600,1.217
13.8000,1.230
13.8400,1.188
13.8800,1.219
13.9200,1.200
13.9600,1.243
14.0000,1.227
14.0400,1.142
14.0800,1.223
14.1200,1.251
14.1600,1.207
14.2000,1.266
14.2400,1.200
14.2800,1.210
14.3200,1.178
14.3600,1.186
14.4000,1.149
14.4400,1.232
14.4800,1.208
14.5200,1.150
14.5600,1.165
14.6000,1.173
14.6400,1.232
14.6800,1.219
14.7200,1.182
14.7600,1.168
14.8000,1.172
14.8400,1.169
14.8800,1.199
14.9200,1.192
14.9600,1.213
15.0000,1.123
15.0400,1.164
15.0800,1.135
15.1200,1.219
15.1600,1.187
15.2000,1.190
15.2400,1.205
15.2800,1.157
15.3200,1.161
15.3600,1.117
15.4000,1.150
15.4400,1.142
15.4800,1.195
15.5200,1.185
15.5600,1.139
15.6000,1.117
15.6400,1.141
15.6800,1.190
15.7200,1.164
15.7600,1.194
15.8000,1.145
15.8400,1.135
15.8800,1.171
15.9200,1.192
15.9600,1.171
16.0000,1.166
16.0400,1.176
16.0800,1.106
16.1200,1.144
16.1600,1.127
16.2000,1.128
16.2400,1.113
16.2800,1.164
16.3200,1.156
16.3600,1.150
16.4000,1.115
16.4400,1.151
16.4800,1.175
16.5200,1.146
16.5600,1.143
16.6000,1.131
16.6400,1.104
16.6800,1.166
16.7200,1.103
16.7600,1.163
16.8000,1.142
16.8400,1.147
16.8800,1.169
16.9200,1.090
16.9600,1.163
17.0000,1.104
17.0400,1.117
17.0800,1.086
17.1200,1.140
17.1600,1.192
17.2000,1.125
17.2400,1.112
17.2800,1.103
17.3200,1.141
17.3600,1.152
17.4000,1.144
17.4400,1.138
17.4800,1.111
17.5200,1.144
17.5600,1.129
17.6000,1.081
17.6400,1.163
17.6800,1.139
17.7200,1.097
17.7600,1.086
17.8000,1.104
17.8400,1.151
17.8800,1.156
17.9200,1.141
17.9600,1.135
18.0000,1.109
18.0400,1.108
18.0800,1.055
18.1200,1.126
18.1600,1.130
18.2000,1.111
18.2400,1.110
18.2800,1.101
18.3200,1.107
18.3600,1.105
18.4000,1.127
18.4400,1.097
18.4800,1.103
18.5200,1.096
18.5600,1.098
18.6000,1.094
18.6400,1.104
18.6800,1.070
18.7200,1.070
18.7600,1.118
18.8000,1.073
18.8400,1.089
18.8800,1.065
18.9200,1.110
18.9600,1.076
19.0000,1.095
19.0400,1.075
19.0800,1.069
19.1200,1.090
19.1600,1.099
19.2000,1.109
19.2400,1.134
19.2800,1.120
19.3200,1.024
19.3600,1.105
19.4000,1.112
19.4400,1.110
19.4800,1.099
19.5200,1.100
19.5600,1.036
19.6000,1.061
19.6400,1.109
19.6800,1.114
19.7200,1.060
19.7600,1.116
19.8000,1.084
19.8400,1.088
19.8800,1.109
19.9200,1.098
19.9600,1.083
20.0000,1.092
20.0400,1.095
20.0800,1.054
20.1200,1.044
20.1600,1.105
20.2000,1.056
20.2400,1.071
20.2800,1.047
20.3200,1.104
20.3600,1.102
20.4000,1.028
20.4400,1.057
20.4800,1.028
20.5200,1.035
20.5600,1.041
20.6000,1.048
20.6400,1.054
20.6800,1.019
20.7200,1.051
20.7600,1.063
20.8000,1.078
20.8400,1.112
20.8800,1.087
20.9200,1.103
20.9600,1.026
21.0000,1.042
21.0400,1.056
21.0800,1.015
21.1200,1.022
21.1600,1.054
21.2000,1.102
21.2400,1.065
21.2800,1.073
21.3200,1.001
21.3600,1.026
21.4000,1.035
21.4400,1.039
21.4800,1.005
21.5200,1.011
21.5600,1.005
21.6000,1.057
21.6400,1.019
21.6800,1.025
21.7200,1.070
21.7600,0.999
21.8000,1.028
21.8400,1.018
21.8800,0.993
21.9200,0.983
21.9600,0.993
22.0000,1.015
22.0400,1.021
22.0800,1.006
22.1200,0.967
22.1600,1.020
22.2000,0.989
22.2400,0.965
22.2800,1.010
22.3200,0.958
22.3600,1.009
22.4000,1.017
22.4400,0.998
22.4800,0.978
22.5200,0.972
22.5600,0.995
22.6000,0.997
22.6400,0.958
22.6800,0.968
22.7200,0.952
22.7600,0.990
22.8000,0.986
22.8400,0.944
22.8800,0.944
22.9200,0.977
22.9600,0.974
23.0000,0.959
23.0400,0.931
23.0800,0.915
23.1200,0.938
23.1600,0.959
23.2000,0.954
23.2400,0.933
23.2800,0.920
23.3200,0.931
23.3600,0.928
23.4000,0.895
23.4400,0.945
23.4800,0.916
23.5200,0.891
23.5600,0.877
23.6000,0.968
23.6400,0.917
23.6800,0.952
23.7200,0.907
23.7600,0.886
23.8000,0.897
23.8400,0.898
23.8800,0.905
23.9200,0.881
23.9600,0.884
24.0000,0.909
24.0400,0.927
24.0800,0.865
24.1200,0.873
24.1600,0.874
24.2000,0.869
24.2400,0.893
24.2800,0.859
24.3200,0.922
24.3600,0.909
24.4000,0.844
24.4400,0.839
24.4800,0.819
24.5200,0.853
24.5600,0.874
24.6000,0.899
24.6400,0.882
24.6800,0.830
24.7200,0.839
24.7600,0.903
24.8000,0.858
24.8400,0.870
24.8800,0.848
24.9200,0.818
24.9600,0.860
25.0000,0.855
25.0400,0.850
25.0800,0.838
25.1200,0.860
25.1600,0.831
25.2000,0.826
25.2400,0.805
25.2800,0.847
25.3200,0.840
25.3600,0.847
25.4000,0.855
25.4400,0.870
25.4800,0.802
25.5200,0.809
25.5600,0.851
25.6000,0.815
25.6400,0.836
25.6800,0.772
25.7200,0.837
25.7600,0.794
25.8000,0.795
25.8400,0.844
25.8800,0.812
25.9200,0.782
25.9600,0.760
26.0000,0.787
26.0400,0.777
26.0800,0.799
26.1200,0.813
26.1600,0.777
26.2000,0.768
26.2400,0.778
26.2800,0.810
26.3200,0.798
26.3600,0.792
26.4000,0.788
26.4400,0.764
26.4800,0.778
26.5200,0.775
26.5600,0.767
26.6000,0.766
26.6400,0.770
26.6800,0.775
26.7200,0.721
26.7600,0.760
26.8000,0.733
26.8400,0.775
26.8800,0.745
26.9200,0.784
26.9600,0.753
27.0000,0.729
27.0400,0.715
27.0800,0.717
27.1200,0.725
27.1600,0.754
27.2000,0.728
27.2400,0.710
27.2800,0.739
27.3200,0.756
27.3600,0.742
27.4000,0.758
27.4400,0.724
27.4800,0.735
27.5200,0.739
27.5600,0.721
27.6000,0.747
27.6400,0.749
27.6800,0.735
27.7200,0.714
27.7600,0.734
27.8000,0.690
27.8400,0.727
27.8800,0.720
27.9200,0.718
27.9600,0.709
28.0000,0.716
28.0400,0.707
28.0800,0.697
28.1200,0.703
28.1600,0.720
28.2000,0.700
28.2400,0.668
28.2800,0.708
28.3200,0.689
28.3600,0.703
28.4000,0.691
28.4400,0.672
28.4800,0.703
28.5200,0.703
28.5600,0.685
28.6000,0.696
28.6400,0.713
28.6800,0.669
28.7200,0.681
28.7600,0.639
28.8000,0.671
28.8400,0.681
28.8800,0.699
28.9200,0.699
28.9600,0.687
29.0000,0.694
29.0400,0.665
29.0800,0.712
29.1200,0.674
29.1600,0.680
29.2000,0.702
29.2400,0.638
29.2800,0.658
29.3200,0.625
29.3600,0.682
29.4000,0.637
29.4400,0.611
29.4800,0.664
29.5200,0.633
29.5600,0.677
29.6000,0.660
29.6400,0.654
29.6800,0.656
29.7200,0.658
29.7600,0.658
29.8000,0.659
29.8400,0.660
29.8800,0.657
29.9200,0.622
29.9600,0.656
30.0000,0.602
30.0400,0.644
30.0800,0.613
30.1200,0.634
30.1600,0.618
30.2000,0.646
30.2400,0.627
30.2800,0.622
30.3200,0.646
30.3600,0.618
30.4000,0.618
30.4400,0.604
30.4800,0.649
30.5200,0.625
30.5600,0.636
30.6000,0.639
30.6400,0.631
30.6800,0.632
30.7200,0.652
30.7600,0.633
30.8000,0.630
30.8400,0.633
30.8800,0.611
30.9200,0.619
30.9600,0.602
31.0000,0.625
31.0400,0.574
31.0800,0.609
31.1200,0.614
31.1600,0.621
31.2000,0.613
31.2400,0.604
31.2800,0.628
31.3200,0.623
31.3600,0.598
31.4000,0.573
31.4400,0.612
31.4800,0.606
31.5200,0.588
31.5600,0.546
31.6000,0.554
31.6400,0.602
31.6800,0.638
31.7200,0.602
31.7600,0.602
31.8000,0.580
31.8400,0.615
31.8800,0.587
31.9200,0.567
31.9600,0.563
32.0000,0.588
32.0400,0.574
32.0800,0.558
32.1200,0.560
32.1600,0.589
32.2000,0.568
32.2400,0.571
32.2800,0.580
32.3200,0.535
32.3600,0.560
32.4000,0.566
32.4400,0.595
32.4800,0.560
32.5200,0.572
32.5600,0.526
32.6000,0.537
32.6400,0.580
32.6800,0.565
32.7200,0.582
32.7600,0.584
32.8000,0.564
32.8400,0.564
32.8800,0.566
32.9200,0.532
32.9600,0.554
33.0000,0.567
33.0400,0.546
33.0800,0.556
33.1200,0.546
33.1600,0.569
33.2000,0.555
33.2400,0.541
33.2800,0.560
33.3200,0.546
33.3600,0.560
33.4000,0.547
33.4400,0.561
33.4800,0.506
33.5200,0.557
33.5600,0.549
33.6000,0.569
33.6400,0.538
33.6800,0.535
33.7200,0.547
33.7600,0.532
33.8000,0.542
33.8400,0.536
33.8800,0.508
33.9200,0.524
33.9600,0.541
34.0000,0.518
34.0400,0.545
34.0800,0.536
34.1200,0.527
34.1600,0.492
34.2000,0.525
34.2400,0.515
34.2800,0.521
34.3200,0.496
34.3600,0.514
34.4000,0.523
34.4400,0.524
34.4800,0.521
34.5200,0.513
34.5600,0.510
34.6000,0.537
34.6400,0.523
34.6800,0.504
34.7200,0.519
34.7600,0.526
34.8000,0.504
34.8400,0.526
34.8800,0.523
34.9200,0.551
34.9600,0.531
35.0000,0.503
35.0400,0.505
35.0800,0.518
35.1200,0.494
35.1600,0.507
35.2000,0.531
35.2400,0.513
35.2800,0.490
35.3200,0.511
35.3600,0.491
35.4000,0.472
35.4400,0.486
35.4800,0.501
35.5200,0.468
35.5600,0.482
35.6000,0.499
35.6400,0.475
35.6800,0.503
35.7200,0.491
35.7600,0.521
35.8000,0.518
35.8400,0.505
35.8800,0.502
35.9200,0.512
35.9600,0.505
36.0000,0.460
36.0400,0.474
36.0800,0.496
36.1200,0.445
36.1600,0.512
36.2000,0.488
36.2400,0.520
36.2800,0.489
36.3200,0.471
36.3600,0.464
36.4000,0.493
36.4400,0.464
36.4800,0.509
36.5200,0.482
36.5600,0.485
36.6000,0.472
36.6400,0.464
36.6800,0.486
36.7200,0.492
36.7600,0.478
36.8000,0.489
36.8400,0.481
36.8800,0.507
36.9200,0.484
36.9600,0.519
37.0000,0.517
37.0400,0.507
37.0800,0.491
37.1200,0.515
37.1600,0.505
37.2000,0.462
37.2400,0.465
37.2800,0.515
37.3200,0.486
37.3600,0.506
37.4000,0.485
37.4400,0.532
37.4800,0.488
37.5200,0.489
37.5600,0.529
37.6000,0.524
37.6400,0.512
37.6800,0.525
37.7200,0.525
37.7600,0.518
37.8000,0.572
37.8400,0.510
37.8800,0.544
37.9200,0.582
37.9600,0.564
38.0000,0.587
38.0400,0.623
38.0800,0.615
38.1200,0.686
38.1600,0.730
38.2000,0.783
38.2400,0.810
38.2800,0.923
38.3200,1.012
38.3600,1.124
38.4000,1.326
38.4400,1.499
38.4800,1.831
38.5200,2.094
38.5600,2.393
38.6000,2.696
38.6400,2.949
38.6800,3.379
38.7200,3.605
38.7600,3.929
38.8000,4.246
38.8400,4.532
38.8800,4.622
38.9200,4.810
38.9600,4.826
39.0000,4.889
39.0400,4.766
39.0800,4.675
39.1200,4.575
39.1600,4.402
39.2000,4.273
39.2400,3.914
39.2800,3.703
39.3200,3.465
39.3600,3.120
39.4000,2.932
39.4400,2.608
39.4800,2.370
39.5200,2.272
39.5600,1.958
39.6000,1.910
39.6400,1.727
39.6800,1.586
39.7200,1.430
39.7600,1.358
39.8000,1.287
39.8400,1.204
39.8800,1.184
39.9200,1.146
39.9600,1.185
40.0000,1.114
40.0400,1.084
40.0800,1.092
40.1200,1.031
40.1600,0.983
40.2000,0.949
40.2400,0.858
40.2800,0.821
40.3200,0.729
40.3600,0.690
40.4000,0.636
40.4400,0.611
40.4800,0.566
40.5200,0.520
40.5600,0.540
40.6000,0.516
40.6400,0.510
40.6800,0.512
40.7200,0.493
40.7600,0.504
40.8000,0.481
40.8400,0.465
40.8800,0.458
40.9200,0.440
40.9600,0.451
41.0000,0.452
41.0400,0.469
41.0800,0.439
41.1200,0.437
41.1600,0.426
41.2000,0.433
41.2400,0.426
41.2800,0.393
41.3200,0.438
41.3600,0.431
41.4000,0.401
41.4400,0.400
41.4800,0.397
41.5200,0.409
41.5600,0.391
41.6000,0.393
41.6400,0.390
41.6800,0.422
41.7200,0.424
41.7600,0.393
41.8000,0.374
41.8400,0.413
41.8800,0.396
41.9200,0.401
41.9600,0.398
42.0000,0.390
42.0400,0.353
42.0800,0.396
42.1200,0.392
42.1600,0.406
42.2000,0.391
42.2400,0.371
42.2800,0.388
42.3200,0.386
42.3600,0.377
42.4000,0.376
42.4400,0.370
42.4800,0.397
42.5200,0.378
42.5600,0.387
42.6000,0.413
42.6400,0.367
42.6800,0.358
42.7200,0.382
42.7600,0.385
42.8000,0.399
42.8400,0.367
42.8800,0.352
42.9200,0.359
42.9600,0.362
43.0000,0.371
43.0400,0.382
43.0800,0.413
43.1200,0.389
43.1600,0.405
43.2000,0.401
43.2400,0.368
43.2800,0.357
43.3200,0.371
43.3600,0.383
43.4000,0.358
43.4400,0.381
43.4800,0.405
43.5200,0.368
43.5600,0.389
43.6000,0.387
43.6400,0.393
43.6800,0.408
43.7200,0.396
43.7600,0.401
43.8000,0.393
43.8400,0.418
43.8800,0.391
43.9200,0.428
43.9600,0.415
44.0000,0.426
44.0400,0.396
44.0800,0.443
44.1200,0.491
44.1600,0.481
44.2000,0.515
44.2400,0.471
44.2800,0.482
44.3200,0.541
44.3600,0.539
44.4000,0.552
44.4400,0.609
44.4800,0.669
44.5200,0.659
44.5600,0.724
44.6000,0.787
44.6400,0.843
44.6800,0.883
44.7200,1.010
44.7600,1.073
44.8000,1.189
44.8400,1.307
44.8800,1.411
44.9200,1.539
44.9600,1.613
45.0000,1.671
45.0400,1.829
45.0800,1.959
45.1200,1.954
45.1600,2.002
45.2000,2.093
45.2400,2.141
45.2800,2.126
45.3200,2.194
45.3600,2.131
45.4000,2.105
45.4400,2.041
45.4800,2.001
45.5200,1.983
45.5600,1.891
45.6000,1.831
45.6400,1.694
45.6800,1.653
45.7200,1.527
45.7600,1.411
45.8000,1.395
45.8400,1.301
45.8800,1.129
45.9200,1.095
45.9600,1.061
46.0000,0.996
46.0400,0.955
46.0800,0.903
46.1200,0.823
46.1600,0.783
46.2000,0.773
46.2400,0.742
46.2800,0.715
46.3200,0.700
46.3600,0.659
46.4000,0.642
46.4400,0.609
46.4800,0.630
46.5200,0.639
46.5600,0.564
46.6000,0.589
46.6400,0.550
46.6800,0.560
46.7200,0.536
46.7600,0.511
46.8000,0.482
46.8400,0.478
46.8800,0.462
46.9200,0.407
46.9600,0.449
47.0000,0.404
47.0400,0.408
47.0800,0.386
47.1200,0.371
47.1600,0.375
47.2000,0.361
47.2400,0.354
47.2800,0.357
47.3200,0.337
47.3600,0.339
47.4000,0.326
47.4400,0.330
47.4800,0.321
47.5200,0.351
47.5600,0.338
47.6000,0.293
47.6400,0.293
47.6800,0.295
47.7200,0.303
47.7600,0.304
47.8000,0.288
47.8400,0.304
47.8800,0.294
47.9200,0.272
47.9600,0.302
48.0000,0.308
48.0400,0.272
48.0800,0.304
48.1200,0.275
48.1600,0.285
48.2000,0.293
48.2400,0.305
48.2800,0.284
48.3200,0.293
48.3600,0.273
48.4000,0.276
48.4400,0.302
48.4800,0.274
48.5200,0.259
48.5600,0.273
48.6000,0.270
48.6400,0.281
48.6800,0.295
48.7200,0.269
48.7600,0.296
48.8000,0.276
48.8400,0.281
48.8800,0.286
48.9200,0.286
48.9600,0.295
49.0000,0.255
49.0400,0.282
49.0800,0.270
49.1200,0.259
49.1600,0.253
49.2000,0.264
49.2400,0.286
49.2800,0.261
49.3200,0.276
49.3600,0.254
49.4000,0.264
49.4400,0.259
49.4800,0.261
49.5200,0.277
49.5600,0.237
49.6000,0.255
49.6400,0.272
49.6800,0.257
49.7200,0.256
49.7600,0.255
49.8000,0.268
49.8400,0.276
49.8800,0.282
49.9200,0.280
49.9600,0.254
50.0000,0.252
50.0400,0.265
50.0800,0.223
50.1200,0.270
50.1600,0.259
50.2000,0.244
50.2400,0.245
50.2800,0.248
50.3200,0.237
50.3600,0.236
50.4000,0.257
50.4400,0.252
50.4800,0.241
50.5200,0.255
50.5600,0.255
50.6000,0.265
50.6400,0.249
50.6800,0.257
50.7200,0.245
50.7600,0.244
50.8000,0.267
50.8400,0.241
50.8800,0.253
50.9200,0.234
50.9600,0.236
51.0000,0.251
51.0400,0.248
51.0800,0.271
51.1200,0.228
51.1600,0.249
51.2000,0.265
51.2400,0.255
51.2800,0.242
51.3200,0.232
51.3600,0.230
51.4000,0.242
51.4400,0.264
51.4800,0.256
51.5200,0.250
51.5600,0.229
51.6000,0.242
51.6400,0.237
51.6800,0.252
51.7200,0.232
51.7600,0.249
51.8000,0.246
51.8400,0.262
51.8800,0.242
51.9200,0.243
51.9600,0.239
52.0000,0.233
52.0400,0.201
52.0800,0.238
52.1200,0.218
52.1600,0.241
52.2000,0.230
52.2400,0.269
52.2800,0.244
52.3200,0.228
52.3600,0.248
52.4000,0.241
52.4400,0.227
52.4800,0.248
52.5200,0.232
52.5600,0.229
52.6000,0.238
52.6400,0.233
52.6800,0.249
52.7200,0.231
52.7600,0.208
52.8000,0.211
52.8400,0.212
52.8800,0.230
52.9200,0.223
52.9600,0.231
53.0000,0.218
53.0400,0.237
53.0800,0.224
53.1200,0.230
53.1600,0.222
53.2000,0.233
53.2400,0.245
53.2800,0.222
53.3200,0.225
53.3600,0.213
53.4000,0.243
53.4400,0.253
53.4800,0.222
53.5200,0.220
53.5600,0.233
53.6000,0.231
53.6400,0.230
53.6800,0.195
53.7200,0.236
53.7600,0.240
53.8000,0.225
53.8400,0.239
53.8800,0.224
53.9200,0.206
53.9600,0.225
54.0000,0.241
54.0400,0.238
54.0800,0.218
54.1200,0.215
54.1600,0.227
54.2000,0.232
54.2400,0.230
54.2800,0.201
54.3200,0.221
54.3600,0.219
54.4000,0.228
54.4400,0.198
54.4800,0.203
54.5200,0.200
54.5600,0.204
54.6000,0.226
54.6400,0.235
54.6800,0.231
54.7200,0.224
54.7600,0.216
54.8000,0.220
54.8400,0.205
54.8800,0.210
54.9200,0.214
54.9600,0.205
55.0000,0.210
55.0400,0.221
55.0800,0.232
55.1200,0.209
55.1600,0.219
55.2000,0.214
55.2400,0.208
55.2800,0.217
55.3200,0.212
55.3600,0.218
55.4000,0.209
55.4400,0.191
55.4800,0.221
55.5200,0.212
55.5600,0.210
55.6000,0.220
55.6400,0.213
55.6800,0.204
55.7200,0.201
55.7600,0.211
55.8000,0.193
55.8400,0.186
55.8800,0.211
55.9200,0.204
55.9600,0.221
56.0000,0.215
56.0400,0.220
56.0800,0.195
56.1200,0.223
56.1600,0.220
56.2000,0.204
56.2400,0.186
56.2800,0.194
56.3200,0.224
56.3600,0.192
56.4000,0.197
56.4400,0.215
56.4800,0.195
56.5200,0.212
56.5600,0.213
56.6000,0.214
56.6400,0.203
56.6800,0.203
56.7200,0.190
56.7600,0.212
56.8000,0.197
56.8400,0.196
56.8800,0.207
56.9200,0.205
56.9600,0.200
57.0000,0.229
57.0400,0.216
57.0800,0.202
57.1200,0.202
57.1600,0.199
57.2000,0.215
57.2400,0.204
57.2800,0.199
57.3200,0.205
57.3600,0.202
57.4000,0.204
57.4400,0.210
57.4800,0.203
57.5200,0.192
57.5600,0.205
57.6000,0.197
57.6400,0.211
57.6800,0.198
57.7200,0.205
57.7600,0.183
57.8000,0.185
57.8400,0.203
57.8800,0.187
57.9200,0.206
57.9600,0.181
58.0000,0.187
58.0400,0.212
58.0800,0.188
58.1200,0.196
58.1600,0.202
58.2000,0.206
58.2400,0.214
58.2800,0.197
58.3200,0.210
58.3600,0.181
58.4000,0.216
58.4400,0.207
58.4800,0.203
58.5200,0.197
58.5600,0.201
58.6000,0.190
58.6400,0.194
58.6800,0.188
58.7200,0.176
58.7600,0.200
58.8000,0.212
58.8400,0.214
58.8800,0.179
58.9200,0.200
58.9600,0.189
59.0000,0.186
59.0400,0.179
59.0800,0.190
59.1200,0.188
59.1600,0.204
59.2000,0.190
59.2400,0.205
59.2800,0.190
59.3200,0.185
59.3600,0.185
59.4000,0.180
59.4400,0.204
59.4800,0.180
59.5200,0.186
59.5600,0.194
59.6000,0.197
59.6400,0.207
59.6800,0.212
59.7200,0.182
59.7600,0.195
59.8000,0.215
59.8400,0.212
59.8800,0.199
59.9200,0.202
59.9600,0.194
60.0000,0.171
60.0400,0.177
60.0800,0.185
60.1200,0.190
60.1600,0.180
60.2000,0.174
60.2400,0.189
60.2800,0.197
60.3200,0.202
60.3600,0.208
60.4000,0.193
60.4400,0.204
60.4800,0.203
60.5200,0.208
60.5600,0.196
60.6000,0.174
60.6400,0.197
60.6800,0.194
60.7200,0.214
60.7600,0.197
60.8000,0.192
60.8400,0.200
60.8800,0.196
60.9200,0.192
60.9600,0.189
61.0000,0.189
61.0400,0.200
61.0800,0.201
61.1200,0.209
61.1600,0.176
61.2000,0.185
61.2400,0.209
61.2800,0.189
61.3200,0.210
61.3600,0.196
61.4000,0.195
61.4400,0.183
61.4800,0.203
61.5200,0.205
61.5600,0.195
61.6000,0.204
61.6400,0.222
61.6800,0.211
61.7200,0.198
61.7600,0.194
61.8000,0.190
61.8400,0.201
61.8800,0.193
61.9200,0.213
61.9600,0.207
62.0000,0.181
62.0400,0.198
62.0800,0.187
62.1200,0.193
62.1600,0.191
62.2000,0.181
62.2400,0.205
62.2800,0.191
62.3200,0.186
62.3600,0.193
62.4000,0.201
62.4400,0.196
62.4800,0.214
62.5200,0.216
62.5600,0.205
62.6000,0.177
62.6400,0.190
62.6800,0.197
62.7200,0.193
62.7600,0.219
62.8000,0.212
62.8400,0.202
62.8800,0.222
62.9200,0.196
62.9600,0.193
63.0000,0.197
63.0400,0.197
63.0800,0.196
63.1200,0.223
63.1600,0.207
63.2000,0.201
63.2400,0.210
63.2800,0.197
63.3200,0.207
63.3600,0.206
63.4000,0.199
63.4400,0.217
63.4800,0.196
63.5200,0.195
63.5600,0.182
63.6000,0.213
63.6400,0.205
63.6800,0.213
63.7200,0.245
63.7600,0.195
63.8000,0.220
63.8400,0.227
63.8800,0.205
63.9200,0.226
63.9600,0.229
64.0000,0.223
64.0400,0.235
64.0800,0.222
64.1200,0.247
64.1600,0.229
64.2000,0.222
64.2400,0.234
64.2800,0.232
64.3200,0.251
64.3600,0.251
64.4000,0.232
64.4400,0.252
64.4800,0.255
64.5200,0.269
64.5600,0.273
64.6000,0.272
64.6400,0.274
64.6800,0.301
64.7200,0.300
64.7600,0.327
64.8000,0.332
64.8400,0.337
64.8800,0.346
64.9200,0.397
64.9600,0.395
65.0000,0.408
65.0400,0.455
65.0800,0.455
65.1200,0.486
65.1600,0.528
65.2000,0.572
65.2400,0.613
65.2800,0.649
65.3200,0.670
65.3600,0.687
65.4000,0.729
65.4400,0.754
65.4800,0.800
65.5200,0.836
65.5600,0.881
65.6000,0.924
65.6400,0.923
65.6800,0.950
65.7200,0.970
65.7600,0.981
65.8000,1.037
65.8400,1.013
65.8800,1.086
65.9200,1.087
65.9600,1.097
66.0000,1.067
66.0400,1.058
66.0800,1.094
66.1200,1.035
66.1600,1.062
66.2000,1.033
66.2400,1.039
66.2800,1.033
66.3200,1.026
66.3600,1.020
66.4000,0.934
66.4400,0.932
66.4800,0.900
66.5200,0.859
66.5600,0.810
66.6000,0.788
66.6400,0.788
66.6800,0.788
66.7200,0.751
66.7600,0.712
66.8000,0.669
66.8400,0.672
66.8800,0.640
66.9200,0.616
66.9600,0.597
67.0000,0.595
67.0400,0.571
67.0800,0.571
67.1200,0.533
67.1600,0.501
67.2000,0.481
67.2400,0.492
67.2800,0.470
67.3200,0.474
67.3600,0.490
67.4000,0.460
67.4400,0.477
67.4800,0.445
67.5200,0.451
67.5600,0.429
67.6000,0.449
67.6400,0.455
67.6800,0.441
67.7200,0.444
67.7600,0.436
67.8000,0.451
67.8400,0.466
67.8800,0.433
67.9200,0.458
67.9600,0.429
68.0000,0.468
68.0400,0.434
68.0800,0.455
68.1200,0.459
68.1600,0.487
68.2000,0.461
68.2400,0.445
68.2800,0.494
68.3200,0.457
68.3600,0.437
68.4000,0.461
68.4400,0.470
68.4800,0.493
68.5200,0.454
68.5600,0.495
68.6000,0.501
68.6400,0.509
68.6800,0.596
68.7200,0.612
68.7600,0.713
68.8000,0.791
68.8400,0.915
68.8800,1.007
68.9200,1.065
68.9600,1.222
69.0000,1.544
69.0400,2.498
69.0800,6.355
69.1200,19.260
69.1600,35.273
69.2000,36.993
69.2400,34.510
69.2800,17.518
69.3200,13.664
69.3600,19.712
69.4000,20.245
69.4400,17.984
69.4800,7.684
69.5200,2.596
69.5600,1.471
69.6000,1.125
69.6400,0.919
69.6800,0.818
69.7200,0.701
69.7600,0.665
69.8000,0.578
69.8400,0.575
69.8800,0.535
69.9200,0.513
69.9600,0.488
70.0000,0.492
70.0400,0.467
70.0800,0.473
70.1200,0.464
70.1600,0.399
70.2000,0.432
70.2400,0.429
70.2800,0.377
70.3200,0.390
70.3600,0.403
70.4000,0.356
70.4400,0.359
70.4800,0.385
70.5200,0.345
70.5600,0.358
70.6000,0.344
70.6400,0.315
70.6800,0.332
70.7200,0.329
70.7600,0.313
70.8000,0.336
70.8400,0.321
70.8800,0.315
70.9200,0.287
70.9600,0.300
71.0000,0.319
71.0400,0.296
71.0800,0.291
71.1200,0.308
71.1600,0.319
71.2000,0.292
71.2400,0.277
71.2800,0.255
71.3200,0.254
71.3600,0.259
71.4000,0.254
71.4400,0.276
71.4800,0.284
71.5200,0.266
71.5600,0.250
71.6000,0.241
71.6400,0.264
71.6800,0.265
71.7200,0.235
71.7600,0.239
71.8000,0.244
71.8400,0.224
71.8800,0.235
71.9200,0.231
71.9600,0.210
72.0000,0.205
72.0400,0.232
72.0800,0.221
72.1200,0.247
72.1600,0.201
72.2000,0.218
72.2400,0.221
72.2800,0.218
72.3200,0.226
72.3600,0.211
72.4000,0.232
72.4400,0.214
72.4800,0.207
72.5200,0.199
72.5600,0.216
72.6000,0.214
72.6400,0.210
72.6800,0.215
72.7200,0.221
72.7600,0.209
72.8000,0.192
72.8400,0.187
72.8800,0.218
72.9200,0.185
72.9600,0.200
73.0000,0.198
73.0400,0.203
73.0800,0.191
73.1200,0.198
73.1600,0.203
73.2000,0.181
73.2400,0.192
73.2800,0.187
73.3200,0.183
73.3600,0.200
73.4000,0.193
73.4400,0.179
73.4800,0.189
73.5200,0.175
73.5600,0.185
73.6000,0.202
73.6400,0.206
73.6800,0.182
73.7200,0.183
73.7600,0.196
73.8000,0.179
73.8400,0.182
73.8800,0.165
73.9200,0.202
73.9600,0.188
74.0000,0.173
74.0400,0.169
74.0800,0.179
74.1200,0.176
74.1600,0.185
74.2000,0.159
74.2400,0.153
74.2800,0.187
74.3200,0.195
74.3600,0.185
74.4000,0.178
74.4400,0.182
74.4800,0.197
74.5200,0.186
74.5600,0.187
74.6000,0.174
74.6400,0.175
74.6800,0.168
74.7200,0.168
74.7600,0.171
74.8000,0.183
74.8400,0.199
74.8800,0.171
74.9200,0.165
74.9600,0.173
75.0000,0.183
75.0400,0.182
75.0800,0.185
75.1200,0.177
75.1600,0.192
75.2000,0.164
75.2400,0.169
75.2800,0.176
75.3200,0.165
75.3600,0.182
75.4000,0.167
75.4400,0.189
75.4800,0.195
75.5200,0.188
75.5600,0.169
75.6000,0.168
75.6400,0.181
75.6800,0.179
75.7200,0.159
75.7600,0.174
75.8000,0.160
75.8400,0.173
75.8800,0.179
75.9200,0.188
75.9600,0.167
76.0000,0.196
76.0400,0.184
76.0800,0.186
76.1200,0.167
76.1600,0.174
76.2000,0.176
76.2400,0.194
76.2800,0.186
76.3200,0.174
76.3600,0.164
76.4000,0.183
76.4400,0.193
76.4800,0.184
76.5200,0.189
76.5600,0.175
76.6000,0.178
76.6400,0.165
76.6800,0.178
76.7200,0.162
76.7600,0.174
76.8000,0.157
76.8400,0.190
76.8800,0.201
76.9200,0.189
76.9600,0.184
77.0000,0.192
77.0400,0.202
77.0800,0.216
77.1200,0.201
77.1600,0.189
77.2000,0.185
77.2400,0.209
77.2800,0.192
77.3200,0.202
77.3600,0.215
77.4000,0.207
77.4400,0.229
77.4800,0.206
77.5200,0.217
77.5600,0.231
77.6000,0.243
77.6400,0.223
77.6800,0.234
77.7200,0.254
77.7600,0.276
77.8000,0.271
77.8400,0.280
77.8800,0.290
77.9200,0.306
77.9600,0.325
78.0000,0.325
78.0400,0.324
78.0800,0.329
78.1200,0.365
78.1600,0.398
78.2000,0.412
78.2400,0.442
78.2800,0.442
78.3200,0.468
78.3600,0.506
78.4000,0.544
78.4400,0.556
78.4800,0.559
78.5200,0.597
78.5600,0.587
78.6000,0.649
78.6400,0.706
78.6800,0.700
78.7200,0.715
78.7600,0.756
78.8000,0.799
78.8400,0.821
78.8800,0.840
78.9200,0.860
78.9600,0.831
79.0000,0.872
79.0400,0.844
79.0800,0.880
79.1200,0.914
79.1600,0.920
79.2000,0.899
79.2400,0.943
79.2800,0.965
79.3200,0.901
79.3600,0.893
79.4000,0.959
79.4400,0.939
79.4800,0.954
79.5200,0.917
79.5600,0.946
79.6000,0.903
79.6400,0.886
79.6800,0.867
79.7200,0.903
79.7600,0.837
79.8000,0.842
79.8400,0.871
79.8800,0.798
79.9200,0.776
79.9600,0.754
80.0000,0.732
