theta,intensity
5.0000,2.781
5.0400,2.542
5.0800,2.575
5.1200,2.397
5.1600,2.552
5.2000,2.553
5.2400,2.413
5.2800,2.477
5.3200,2.446
5.3600,2.469
5.4000,2.408
5.4400,2.359
5.4800,2.371
5.5200,2.474
5.5600,2.314
5.6000,2.356
5.6400,2.386
5.6800,2.281
5.7200,2.332
5.7600,2.298
5.8000,2.315
5.8400,2.323
5.8800,2.313
5.9200,2.297
5.9600,2.183
6.0000,2.161
6.0400,2.183
6.0800,2.191
6.1200,2.167
6.1600,2.130
6.2000,2.151
6.2400,2.098
6.2800,2.145
6.3200,2.140
6.3600,2.061
6.4000,2.026
6.4400,2.013
6.4800,1.980
6.5200,1.962
6.5600,1.942
6.6000,1.939
6.6400,1.966
6.6800,1.913
6.7200,1.923
6.7600,1.939
6.8000,1.844
6.8400,1.882
6.8800,1.862
6.9200,1.902
6.9600,1.855
7.0000,1.832
7.0400,1.757
7.0800,1.727
7.1200,1.732
7.1600,1.746
7.2000,1.693
7.2400,1.696
7.2800,1.646
7.3200,1.684
7.3600,1.668
7.4000,1.680
7.4400,1.655
7.4800,1.655
7.5200,1.622
7.5600,1.665
7.6000,1.599
7.6400,1.576
7.6800,1.582
7.7200,1.630
7.7600,1.602
7.8000,1.606
7.8400,1.535
7.8800,1.544
7.9200,1.546
7.9600,1.549
8.0000,1.527
8.0400,1.512
8.0800,1.531
8.1200,1.531
8.1600,1.471
8.2000,1.523
8.2400,1.516
8.2800,1.486
8.3200,1.513
8.3600,1.507
8.4000,1.540
8.4400,1.489
8.4800,1.533
8.5200,1.462
8.5600,1.444
8.6000,1.408
8.6400,1.451
8.6800,1.432
8.7200,1.446
8.7600,1.420
8.8000,1.434
8.8400,1.444
8.8800,1.442
8.9200,1.413
8.9600,1.460
9.0000,1.457
9.0400,1.475
9.0800,1.415
9.1200,1.431
9.1600,1.431
9.2000,1.408
9.2400,1.386
9.2800,1.376
9.3200,1.399
9.3600,1.391
9.4000,1.359
9.4400,1.357
9.4800,1.390
9.5200,1.396
9.5600,1.449
9.6000,1.356
9.6400,1.375
9.6800,1.355
9.7200,1.391
9.7600,1.417
9.8000,1.381
9.8400,1.402
9.8800,1.357
9.9200,1.462
9.9600,1.379
10.0000,1.359
10.0400,1.384
10.0800,1.380
10.1200,1.423
10.1600,1.391
10.2000,1.364
10.2400,1.353
10.2800,1.367
10.3200,1.427
10.3600,1.388
10.4000,1.363
10.4400,1.366
10.4800,1.369
10.5200,1.400
10.5600,1.397
10.6000,1.348
10.6400,1.365
10.6800,1.327
10.7200,1.359
10.7600,1.333
10.8000,1.387
10.8400,1.373
10.8800,1.400
10.9200,1.396
10.9600,1.377
11.0000,1.379
11.0400,1.380
11.0800,1.370
11.1200,1.358
11.1600,1.333
11.2000,1.320
11.2400,1.349
11.2800,1.332
11.3200,1.361
11.3600,1.345
11.4000,1.338
11.4400,1.346
11.4800,1.323
11.5200,1.364
11.5600,1.310
11.6000,1.328
11.6400,1.346
11.6800,1.331
11.7200,1.324
11.7600,1.337
11.8000,1.336
11.8400,1.366
11.8800,1.341
11.9200,1.358
11.9600,1.295
12.0000,1.319
12.0400,1.330
12.0800,1.310
12.1200,1.344
12.1600,1.312
12.2000,1.296
12.2400,1.362
12.2800,1.298
12.3200,1.297
12.3600,1.288
12.4000,1.291
12.4400,1.315
12.4800,1.348
12.5200,1.322
12.5600,1.298
12.6000,1.287
12.6400,1.314
12.6800,1.324
12.7200,1.285
12.7600,1.299
12.8000,1.335
12.8400,1.289
12.8800,1.253
12.9200,1.279
12.9600,1.342
13.0000,1.330
13.0400,1.295
13.0800,1.304
13.1200,1.358
13.1600,1.286
13.2000,1.300
13.2400,1.293
13.2800,1.300
13.3200,1.290
13.3600,1.260
13.4000,1.288
13.4400,1.267
13.4800,1.276
13.5200,1.286
13.5600,1.335
13.6000,1.280
13.6400,1.256
13.6800,1.288
13.7200,1.313
13.7600,1.289
13.8000,1.281
13.8400,1.311
13.8800,1.245
13.9200,1.289
13.9600,1.263
14.0000,1.281
14.0400,1.283
14.0800,1.297
14.1200,1.307
14.1600,1.296
14.2000,1.217
14.2400,1.277
14.2800,1.229
14.3200,1.253
14.3600,1.241
14.4000,1.210
14.4400,1.290
14.4800,1.282
14.5200,1.278
14.5600,1.276
14.6000,1.289
14.6400,1.255
14.6800,1.233
14.7200,1.226
14.7600,1.288
14.8000,1.310
14.8400,1.266
14.8800,1.310
14.9200,1.265
14.9600,1.265
15.0000,1.238
15.0400,1.281
15.0800,1.256
15.1200,1.215
15.1600,1.213
15.2000,1.250
15.2400,1.258
15.2800,1.274
15.3200,1.289
15.3600,1.311
15.4000,1.262
15.4400,1.248
15.4800,1.211
15.5200,1.211
15.5600,1.258
15.6000,1.270
15.6400,1.224
15.6800,1.227
15.7200,1.267
15.7600,1.242
15.8000,1.235
15.8400,1.244
15.8800,1.228
15.9200,1.196
15.9600,1.243
16.0000,1.232
16.0400,1.258
16.0800,1.172
16.1200,1.271
16.1600,1.220
16.2000,1.235
16.2400,1.229
16.2800,1.267
16.3200,1.255
16.3600,1.230
16.4000,1.250
16.4400,1.238
16.4800,1.220
16.5200,1.199
16.5600,1.251
16.6000,1.241
16.6400,1.236
16.6800,1.243
16.7200,1.219
16.7600,1.242
16.8000,1.220
16.8400,1.240
16.8800,1.273
16.9200,1.193
16.9600,1.260
17.0000,1.182
17.0400,1.227
17.0800,1.290
17.1200,1.251
17.1600,1.204
17.2000,1.199
17.2400,1.214
17.2800,1.208
17.3200,1.221
17.3600,1.192
17.4000,1.232
17.4400,1.230
17.4800,1.223
17.5200,1.236
17.5600,1.219
17.6000,1.200
17.6400,1.203
17.6800,1.238
17.7200,1.250
17.7600,1.177
17.8000,1.209
17.8400,1.190
17.8800,1.219
17.9200,1.246
17.9600,1.221
18.0000,1.183
18.0400,1.238
18.0800,1.281
18.1200,1.201
18.1600,1.216
18.2000,1.236
18.2400,1.269
18.2800,1.204
18.3200,1.226
18.3600,1.278
18.4000,1.209
18.4400,1.244
18.4800,1.232
18.5200,1.228
18.5600,1.241
18.6000,1.179
18.6400,1.202
18.6800,1.208
18.7200,1.240
18.7600,1.217
18.8000,1.216
18.8400,1.233
18.8800,1.206
18.9200,1.217
18.9600,1.228
19.0000,1.211
19.0400,1.252
19.0800,1.171
19.1200,1.220
19.1600,1.202
19.2000,1.186
19.2400,1.268
19.2800,1.260
19.3200,1.333
19.3600,1.225
19.4000,1.227
19.4400,1.211
19.4800,1.244
19.5200,1.279
19.5600,1.225
19.6000,1.232
19.6400,1.289
19.6800,1.248
19.7200,1.226
19.7600,1.217
19.8000,1.215
19.8400,1.256
19.8800,1.211
19.9200,1.222
19.9600,1.238
20.0000,1.192
20.0400,1.186
20.0800,1.230
20.1200,1.199
20.1600,1.244
20.2000,1.253
20.2400,1.207
20.2800,1.320
20.3200,1.199
20.3600,1.220
20.4000,1.204
20.4400,1.237
20.4800,1.267
20.5200,1.180
20.5600,1.206
20.6000,1.228
20.6400,1.215
20.6800,1.208
20.7200,1.255
20.7600,1.175
20.8000,1.246
20.8400,1.247
20.8800,1.247
20.9200,1.197
20.9600,1.201
21.0000,1.154
21.0400,1.220
21.0800,1.193
21.1200,1.172
21.1600,1.221
21.2000,1.160
21.2400,1.207
21.2800,1.192
21.3200,1.176
21.3600,1.194
21.4000,1.190
21.4400,1.149
21.4800,1.209
21.5200,1.228
21.5600,1.173
21.6000,1.169
21.6400,1.217
21.6800,1.205
21.7200,1.194
21.7600,1.195
21.8000,1.165
21.8400,1.197
21.8800,1.190
21.9200,1.169
21.9600,1.167
22.0000,1.136
22.0400,1.158
22.0800,1.111
22.1200,1.121
22.1600,1.133
22.2000,1.149
22.2400,1.155
22.2800,1.156
22.3200,1.138
22.3600,1.112
22.4000,1.107
22.4400,1.143
22.4800,1.106
22.5200,1.133
22.5600,1.117
22.6000,1.120
22.6400,1.077
22.6800,1.140
22.7200,1.100
22.7600,1.112
22.8000,1.091
22.8400,1.120
22.8800,1.085
22.9200,1.071
22.9600,1.085
23.0000,1.101
23.0400,1.144
23.0800,1.136
23.1200,1.088
23.1600,1.092
23.2000,1.117
23.2400,1.065
23.2800,1.118
23.3200,1.096
23.3600,1.069
23.4000,1.031
23.4400,1.091
23.4800,1.070
23.5200,1.036
23.5600,1.043
23.6000,1.055
23.6400,1.092
23.6800,1.073
23.7200,1.060
23.7600,1.018
23.8000,1.046
23.8400,1.082
23.8800,1.008
23.9200,1.025
23.9600,1.045
24.0000,1.031
24.0400,1.021
24.0800,0.963
24.1200,1.005
24.1600,0.983
24.2000,0.986
24.2400,0.966
24.2800,1.048
24.3200,1.032
24.3600,1.006
24.4000,1.000
24.4400,0.988
24.4800,1.019
24.5200,0.964
24.5600,0.981
24.6000,1.019
24.6400,0.953
24.6800,0.927
24.7200,0.924
24.7600,0.962
24.8000,0.971
24.8400,0.964
24.8800,0.953
24.9200,0.940
24.9600,0.964
25.0000,0.920
25.0400,0.947
25.0800,0.929
25.1200,0.919
25.1600,0.934
25.2000,0.940
25.2400,0.935
25.2800,0.932
25.3200,0.959
25.3600,0.941
25.4000,0.935
25.4400,0.926
25.4800,0.900
25.5200,0.917
25.5600,0.948
25.6000,0.911
25.6400,0.924
25.6800,0.919
25.7200,0.934
25.7600,0.910
25.8000,0.881
25.8400,0.843
25.8800,0.927
25.9200,0.914
25.9600,0.893
26.0000,0.892
26.0400,0.902
26.0800,0.877
26.1200,0.880
26.1600,0.912
26.2000,0.881
26.2400,0.899
26.2800,0.878
26.3200,0.860
26.3600,0.893
26.4000,0.859
26.4400,0.838
26.4800,0.881
26.5200,0.846
26.5600,0.856
26.6000,0.856
26.6400,0.877
26.6800,0.843
26.7200,0.847
26.7600,0.862
26.8000,0.827
26.8400,0.818
26.8800,0.769
26.9200,0.834
26.9600,0.811
27.0000,0.797
27.0400,0.802
27.0800,0.811
27.1200,0.841
27.1600,0.821
27.2000,0.828
27.2400,0.844
27.2800,0.820
27.3200,0.820
27.3600,0.809
27.4000,0.772
27.4400,0.769
27.4800,0.769
27.5200,0.797
27.5600,0.787
27.6000,0.762
27.6400,0.792
27.6800,0.754
27.7200,0.772
27.7600,0.745
27.8000,0.817
27.8400,0.807
27.8800,0.786
27.9200,0.773
27.9600,0.751
28.0000,0.795
28.0400,0.772
28.0800,0.736
28.1200,0.786
28.1600,0.780
28.2000,0.782
28.2400,0.780
28.2800,0.774
28.3200,0.746
28.3600,0.739
28.4000,0.746
28.4400,0.752
28.4800,0.754
28.5200,0.739
28.5600,0.746
28.6000,0.767
28.6400,0.735
28.6800,0.729
28.7200,0.730
28.7600,0.733
28.8000,0.703
28.8400,0.740
28.8800,0.711
28.9200,0.735
28.9600,0.732
29.0000,0.734
29.0400,0.706
29.0800,0.701
29.1200,0.741
29.1600,0.719
29.2000,0.710
29.2400,0.699
29.2800,0.713
29.3200,0.702
29.3600,0.678
29.4000,0.716
29.4400,0.692
29.4800,0.660
29.5200,0.697
29.5600,0.700
29.6000,0.690
29.6400,0.719
29.6800,0.677
29.7200,0.708
29.7600,0.728
29.8000,0.720
29.8400,0.693
29.8800,0.666
29.9200,0.662
29.9600,0.699
30.0000,0.693
30.0400,0.665
30.0800,0.659
30.1200,0.719
30.1600,0.709
30.2000,0.654
30.2400,0.710
30.2800,0.690
30.3200,0.668
30.3600,0.676
30.4000,0.705
30.4400,0.699
30.4800,0.700
30.5200,0.688
30.5600,0.696
30.6000,0.652
30.6400,0.644
30.6800,0.658
30.7200,0.675
30.7600,0.658
30.8000,0.640
30.8400,0.648
30.8800,0.670
30.9200,0.631
30.9600,0.646
31.0000,0.650
31.0400,0.664
31.0800,0.651
31.1200,0.655
31.1600,0.671
31.2000,0.653
31.2400,0.619
31.2800,0.669
31.3200,0.641
31.3600,0.691
31.4000,0.663
31.4400,0.639
31.4800,0.621
31.5200,0.648
31.5600,0.641
31.6000,0.672
31.6400,0.658
31.6800,0.606
31.7200,0.590
31.7600,0.630
31.8000,0.621
31.8400,0.616
31.8800,0.657
31.9200,0.635
31.9600,0.616
32.0000,0.621
32.0400,0.601
32.0800,0.622
32.1200,0.645
32.1600,0.618
32.2000,0.583
32.2400,0.598
32.2800,0.576
32.3200,0.620
32.3600,0.609
32.4000,0.605
32.4400,0.633
32.4800,0.623
32.5200,0.608
32.5600,0.637
32.6000,0.580
32.6400,0.579
32.6800,0.571
32.7200,0.557
32.7600,0.587
32.8000,0.617
32.8400,0.622
32.8800,0.605
32.9200,0.587
32.9600,0.633
33.0000,0.599
33.0400,0.594
33.0800,0.599
33.1200,0.578
33.1600,0.574
33.2000,0.592
33.2400,0.570
33.2800,0.590
33.3200,0.589
33.3600,0.589
33.4000,0.603
33.4400,0.609
33.4800,0.589
33.5200,0.547
33.5600,0.540
33.6000,0.589
33.6400,0.593
33.6800,0.590
33.7200,0.597
33.7600,0.579
33.8000,0.580
33.8400,0.586
33.8800,0.570
33.9200,0.579
33.9600,0.534
34.0000,0.578
34.0400,0.526
34.0800,0.618
34.1200,0.532
34.1600,0.549
34.2000,0.561
34.2400,0.543
34.2800,0.535
34.3200,0.565
34.3600,0.589
34.4000,0.558
34.4400,0.553
34.4800,0.552
34.5200,0.523
34.5600,0.548
34.6000,0.536
34.6400,0.556
34.6800,0.530
34.7200,0.544
34.7600,0.562
34.8000,0.546
34.8400,0.558
34.8800,0.531
34.9200,0.507
34.9600,0.550
35.0000,0.573
35.0400,0.528
35.0800,0.559
35.1200,0.530
35.1600,0.553
35.2000,0.547
35.2400,0.549
35.2800,0.557
35.3200,0.566
35.3600,0.559
35.4000,0.522
35.4400,0.561
35.4800,0.547
35.5200,0.565
35.5600,0.561
35.6000,0.533
35.6400,0.547
35.6800,0.506
35.7200,0.520
35.7600,0.523
35.8000,0.547
35.8400,0.544
35.8800,0.520
35.9200,0.551
35.9600,0.530
36.0000,0.554
36.0400,0.565
36.0800,0.533
36.1200,0.550
36.1600,0.566
36.2000,0.531
36.2400,0.523
36.2800,0.488
36.3200,0.524
36.3600,0.520
36.4000,0.514
36.4400,0.545
36.4800,0.544
36.5200,0.553
36.5600,0.531
36.6000,0.535
36.6400,0.551
36.6800,0.539
36.7200,0.556
36.7600,0.542
36.8000,0.506
36.8400,0.516
36.8800,0.552
36.9200,0.529
36.9600,0.548
37.0000,0.524
37.0400,0.527
37.0800,0.544
37.1200,0.489
37.1600,0.541
37.2000,0.489
37.2400,0.516
37.2800,0.497
37.3200,0.521
37.3600,0.508
37.4000,0.486
37.4400,0.519
37.4800,0.512
37.5200,0.507
37.5600,0.494
37.6000,0.482
37.6400,0.493
37.6800,0.477
37.7200,0.487
37.7600,0.483
37.8000,0.499
37.8400,0.486
37.8800,0.474
37.9200,0.488
37.9600,0.490
38.0000,0.474
38.0400,0.474
38.0800,0.493
38.1200,0.485
38.1600,0.457
38.2000,0.471
38.2400,0.502
38.2800,0.465
38.3200,0.477
38.3600,0.477
38.4000,0.459
38.4400,0.470
38.4800,0.474
38.5200,0.464
38.5600,0.460
38.6000,0.453
38.6400,0.436
38.6800,0.449
38.7200,0.472
38.7600,0.470
38.8000,0.460
38.8400,0.455
38.8800,0.424
38.9200,0.442
38.9600,0.454
39.0000,0.464
39.0400,0.440
39.0800,0.457
39.1200,0.456
39.1600,0.467
39.2000,0.477
39.2400,0.437
39.2800,0.457
39.3200,0.443
39.3600,0.413
39.4000,0.459
39.4400,0.453
39.4800,0.436
39.5200,0.425
39.5600,0.460
39.6000,0.454
39.6400,0.444
39.6800,0.452
39.7200,0.443
39.7600,0.432
39.8000,0.420
39.8400,0.433
39.8800,0.436
39.9200,0.446
39.9600,0.428
40.0000,0.440
40.0400,0.446
40.0800,0.429
40.1200,0.434
40.1600,0.451
40.2000,0.455
40.2400,0.457
40.2800,0.447
40.3200,0.417
40.3600,0.460
40.4000,0.452
40.4400,0.418
40.4800,0.446
40.5200,0.463
40.5600,0.416
40.6000,0.426
40.6400,0.451
40.6800,0.442
40.7200,0.424
40.7600,0.483
40.8000,0.506
40.8400,0.437
40.8800,0.432
40.9200,0.438
40.9600,0.428
41.0000,0.440
41.0400,0.430
41.0800,0.457
41.1200,0.422
41.1600,0.416
41.2000,0.427
41.2400,0.455
41.2800,0.453
41.3200,0.448
41.3600,0.425
41.4000,0.447
41.4400,0.435
41.4800,0.456
41.5200,0.440
41.5600,0.426
41.6000,0.449
41.6400,0.442
41.6800,0.466
41.7200,0.434
41.7600,0.462
41.8000,0.438
41.8400,0.469
41.8800,0.458
41.9200,0.483
41.9600,0.496
42.0000,0.478
42.0400,0.469
42.0800,0.465
42.1200,0.489
42.1600,0.446
42.2000,0.481
42.2400,0.494
42.2800,0.523
42.3200,0.482
42.3600,0.502
42.4000,0.526
42.4400,0.516
42.4800,0.515
42.5200,0.552
42.5600,0.577
42.6000,0.585
42.6400,0.606
42.6800,0.637
42.7200,0.611
42.7600,0.667
42.8000,0.660
42.8400,0.736
42.8800,0.792
42.9200,0.870
42.9600,0.972
43.0000,1.144
43.0400,1.326
43.0800,1.643
43.1200,2.107
43.1600,2.842
43.2000,4.009
43.2400,6.018
43.2800,8.831
43.3200,10.687
43.3600,10.705
43.4000,9.605
43.4400,8.148
43.4800,6.375
43.5200,4.543
43.5600,3.094
43.6000,2.251
43.6400,1.731
43.6800,1.357
43.7200,1.135
43.7600,0.983
43.8000,0.927
43.8400,0.792
43.8800,0.791
43.9200,0.761
43.9600,0.688
44.0000,0.654
44.0400,0.578
44.0800,0.580
44.1200,0.550
44.1600,0.572
44.2000,0.512
44.2400,0.537
44.2800,0.506
44.3200,0.519
44.3600,0.484
44.4000,0.484
44.4400,0.499
44.4800,0.442
44.5200,0.461
44.5600,0.452
44.6000,0.440
44.6400,0.439
44.6800,0.433
44.7200,0.455
44.7600,0.431
44.8000,0.402
44.8400,0.421
44.8800,0.401
44.9200,0.400
44.9600,0.401
45.0000,0.412
45.0400,0.388
45.0800,0.390
45.1200,0.408
45.1600,0.374
45.2000,0.374
45.2400,0.375
45.2800,0.409
45.3200,0.391
45.3600,0.410
45.4000,0.406
45.4400,0.375
45.4800,0.375
45.5200,0.406
45.5600,0.374
45.6000,0.378
45.6400,0.381
45.6800,0.361
45.7200,0.383
45.7600,0.363
45.8000,0.363
45.8400,0.341
45.8800,0.358
45.9200,0.340
45.9600,0.356
46.0000,0.354
46.0400,0.374
46.0800,0.364
46.1200,0.385
46.1600,0.342
46.2000,0.355
46.2400,0.372
46.2800,0.363
46.3200,0.361
46.3600,0.367
46.4000,0.373
46.4400,0.359
46.4800,0.352
46.5200,0.375
46.5600,0.362
46.6000,0.364
46.6400,0.365
46.6800,0.369
46.7200,0.362
46.7600,0.344
46.8000,0.365
46.8400,0.343
46.8800,0.331
46.9200,0.344
46.9600,0.331
47.0000,0.336
47.0400,0.322
47.0800,0.330
47.1200,0.348
47.1600,0.341
47.2000,0.325
47.2400,0.352
47.2800,0.352
47.3200,0.331
47.3600,0.343
47.4000,0.361
47.4400,0.357
47.4800,0.335
47.5200,0.314
47.5600,0.334
47.6000,0.357
47.6400,0.342
47.6800,0.322
47.7200,0.323
47.7600,0.349
47.8000,0.342
47.8400,0.341
47.8800,0.315
47.9200,0.333
47.9600,0.366
48.0000,0.350
48.0400,0.333
48.0800,0.321
48.1200,0.333
48.1600,0.337
48.2000,0.362
48.2400,0.334
48.2800,0.329
48.3200,0.339
48.3600,0.321
48.4000,0.340
48.4400,0.345
48.4800,0.351
48.5200,0.329
48.5600,0.341
48.6000,0.360
48.6400,0.335
48.6800,0.346
48.7200,0.337
48.7600,0.316
48.8000,0.341
48.8400,0.349
48.8800,0.332
48.9200,0.323
48.9600,0.365
49.0000,0.342
49.0400,0.347
49.0800,0.362
49.1200,0.342
49.1600,0.337
49.2000,0.365
49.2400,0.378
49.2800,0.355
49.3200,0.364
49.3600,0.362
49.4000,0.364
49.4400,0.373
49.4800,0.375
49.5200,0.368
49.5600,0.381
49.6000,0.389
49.6400,0.403
49.6800,0.418
49.7200,0.416
49.7600,0.417
49.8000,0.459
49.8400,0.473
49.8800,0.500
49.9200,0.497
49.9600,0.565
50.0000,0.601
50.0400,0.629
50.0800,0.706
50.1200,0.795
50.1600,0.902
50.2000,1.049
50.2400,1.201
50.2800,1.521
50.3200,1.837
50.3600,2.449
50.4000,2.924
50.4400,3.435
50.4800,3.565
50.5200,3.435
50.5600,3.276
50.6000,2.768
50.6400,2.379
50.6800,1.916
50.7200,1.469
50.7600,1.201
50.8000,0.985
50.8400,0.833
50.8800,0.740
50.9200,0.685
50.9600,0.619
51.0000,0.558
51.0400,0.495
51.0800,0.484
51.1200,0.484
51.1600,0.443
51.2000,0.412
51.2400,0.375
51.2800,0.382
51.3200,0.374
51.3600,0.359
51.4000,0.354
51.4400,0.344
51.4800,0.338
51.5200,0.333
51.5600,0.295
51.6000,0.300
51.6400,0.327
51.6800,0.337
51.7200,0.319
51.7600,0.301
51.8000,0.299
51.8400,0.298
51.8800,0.293
51.9200,0.302
51.9600,0.296
52.0000,0.307
52.0400,0.302
52.0800,0.282
52.1200,0.290
52.1600,0.279
52.2000,0.280
52.2400,0.286
52.2800,0.287
52.3200,0.275
52.3600,0.299
52.4000,0.288
52.4400,0.283
52.4800,0.275
52.5200,0.278
52.5600,0.295
52.6000,0.258
52.6400,0.266
52.6800,0.247
52.7200,0.276
52.7600,0.278
52.8000,0.271
52.8400,0.256
52.8800,0.274
52.9200,0.286
52.9600,0.283
53.0000,0.256
53.0400,0.253
53.0800,0.260
53.1200,0.244
53.1600,0.247
53.2000,0.272
53.2400,0.254
53.2800,0.269
53.3200,0.259
53.3600,0.253
53.4000,0.265
53.4400,0.272
53.4800,0.282
53.5200,0.260
53.5600,0.259
53.6000,0.267
53.6400,0.276
53.6800,0.252
53.7200,0.242
53.7600,0.272
53.8000,0.256
53.8400,0.249
53.8800,0.275
53.9200,0.261
53.9600,0.249
54.0000,0.264
54.0400,0.273
54.0800,0.224
54.1200,0.244
54.1600,0.282
54.2000,0.241
54.2400,0.258
54.2800,0.244
54.3200,0.241
54.3600,0.248
54.4000,0.262
54.4400,0.261
54.4800,0.253
54.5200,0.265
54.5600,0.263
54.6000,0.239
54.6400,0.235
54.6800,0.235
54.7200,0.227
54.7600,0.239
54.8000,0.254
54.8400,0.248
54.8800,0.226
54.9200,0.229
54.9600,0.269
55.0000,0.244
55.0400,0.255
55.0800,0.262
55.1200,0.222
55.1600,0.255
55.2000,0.256
55.2400,0.250
55.2800,0.260
55.3200,0.227
55.3600,0.241
55.4000,0.237
55.4400,0.226
55.4800,0.258
55.5200,0.250
55.5600,0.229
55.6000,0.240
55.6400,0.243
55.6800,0.249
55.7200,0.227
55.7600,0.231
55.8000,0.219
55.8400,0.219
55.8800,0.243
55.9200,0.233
55.9600,0.246
56.0000,0.246
56.0400,0.238
56.0800,0.225
56.1200,0.227
56.1600,0.233
56.2000,0.236
56.2400,0.235
56.2800,0.251
56.3200,0.236
56.3600,0.245
56.4000,0.230
56.4400,0.249
56.4800,0.237
56.5200,0.240
56.5600,0.240
56.6000,0.230
56.6400,0.238
56.6800,0.217
56.7200,0.222
56.7600,0.238
56.8000,0.256
56.8400,0.235
56.8800,0.229
56.9200,0.229
56.9600,0.226
57.0000,0.241
57.0400,0.232
57.0800,0.224
57.1200,0.225
57.1600,0.231
57.2000,0.233
57.2400,0.223
57.2800,0.221
57.3200,0.232
57.3600,0.231
57.4000,0.225
57.4400,0.213
57.4800,0.245
57.5200,0.204
57.5600,0.219
57.6000,0.231
57.6400,0.247
57.6800,0.234
57.7200,0.230
57.7600,0.240
57.8000,0.215
57.8400,0.202
57.8800,0.264
57.9200,0.226
57.9600,0.232
58.0000,0.218
58.0400,0.234
58.0800,0.201
58.1200,0.218
58.1600,0.233
58.2000,0.229
58.2400,0.226
58.2800,0.219
58.3200,0.227
58.3600,0.235
58.4000,0.230
58.4400,0.233
58.4800,0.232
58.5200,0.227
58.5600,0.219
58.6000,0.206
58.6400,0.228
58.6800,0.232
58.7200,0.219
58.7600,0.220
58.8000,0.239
58.8400,0.208
58.8800,0.240
58.9200,0.215
58.9600,0.216
59.0000,0.248
59.0400,0.216
59.0800,0.227
59.1200,0.231
59.1600,0.219
59.2000,0.230
59.2400,0.242
59.2800,0.215
59.3200,0.205
59.3600,0.216
59.4000,0.236
59.4400,0.202
59.4800,0.233
59.5200,0.214
59.5600,0.210
59.6000,0.224
59.6400,0.236
59.6800,0.234
59.7200,0.220
59.7600,0.231
59.8000,0.212
59.8400,0.225
59.8800,0.228
59.9200,0.233
59.9600,0.232
60.0000,0.229
60.0400,0.224
60.0800,0.206
60.1200,0.236
60.1600,0.223
60.2000,0.198
60.2400,0.225
60.2800,0.222
60.3200,0.204
60.3600,0.220
60.4000,0.238
60.4400,0.243
60.4800,0.220
60.5200,0.235
60.5600,0.237
60.6000,0.228
60.6400,0.216
60.6800,0.214
60.7200,0.213
60.7600,0.223
60.8000,0.209
60.8400,0.226
60.8800,0.217
60.9200,0.234
60.9600,0.203
61.0000,0.210
61.0400,0.223
61.0800,0.235
61.1200,0.237
61.1600,0.223
61.2000,0.221
61.2400,0.242
61.2800,0.223
61.3200,0.203
61.3600,0.230
61.4000,0.226
61.4400,0.213
61.4800,0.228
61.5200,0.242
61.5600,0.232
61.6000,0.254
61.6400,0.229
61.6800,0.214
61.7200,0.257
61.7600,0.226
61.8000,0.225
61.8400,0.223
61.8800,0.220
61.9200,0.231
61.9600,0.245
62.0000,0.240
62.0400,0.208
62.0800,0.237
62.1200,0.223
62.1600,0.217
62.2000,0.231
62.2400,0.231
62.2800,0.225
62.3200,0.235
62.3600,0.227
62.4000,0.216
62.4400,0.231
62.4800,0.225
62.5200,0.236
62.5600,0.237
62.6000,0.229
62.6400,0.214
62.6800,0.241
62.7200,0.246
62.7600,0.231
62.8000,0.229
62.8400,0.237
62.8800,0.208
62.9200,0.214
62.9600,0.226
63.0000,0.223
63.0400,0.237
63.0800,0.219
63.1200,0.231
63.1600,0.254
63.2000,0.255
63.2400,0.238
63.2800,0.240
63.3200,0.233
63.3600,0.243
63.4000,0.257
63.4400,0.226
63.4800,0.241
63.5200,0.212
63.5600,0.238
63.6000,0.248
63.6400,0.243
63.6800,0.251
63.7200,0.225
63.7600,0.230
63.8000,0.220
63.8400,0.224
63.8800,0.241
63.9200,0.261
63.9600,0.250
64.0000,0.244
64.0400,0.238
64.0800,0.256
64.1200,0.225
64.1600,0.238
64.2000,0.230
64.2400,0.252
64.2800,0.252
64.3200,0.243
64.3600,0.254
64.4000,0.268
64.4400,0.257
64.4800,0.255
64.5200,0.251
64.5600,0.262
64.6000,0.254
64.6400,0.245
64.6800,0.262
64.7200,0.254
64.7600,0.230
64.8000,0.226
64.8400,0.263
64.8800,0.256
64.9200,0.232
64.9600,0.253
65.0000,0.261
65.0400,0.274
65.0800,0.259
65.1200,0.273
65.1600,0.278
65.2000,0.289
65.2400,0.289
65.2800,0.277
65.3200,0.302
65.3600,0.277
65.4000,0.282
65.4400,0.273
65.4800,0.285
65.5200,0.302
65.5600,0.275
65.6000,0.286
65.6400,0.296
65.6800,0.287
65.7200,0.302
65.7600,0.268
65.8000,0.308
65.8400,0.319
65.8800,0.297
65.9200,0.333
65.9600,0.323
66.0000,0.329
66.0400,0.324
66.0800,0.313
66.1200,0.340
66.1600,0.322
66.2000,0.316
66.2400,0.326
66.2800,0.321
66.3200,0.336
66.3600,0.342
66.4000,0.343
66.4400,0.331
66.4800,0.348
66.5200,0.362
66.5600,0.367
66.6000,0.351
66.6400,0.347
66.6800,0.346
66.7200,0.359
66.7600,0.363
66.8000,0.379
66.8400,0.374
66.8800,0.374
66.9200,0.381
66.9600,0.386
67.0000,0.372
67.0400,0.406
67.0800,0.412
67.1200,0.416
67.1600,0.418
67.2000,0.412
67.2400,0.428
67.2800,0.453
67.3200,0.467
67.3600,0.452
67.4000,0.448
67.4400,0.449
67.4800,0.454
67.5200,0.474
67.5600,0.488
67.6000,0.482
67.6400,0.468
67.6800,0.471
67.7200,0.519
67.7600,0.507
67.8000,0.533
67.8400,0.517
67.8800,0.566
67.9200,0.549
67.9600,0.555
68.0000,0.593
68.0400,0.549
68.0800,0.612
68.1200,0.600
68.1600,0.621
68.2000,0.615
68.2400,0.635
68.2800,0.665
68.3200,0.680
68.3600,0.707
68.4000,0.706
68.4400,0.729
68.4800,0.761
68.5200,0.800
68.5600,0.797
68.6000,0.876
68.6400,0.973
68.6800,1.050
68.7200,1.218
68.7600,1.489
68.8000,1.791
68.8400,1.915
68.8800,2.006
68.9200,2.294
68.9600,2.755
69.0000,4.035
69.0400,9.038
69.0800,34.291
69.1200,71.255
69.1600,78.079
69.2000,75.449
69.2400,45.047
69.2800,27.721
69.3200,39.597
69.3600,42.502
69.4000,39.891
69.4400,21.275
69.4800,6.473
69.5200,3.183
69.5600,2.237
69.6000,1.810
69.6400,1.542
69.6800,1.409
69.7200,1.177
69.7600,1.154
69.8000,1.082
69.8400,0.956
69.8800,0.951
69.9200,0.913
69.9600,0.819
70.0000,0.837
70.0400,0.810
70.0800,0.796
70.1200,0.760
70.1600,0.747
70.2000,0.675
70.2400,0.687
70.2800,0.664
70.3200,0.664
70.3600,0.641
70.4000,0.676
70.4400,0.596
70.4800,0.604
70.5200,0.584
70.5600,0.566
70.6000,0.520
70.6400,0.514
70.6800,0.503
70.7200,0.538
70.7600,0.501
70.8000,0.514
70.8400,0.513
70.8800,0.495
70.9200,0.488
70.9600,0.479
71.0000,0.460
71.0400,0.482
71.0800,0.438
71.1200,0.420
71.1600,0.466
71.2000,0.424
71.2400,0.423
71.2800,0.410
71.3200,0.398
71.3600,0.434
71.4000,0.395
71.4400,0.395
71.4800,0.380
71.5200,0.393
71.5600,0.363
71.6000,0.381
71.6400,0.389
71.6800,0.357
71.7200,0.382
71.7600,0.363
71.8000,0.328
71.8400,0.351
71.8800,0.360
71.9200,0.349
71.9600,0.350
72.0000,0.349
72.0400,0.359
72.0800,0.322
72.1200,0.336
72.1600,0.335
72.2000,0.322
72.2400,0.312
72.2800,0.324
72.3200,0.302
72.3600,0.295
72.4000,0.282
72.4400,0.305
72.4800,0.340
72.5200,0.293
72.5600,0.305
72.6000,0.315
72.6400,0.314
72.6800,0.290
72.7200,0.297
72.7600,0.286
72.8000,0.285
72.8400,0.282
72.8800,0.289
72.9200,0.318
72.9600,0.294
73.0000,0.281
73.0400,0.286
73.0800,0.276
73.1200,0.296
73.1600,0.286
73.2000,0.295
73.2400,0.282
73.2800,0.299
73.3200,0.298
73.3600,0.314
73.4000,0.305
73.4400,0.316
73.4800,0.306
73.5200,0.327
73.5600,0.341
73.6000,0.338
73.6400,0.370
73.6800,0.381
73.7200,0.408
73.7600,0.417
73.8000,0.486
73.8400,0.525
73.8800,0.537
73.9200,0.662
73.9600,0.784
74.0000,0.953
74.0400,1.263
74.0800,1.543
74.1200,1.814
74.1600,1.823
74.2000,1.738
74.2400,1.478
74.2800,1.351
74.3200,1.385
74.3600,1.242
74.4000,1.111
74.4400,0.921
74.4800,0.745
74.5200,0.599
74.5600,0.566
74.6000,0.486
74.6400,0.435
74.6800,0.388
74.7200,0.347
74.7600,0.357
74.8000,0.300
74.8400,0.290
74.8800,0.320
74.9200,0.285
74.9600,0.274
75.0000,0.254
75.0400,0.273
75.0800,0.268
75.1200,0.251
75.1600,0.266
75.2000,0.265
75.2400,0.243
75.2800,0.240
75.3200,0.216
75.3600,0.221
75.4000,0.206
75.4400,0.217
75.4800,0.216
75.5200,0.212
75.5600,0.234
75.6000,0.215
75.6400,0.235
75.6800,0.214
75.7200,0.226
75.7600,0.221
75.8000,0.207
75.8400,0.202
75.8800,0.229
75.9200,0.205
75.9600,0.207
76.0000,0.199
76.0400,0.213
76.0800,0.211
76.1200,0.219
76.1600,0.202
76.2000,0.190
76.2400,0.209
76.2800,0.198
76.3200,0.187
76.3600,0.207
76.4000,0.194
76.4400,0.204
76.4800,0.203
76.5200,0.208
76.5600,0.193
76.6000,0.191
76.6400,0.212
76.6800,0.180
76.7200,0.204
76.7600,0.182
76.8000,0.184
76.8400,0.217
76.8800,0.189
76.9200,0.180
76.9600,0.181
77.0000,0.171
77.0400,0.209
77.0800,0.208
77.1200,0.207
77.1600,0.185
77.2000,0.206
77.2400,0.195
77.2800,0.201
77.3200,0.189
77.3600,0.173
77.4000,0.164
77.4400,0.183
77.4800,0.185
77.5200,0.196
77.5600,0.177
77.6000,0.191
77.6400,0.201
77.6800,0.180
77.7200,0.193
77.7600,0.190
77.8000,0.172
77.8400,0.195
77.8800,0.200
77.9200,0.188
77.9600,0.189
78.0000,0.193
78.0400,0.184
78.0800,0.169
78.1200,0.180
78.1600,0.158
78.2000,0.162
78.2400,0.188
78.2800,0.186
78.3200,0.188
78.3600,0.179
78.4000,0.192
78.4400,0.167
78.4800,0.169
78.5200,0.163
78.5600,0.178
78.6000,0.175
78.6400,0.157
78.6800,0.198
78.7200,0.168
78.7600,0.165
78.8000,0.180
78.8400,0.164
78.8800,0.189
78.9200,0.178
78.9600,0.175
79.0000,0.167
79.0400,0.168
79.0800,0.161
79.1200,0.179
79.1600,0.163
79.2000,0.156
79.2400,0.165
79.2800,0.186
79.3200,0.185
79.3600,0.175
79.4000,0.167
79.4400,0.166
79.4800,0.179
79.5200,0.157
79.5600,0.175
79.6000,0.183
79.6400,0.172
79.6800,0.178
79.7200,0.173
79.7600,0.153
79.8000,0.169
79.8400,0.172
79.8800,0.177
79.9200,0.166
79.9600,0.174
80.0000,0.167
