theta,intensity
5.0000,4.524
5.0400,4.511
5.0800,4.537
5.1200,4.459
5.1600,4.650
5.2000,4.415
5.2400,4.430
5.2800,4.458
5.3200,4.428
5.3600,4.419
5.4000,4.498
5.4400,4.473
5.4800,4.416
5.5200,4.501
5.5600,4.426
5.6000,4.379
5.6400,4.314
5.6800,4.439
5.7200,4.496
5.7600,4.399
5.8000,4.523
5.8400,4.465
5.8800,4.416
5.9200,4.306
5.9600,4.300
6.0000,4.315
6.0400,4.468
6.0800,4.348
6.1200,4.303
6.1600,4.250
6.2000,4.315
6.2400,4.155
6.2800,4.143
6.3200,4.265
6.3600,4.241
6.4000,4.152
6.4400,4.271
6.4800,4.219
6.5200,4.057
6.5600,4.105
6.6000,4.186
6.6400,4.276
6.6800,4.183
6.7200,4.034
6.7600,3.972
6.8000,4.066
6.8400,4.059
6.8800,4.165
6.9200,4.076
6.9600,4.033
7.0000,4.019
7.0400,3.959
7.0800,3.953
7.1200,3.951
7.1600,3.931
7.2000,3.963
7.2400,3.970
7.2800,4.076
7.3200,4.044
7.3600,3.926
7.4000,3.942
7.4400,3.942
7.4800,3.848
7.5200,3.771
7.5600,3.818
7.6000,3.889
7.6400,4.035
7.6800,3.962
7.7200,3.872
7.7600,3.883
7.8000,3.717
7.8400,3.845
7.8800,3.830
7.9200,3.903
7.9600,3.924
8.0000,3.781
8.0400,3.877
8.0800,3.892
8.1200,3.861
8.1600,3.961
8.2000,3.835
8.2400,3.805
8.2800,3.757
8.3200,3.801
8.3600,3.898
8.4000,3.829
8.4400,3.717
8.4800,3.867
8.5200,3.708
8.5600,3.786
8.6000,3.705
8.6400,3.860
8.6800,3.819
8.7200,3.728
8.7600,3.753
8.8000,3.786
8.8400,3.789
8.8800,3.754
8.9200,3.739
8.9600,3.726
9.0000,3.745
9.0400,3.824
9.0800,3.761
9.1200,3.663
9.1600,3.714
9.2000,3.737
9.2400,3.656
9.2800,3.630
9.3200,3.743
9.3600,3.621
9.4000,3.681
9.4400,3.626
9.4800,3.593
9.5200,3.618
9.5600,3.693
9.6000,3.783
9.6400,3.629
9.6800,3.765
9.7200,3.670
9.7600,3.824
9.8000,3.758
9.8400,3.633
9.8800,3.628
9.9200,3.548
9.9600,3.672
10.0000,3.622
10.0400,3.705
10.0800,3.607
10.1200,3.693
10.1600,3.614
10.2000,3.623
10.2400,3.751
10.2800,3.605
10.3200,3.514
10.3600,3.578
10.4000,3.476
10.4400,3.527
10.4800,3.621
10.5200,3.534
10.5600,3.690
10.6000,3.541
10.6400,3.613
10.6800,3.514
10.7200,3.588
10.7600,3.541
10.8000,3.648
10.8400,3.548
10.8800,3.513
10.9200,3.500
10.9600,3.581
11.0000,3.656
11.0400,3.572
11.0800,3.399
11.1200,3.591
11.1600,3.511
11.2000,3.380
11.2400,3.556
11.2800,3.511
11.3200,3.656
11.3600,3.611
11.4000,3.454
11.4400,3.383
11.4800,3.541
11.5200,3.595
11.5600,3.482
11.6000,3.564
11.6400,3.466
11.6800,3.520
11.7200,3.488
11.7600,3.440
11.8000,3.485
11.8400,3.441
11.8800,3.473
11.9200,3.510
11.9600,3.439
12.0000,3.411
12.0400,3.578
12.0800,3.348
12.1200,3.400
12.1600,3.423
12.2000,3.468
12.2400,3.451
12.2800,3.376
12.3200,3.305
12.3600,3.317
12.4000,3.414
12.4400,3.277
12.4800,3.381
12.5200,3.391
12.5600,3.326
12.6000,3.284
12.6400,3.346
12.6800,3.470
12.7200,3.346
12.7600,3.267
12.8000,3.394
12.8400,3.413
12.8800,3.391
12.9200,3.331
12.9600,3.333
13.0000,3.429
13.0400,3.509
13.0800,3.299
13.1200,3.223
13.1600,3.307
13.2000,3.411
13.2400,3.380
13.2800,3.364
13.3200,3.363
13.3600,3.298
13.4000,3.305
13.4400,3.326
13.4800,3.326
13.5200,3.347
13.5600,3.377
13.6000,3.305
13.6400,3.286
13.6800,3.331
13.7200,3.331
13.7600,3.260
13.8000,3.246
13.8400,3.318
13.8800,3.226
13.9200,3.225
13.9600,3.164
14.0000,3.154
14.0400,3.175
14.0800,3.279
14.1200,3.204
14.1600,3.258
14.2000,3.302
14.2400,3.182
14.2800,3.197
14.3200,3.320
14.3600,3.213
14.4000,3.130
14.4400,3.225
14.4800,3.275
14.5200,3.192
14.5600,3.184
14.6000,3.282
14.6400,3.203
14.6800,3.172
14.7200,3.139
14.7600,3.111
14.8000,3.212
14.8400,3.099
14.8800,3.121
14.9200,3.165
14.9600,3.182
15.0000,3.165
15.0400,3.225
15.0800,3.146
15.1200,3.165
15.1600,3.209
15.2000,3.216
15.2400,3.175
15.2800,3.303
15.3200,3.187
15.3600,3.220
15.4000,3.212
15.4400,3.213
15.4800,3.141
15.5200,3.150
15.5600,3.091
15.6000,3.116
15.6400,3.060
15.6800,3.007
15.7200,3.106
15.7600,3.135
15.8000,3.081
15.8400,3.113
15.8800,3.083
15.9200,3.116
15.9600,3.177
16.0000,3.075
16.0400,3.111
16.0800,3.066
16.1200,3.127
16.1600,3.131
16.2000,3.067
16.2400,3.112
16.2800,3.089
16.3200,3.158
16.3600,3.037
16.4000,3.089
16.4400,3.018
16.4800,3.079
16.5200,3.079
16.5600,3.080
16.6000,3.019
16.6400,2.943
16.6800,3.128
16.7200,2.972
16.7600,3.090
16.8000,3.024
16.8400,3.027
16.8800,3.077
16.9200,3.024
16.9600,2.995
17.0000,3.079
17.0400,2.937
17.0800,3.029
17.1200,2.888
17.1600,2.919
17.2000,2.939
17.2400,3.101
17.2800,2.967
17.3200,2.969
17.3600,2.994
17.4000,2.880
17.4400,2.985
17.4800,2.945
17.5200,2.962
17.5600,2.959
17.6000,3.004
17.6400,2.986
17.6800,2.929
17.7200,2.870
17.7600,2.858
17.8000,2.922
17.8400,2.847
17.8800,2.815
17.9200,2.943
17.9600,2.834
18.0000,2.929
18.0400,2.927
18.0800,2.989
18.1200,2.900
18.1600,2.832
18.2000,2.864
18.2400,2.935
18.2800,2.926
18.3200,2.836
18.3600,3.015
18.4000,2.975
18.4400,2.939
18.4800,2.923
18.5200,2.813
18.5600,2.775
18.6000,2.773
18.6400,2.881
18.6800,2.888
18.7200,2.737
18.7600,2.734
18.8000,2.749
18.8400,2.861
18.8800,2.823
18.9200,2.841
18.9600,2.823
19.0000,2.770
19.0400,2.850
19.0800,2.875
19.1200,2.805
19.1600,2.745
19.2000,2.727
19.2400,2.832
19.2800,2.835
19.3200,2.750
19.3600,2.860
19.4000,2.756
19.4400,2.871
19.4800,2.793
19.5200,2.828
19.5600,2.855
19.6000,2.635
19.6400,2.707
19.6800,2.666
19.7200,2.873
19.7600,2.722
19.8000,2.698
19.8400,2.753
19.8800,2.737
19.9200,2.691
19.9600,2.657
20.0000,2.739
20.0400,2.798
20.0800,2.824
20.1200,2.774
20.1600,2.681
20.2000,2.782
20.2400,2.622
20.2800,2.725
20.3200,2.732
20.3600,2.757
20.4000,2.578
20.4400,2.663
20.4800,2.709
20.5200,2.696
20.5600,2.691
20.6000,2.638
20.6400,2.582
20.6800,2.643
20.7200,2.723
20.7600,2.740
20.8000,2.626
20.8400,2.682
20.8800,2.621
20.9200,2.626
20.9600,2.574
21.0000,2.713
21.0400,2.617
21.0800,2.699
21.1200,2.556
21.1600,2.593
21.2000,2.602
21.2400,2.680
21.2800,2.609
21.3200,2.601
21.3600,2.605
21.4000,2.600
21.4400,2.634
21.4800,2.573
21.5200,2.578
21.5600,2.594
21.6000,2.668
21.6400,2.631
21.6800,2.614
21.7200,2.624
21.7600,2.721
21.8000,2.712
21.8400,2.685
21.8800,2.676
21.9200,2.601
21.9600,2.658
22.0000,2.603
22.0400,2.591
22.0800,2.620
22.1200,2.632
22.1600,2.535
22.2000,2.563
22.2400,2.561
22.2800,2.548
22.3200,2.544
22.3600,2.475
22.4000,2.508
22.4400,2.492
22.4800,2.546
22.5200,2.509
22.5600,2.443
22.6000,2.537
22.6400,2.544
22.6800,2.445
22.7200,2.575
22.7600,2.518
22.8000,2.488
22.8400,2.450
22.8800,2.370
22.9200,2.527
22.9600,2.564
23.0000,2.533
23.0400,2.498
23.0800,2.490
23.1200,2.414
23.1600,2.432
23.2000,2.536
23.2400,2.509
23.2800,2.427
23.3200,2.441
23.3600,2.415
23.4000,2.468
23.4400,2.420
23.4800,2.544
23.5200,2.481
23.5600,2.538
23.6000,2.469
23.6400,2.461
23.6800,2.416
23.7200,2.465
23.7600,2.453
23.8000,2.478
23.8400,2.429
23.8800,2.379
23.9200,2.453
23.9600,2.473
24.0000,2.438
24.0400,2.406
24.0800,2.505
24.1200,2.485
24.1600,2.431
24.2000,2.394
24.2400,2.363
24.2800,2.371
24.3200,2.372
24.3600,2.313
24.4000,2.387
24.4400,2.327
24.4800,2.397
24.5200,2.278
24.5600,2.365
24.6000,2.405
24.6400,2.344
24.6800,2.337
24.7200,2.413
24.7600,2.332
24.8000,2.376
24.8400,2.343
24.8800,2.389
24.9200,2.310
24.9600,2.286
25.0000,2.345
25.0400,2.245
25.0800,2.324
25.1200,2.378
25.1600,2.310
25.2000,2.286
25.2400,2.309
25.2800,2.303
25.3200,2.274
25.3600,2.345
25.4000,2.231
25.4400,2.290
25.4800,2.319
25.5200,2.330
25.5600,2.302
25.6000,2.247
25.6400,2.277
25.6800,2.378
25.7200,2.291
25.7600,2.317
25.8000,2.254
25.8400,2.264
25.8800,2.313
25.9200,2.265
25.9600,2.283
26.0000,2.295
26.0400,2.216
26.0800,2.256
26.1200,2.236
26.1600,2.210
26.2000,2.255
26.2400,2.226
26.2800,2.272
26.3200,2.285
26.3600,2.254
26.4000,2.232
26.4400,2.228
26.4800,2.292
26.5200,2.240
26.5600,2.242
26.6000,2.172
26.6400,2.149
26.6800,2.206
26.7200,2.325
26.7600,2.326
26.8000,2.141
26.8400,2.225
26.8800,2.201
26.9200,2.142
26.9600,2.273
27.0000,2.195
27.0400,2.224
27.0800,2.259
27.1200,2.196
27.1600,2.178
27.2000,2.228
27.2400,2.163
27.2800,2.200
27.3200,2.290
27.3600,2.255
27.4000,2.137
27.4400,2.161
27.4800,2.187
27.5200,2.198
27.5600,2.286
27.6000,2.234
27.6400,2.300
27.6800,2.264
27.7200,2.205
27.7600,2.278
27.8000,2.220
27.8400,2.240
27.8800,2.296
27.9200,2.337
27.9600,2.328
28.0000,2.182
28.0400,2.273
28.0800,2.321
28.1200,2.248
28.1600,2.287
28.2000,2.362
28.2400,2.343
28.2800,2.210
28.3200,2.277
28.3600,2.267
28.4000,2.338
28.4400,2.308
28.4800,2.314
28.5200,2.307
28.5600,2.279
28.6000,2.291
28.6400,2.373
28.6800,2.274
28.7200,2.293
28.7600,2.325
28.8000,2.309
28.8400,2.241
28.8800,2.348
28.9200,2.189
28.9600,2.215
29.0000,2.245
29.0400,2.142
29.0800,2.155
29.1200,2.218
29.1600,2.174
29.2000,2.093
29.2400,2.112
29.2800,2.017
29.3200,2.040
29.3600,2.110
29.4000,2.175
29.4400,2.065
29.4800,2.006
29.5200,2.069
29.5600,2.052
29.6000,2.052
29.6400,2.051
29.6800,2.126
29.7200,2.084
29.7600,2.141
29.8000,2.025
29.8400,1.940
29.8800,1.939
29.9200,1.984
29.9600,2.034
30.0000,1.980
30.0400,2.054
30.0800,1.970
30.1200,1.991
30.1600,1.967
30.2000,2.060
30.2400,2.031
30.2800,1.958
30.3200,2.024
30.3600,2.017
30.4000,1.999
30.4400,2.018
30.4800,2.042
30.5200,1.942
30.5600,1.858
30.6000,1.919
30.6400,1.903
30.6800,1.912
30.7200,1.836
30.7600,1.911
30.8000,1.938
30.8400,1.933
30.8800,1.822
30.9200,1.912
30.9600,1.872
31.0000,1.905
31.0400,1.847
31.0800,1.907
31.1200,1.901
31.1600,1.946
31.2000,1.908
31.2400,1.856
31.2800,1.932
31.3200,1.883
31.3600,1.883
31.4000,1.862
31.4400,1.988
31.4800,1.904
31.5200,1.798
31.5600,1.848
31.6000,1.820
31.6400,1.828
31.6800,1.743
31.7200,1.859
31.7600,1.814
31.8000,1.817
31.8400,1.817
31.8800,1.870
31.9200,1.787
31.9600,1.797
32.0000,1.741
32.0400,1.818
32.0800,1.805
32.1200,1.810
32.1600,1.821
32.2000,1.785
32.2400,1.774
32.2800,1.780
32.3200,1.672
32.3600,1.732
32.4000,1.686
32.4400,1.775
32.4800,1.787
32.5200,1.643
32.5600,1.692
32.6000,1.707
32.6400,1.751
32.6800,1.772
32.7200,1.712
32.7600,1.626
32.8000,1.668
32.8400,1.692
32.8800,1.703
32.9200,1.715
32.9600,1.645
33.0000,1.689
33.0400,1.730
33.0800,1.775
33.1200,1.653
33.1600,1.678
33.2000,1.611
33.2400,1.729
33.2800,1.636
33.3200,1.558
33.3600,1.680
33.4000,1.630
33.4400,1.619
33.4800,1.735
33.5200,1.726
33.5600,1.691
33.6000,1.648
33.6400,1.639
33.6800,1.652
33.7200,1.632
33.7600,1.590
33.8000,1.653
33.8400,1.620
33.8800,1.597
33.9200,1.650
33.9600,1.615
34.0000,1.636
34.0400,1.621
34.0800,1.611
34.1200,1.610
34.1600,1.672
34.2000,1.657
34.2400,1.608
34.2800,1.549
34.3200,1.576
34.3600,1.633
34.4000,1.639
34.4400,1.593
34.4800,1.543
34.5200,1.584
34.5600,1.621
34.6000,1.559
34.6400,1.566
34.6800,1.580
34.7200,1.603
34.7600,1.604
34.8000,1.548
34.8400,1.554
34.8800,1.562
34.9200,1.503
34.9600,1.518
35.0000,1.500
35.0400,1.571
35.0800,1.629
35.1200,1.612
35.1600,1.594
35.2000,1.551
35.2400,1.515
35.2800,1.522
35.3200,1.499
35.3600,1.621
35.4000,1.650
35.4400,1.652
35.4800,1.601
35.5200,1.626
35.5600,1.563
35.6000,1.561
35.6400,1.625
35.6800,1.627
35.7200,1.549
35.7600,1.557
35.8000,1.593
35.8400,1.599
35.8800,1.581
35.9200,1.666
35.9600,1.644
36.0000,1.707
36.0400,1.645
36.0800,1.681
36.1200,1.696
36.1600,1.688
36.2000,1.697
36.2400,1.698
36.2800,1.734
36.3200,1.707
36.3600,1.713
36.4000,1.617
36.4400,1.646
36.4800,1.631
36.5200,1.638
36.5600,1.639
36.6000,1.596
36.6400,1.567
36.6800,1.561
36.7200,1.492
36.7600,1.588
36.8000,1.588
36.8400,1.591
36.8800,1.552
36.9200,1.589
36.9600,1.542
37.0000,1.631
37.0400,1.566
37.0800,1.622
37.1200,1.617
37.1600,1.616
37.2000,1.682
37.2400,1.740
37.2800,1.725
37.3200,1.725
37.3600,1.715
37.4000,1.898
37.4400,1.807
37.4800,1.909
37.5200,1.992
37.5600,2.077
37.6000,2.179
37.6400,2.161
37.6800,2.279
37.7200,2.380
37.7600,2.360
37.8000,2.411
37.8400,2.459
37.8800,2.642
37.9200,2.716
37.9600,2.994
38.0000,3.286
38.0400,3.617
38.0800,4.073
38.1200,4.580
38.1600,5.574
38.2000,6.490
38.2400,7.653
38.2800,8.852
38.3200,9.922
38.3600,10.346
38.4000,10.629
38.4400,10.126
38.4800,9.401
38.5200,8.339
38.5600,7.416
38.6000,6.578
38.6400,6.048
38.6800,5.465
38.7200,5.149
38.7600,4.817
38.8000,4.737
38.8400,4.704
38.8800,4.687
38.9200,5.009
38.9600,5.207
39.0000,5.257
39.0400,5.446
39.0800,5.384
39.1200,5.314
39.1600,5.124
39.2000,4.843
39.2400,4.455
39.2800,4.244
39.3200,3.990
39.3600,3.706
39.4000,3.643
39.4400,3.532
39.4800,3.412
39.5200,3.498
39.5600,3.468
39.6000,3.540
39.6400,3.566
39.6800,3.561
39.7200,3.562
39.7600,3.704
39.8000,3.662
39.8400,3.744
39.8800,3.617
39.9200,3.377
39.9600,3.394
40.0000,3.133
40.0400,2.997
40.0800,2.722
40.1200,2.443
40.1600,2.383
40.2000,2.207
40.2400,2.153
40.2800,1.979
40.3200,1.967
40.3600,1.848
40.4000,1.815
40.4400,1.840
40.4800,1.781
40.5200,1.768
40.5600,1.686
40.6000,1.693
40.6400,1.616
40.6800,1.632
40.7200,1.529
40.7600,1.571
40.8000,1.564
40.8400,1.526
40.8800,1.533
40.9200,1.434
40.9600,1.490
41.0000,1.500
41.0400,1.475
41.0800,1.463
41.1200,1.464
41.1600,1.394
41.2000,1.365
41.2400,1.382
41.2800,1.328
41.3200,1.401
41.3600,1.364
41.4000,1.331
41.4400,1.320
41.4800,1.305
41.5200,1.360
41.5600,1.341
41.6000,1.292
41.6400,1.309
41.6800,1.345
41.7200,1.325
41.7600,1.347
41.8000,1.299
41.8400,1.307
41.8800,1.308
41.9200,1.295
41.9600,1.316
42.0000,1.317
42.0400,1.396
42.0800,1.288
42.1200,1.320
42.1600,1.276
42.2000,1.318
42.2400,1.324
42.2800,1.339
42.3200,1.262
42.3600,1.304
42.4000,1.335
42.4400,1.320
42.4800,1.303
42.5200,1.326
42.5600,1.302
42.6000,1.335
42.6400,1.347
42.6800,1.310
42.7200,1.340
42.7600,1.283
42.8000,1.262
42.8400,1.279
42.8800,1.355
42.9200,1.314
42.9600,1.330
43.0000,1.293
43.0400,1.253
43.0800,1.306
43.1200,1.246
43.1600,1.216
43.2000,1.348
43.2400,1.285
43.2800,1.263
43.3200,1.279
43.3600,1.276
43.4000,1.275
43.4400,1.359
43.4800,1.309
43.5200,1.364
43.5600,1.274
43.6000,1.302
43.6400,1.348
43.6800,1.423
43.7200,1.357
43.7600,1.375
43.8000,1.449
43.8400,1.512
43.8800,1.519
43.9200,1.510
43.9600,1.534
44.0000,1.617
44.0400,1.636
44.0800,1.658
44.1200,1.778
44.1600,1.844
44.2000,1.901
44.2400,2.001
44.2800,2.052
44.3200,2.274
44.3600,2.355
44.4000,2.437
44.4400,2.639
44.4800,2.640
44.5200,2.726
44.5600,2.847
44.6000,2.890
44.6400,2.783
44.6800,2.744
44.7200,2.791
44.7600,2.537
44.8000,2.530
44.8400,2.456
44.8800,2.287
44.9200,2.200
44.9600,2.016
45.0000,1.962
45.0400,1.807
45.0800,1.753
45.1200,1.671
45.1600,1.623
45.2000,1.486
45.2400,1.486
45.2800,1.439
45.3200,1.438
45.3600,1.424
45.4000,1.345
45.4400,1.294
45.4800,1.283
45.5200,1.289
45.5600,1.284
45.6000,1.232
45.6400,1.234
45.6800,1.171
45.7200,1.177
45.7600,1.157
45.8000,1.110
45.8400,1.131
45.8800,1.114
45.9200,1.110
45.9600,1.070
46.0000,1.061
46.0400,0.983
46.0800,1.074
46.1200,1.033
46.1600,1.005
46.2000,1.006
46.2400,1.024
46.2800,0.987
46.3200,1.015
46.3600,0.947
46.4000,1.034
46.4400,1.075
46.4800,0.975
46.5200,0.958
46.5600,0.985
46.6000,0.997
46.6400,0.974
46.6800,0.964
46.7200,0.984
46.7600,0.995
46.8000,0.990
46.8400,0.965
46.8800,0.974
46.9200,1.009
46.9600,0.990
47.0000,0.966
47.0400,0.922
47.0800,0.992
47.1200,0.933
47.1600,0.948
47.2000,0.925
47.2400,0.970
47.2800,0.924
47.3200,0.971
47.3600,0.931
47.4000,1.000
47.4400,0.901
47.4800,0.978
47.5200,0.997
47.5600,1.009
47.6000,0.978
47.6400,1.006
47.6800,0.930
47.7200,0.985
47.7600,1.008
47.8000,0.997
47.8400,1.019
47.8800,0.986
47.9200,0.952
47.9600,0.991
48.0000,0.917
48.0400,1.020
48.0800,0.902
48.1200,0.963
48.1600,0.992
48.2000,0.938
48.2400,0.956
48.2800,0.944
48.3200,0.971
48.3600,0.947
48.4000,0.986
48.4400,0.912
48.4800,0.981
48.5200,0.864
48.5600,0.950
48.6000,0.950
48.6400,0.893
48.6800,0.942
48.7200,0.913
48.7600,0.878
48.8000,0.913
48.8400,0.923
48.8800,0.948
48.9200,0.862
48.9600,0.863
49.0000,0.857
49.0400,0.858
49.0800,0.883
49.1200,0.934
49.1600,0.895
49.2000,0.909
49.2400,0.902
49.2800,0.902
49.3200,0.891
49.3600,0.871
49.4000,0.893
49.4400,0.873
49.4800,0.863
49.5200,0.882
49.5600,0.838
49.6000,0.872
49.6400,0.912
49.6800,0.901
49.7200,0.891
49.7600,0.903
49.8000,0.895
49.8400,0.932
49.8800,0.888
49.9200,0.911
49.9600,0.861
50.0000,0.916
50.0400,0.891
50.0800,0.864
50.1200,0.852
50.1600,0.870
50.2000,0.851
50.2400,0.836
50.2800,0.888
50.3200,0.889
50.3600,0.868
50.4000,0.897
50.4400,0.844
50.4800,0.799
50.5200,0.820
50.5600,0.803
50.6000,0.815
50.6400,0.838
50.6800,0.822
50.7200,0.802
50.7600,0.843
50.8000,0.814
50.8400,0.815
50.8800,0.817
50.9200,0.829
50.9600,0.793
51.0000,0.781
51.0400,0.836
51.0800,0.783
51.1200,0.795
51.1600,0.814
51.2000,0.793
51.2400,0.787
51.2800,0.823
51.3200,0.802
51.3600,0.812
51.4000,0.783
51.4400,0.802
51.4800,0.797
51.5200,0.772
51.5600,0.754
51.6000,0.783
51.6400,0.788
51.6800,0.780
51.7200,0.746
51.7600,0.784
51.8000,0.776
51.8400,0.756
51.8800,0.709
51.9200,0.755
51.9600,0.764
52.0000,0.756
52.0400,0.739
52.0800,0.736
52.1200,0.805
52.1600,0.768
52.2000,0.763
52.2400,0.744
52.2800,0.824
52.3200,0.709
52.3600,0.785
52.4000,0.795
52.4400,0.818
52.4800,0.735
52.5200,0.762
52.5600,0.751
52.6000,0.675
52.6400,0.689
52.6800,0.710
52.7200,0.770
52.7600,0.740
52.8000,0.758
52.8400,0.744
52.8800,0.791
52.9200,0.768
52.9600,0.742
53.0000,0.805
53.0400,0.760
53.0800,0.736
53.1200,0.686
53.1600,0.749
53.2000,0.722
53.2400,0.720
53.2800,0.707
53.3200,0.766
53.3600,0.721
53.4000,0.732
53.4400,0.800
53.4800,0.719
53.5200,0.740
53.5600,0.762
53.6000,0.774
53.6400,0.798
53.6800,0.739
53.7200,0.767
53.7600,0.732
53.8000,0.686
53.8400,0.766
53.8800,0.768
53.9200,0.740
53.9600,0.714
54.0000,0.777
54.0400,0.660
54.0800,0.691
54.1200,0.748
54.1600,0.787
54.2000,0.715
54.2400,0.737
54.2800,0.719
54.3200,0.757
54.3600,0.702
54.4000,0.772
54.4400,0.767
54.4800,0.775
54.5200,0.781
54.5600,0.778
54.6000,0.770
54.6400,0.782
54.6800,0.862
54.7200,0.814
54.7600,0.835
54.8000,0.811
54.8400,0.784
54.8800,0.783
54.9200,0.734
54.9600,0.780
55.0000,0.768
55.0400,0.810
55.0800,0.803
55.1200,0.833
55.1600,0.754
55.2000,0.749
55.2400,0.790
55.2800,0.782
55.3200,0.796
55.3600,0.750
55.4000,0.807
55.4400,0.794
55.4800,0.760
55.5200,0.802
55.5600,0.777
55.6000,0.793
55.6400,0.761
55.6800,0.776
55.7200,0.773
55.7600,0.745
55.8000,0.744
55.8400,0.774
55.8800,0.743
55.9200,0.765
55.9600,0.812
56.0000,0.787
56.0400,0.764
56.0800,0.744
56.1200,0.726
56.1600,0.776
56.2000,0.778
56.2400,0.845
56.2800,0.805
56.3200,0.811
56.3600,0.853
56.4000,0.856
56.4400,0.810
56.4800,0.867
56.5200,0.803
56.5600,0.775
56.6000,0.808
56.6400,0.828
56.6800,0.766
56.7200,0.783
56.7600,0.780
56.8000,0.730
56.8400,0.749
56.8800,0.779
56.9200,0.694
56.9600,0.680
57.0000,0.694
57.0400,0.701
57.0800,0.709
57.1200,0.675
57.1600,0.682
57.2000,0.687
57.2400,0.736
57.2800,0.726
57.3200,0.689
57.3600,0.702
57.4000,0.703
57.4400,0.660
57.4800,0.651
57.5200,0.647
57.5600,0.682
57.6000,0.711
57.6400,0.668
57.6800,0.667
57.7200,0.618
57.7600,0.635
57.8000,0.623
57.8400,0.672
57.8800,0.687
57.9200,0.691
57.9600,0.590
58.0000,0.666
58.0400,0.667
58.0800,0.673
58.1200,0.632
58.1600,0.640
58.2000,0.658
58.2400,0.666
58.2800,0.666
58.3200,0.674
58.3600,0.671
58.4000,0.670
58.4400,0.629
58.4800,0.620
58.5200,0.630
58.5600,0.652
58.6000,0.656
58.6400,0.629
58.6800,0.591
58.7200,0.645
58.7600,0.627
58.8000,0.627
58.8400,0.623
58.8800,0.631
58.9200,0.667
58.9600,0.620
59.0000,0.616
59.0400,0.647
59.0800,0.636
59.1200,0.657
59.1600,0.603
59.2000,0.627
59.2400,0.642
59.2800,0.667
59.3200,0.651
59.3600,0.619
59.4000,0.650
59.4400,0.667
59.4800,0.585
59.5200,0.651
59.5600,0.623
59.6000,0.627
59.6400,0.584
59.6800,0.605
59.7200,0.613
59.7600,0.629
59.8000,0.641
59.8400,0.652
59.8800,0.637
59.9200,0.644
59.9600,0.636
60.0000,0.667
60.0400,0.648
60.0800,0.635
60.1200,0.615
60.1600,0.663
60.2000,0.659
60.2400,0.644
60.2800,0.647
60.3200,0.619
60.3600,0.590
60.4000,0.654
60.4400,0.642
60.4800,0.638
60.5200,0.608
60.5600,0.608
60.6000,0.655
60.6400,0.651
60.6800,0.646
60.7200,0.666
60.7600,0.620
60.8000,0.677
60.8400,0.617
60.8800,0.603
60.9200,0.587
60.9600,0.664
61.0000,0.575
61.0400,0.599
61.0800,0.587
61.1200,0.644
61.1600,0.600
61.2000,0.516
61.2400,0.610
61.2800,0.549
61.3200,0.620
61.3600,0.569
61.4000,0.573
61.4400,0.595
61.4800,0.586
61.5200,0.585
61.5600,0.557
61.6000,0.602
61.6400,0.593
61.6800,0.581
61.7200,0.591
61.7600,0.583
61.8000,0.547
61.8400,0.590
61.8800,0.542
61.9200,0.546
61.9600,0.559
62.0000,0.549
62.0400,0.546
62.0800,0.586
62.1200,0.542
62.1600,0.584
62.2000,0.513
62.2400,0.549
62.2800,0.552
62.3200,0.584
62.3600,0.533
62.4000,0.560
62.4400,0.549
62.4800,0.523
62.5200,0.582
62.5600,0.604
62.6000,0.552
62.6400,0.590
62.6800,0.531
62.7200,0.549
62.7600,0.532
62.8000,0.521
62.8400,0.556
62.8800,0.562
62.9200,0.563
62.9600,0.612
63.0000,0.599
63.0400,0.541
63.0800,0.566
63.1200,0.570
63.1600,0.544
63.2000,0.558
63.2400,0.532
63.2800,0.553
63.3200,0.575
63.3600,0.537
63.4000,0.543
63.4400,0.526
63.4800,0.559
63.5200,0.540
63.5600,0.527
63.6000,0.531
63.6400,0.559
63.6800,0.631
63.7200,0.525
63.7600,0.577
63.8000,0.562
63.8400,0.537
63.8800,0.586
63.9200,0.580
63.9600,0.548
64.0000,0.584
64.0400,0.684
64.0800,0.596
64.1200,0.625
64.1600,0.598
64.2000,0.613
64.2400,0.692
64.2800,0.657
64.3200,0.726
64.3600,0.726
64.4000,0.821
64.4400,0.801
64.4800,0.869
64.5200,0.932
64.5600,1.014
64.6000,1.040
64.6400,1.139
64.6800,1.184
64.7200,1.198
64.7600,1.326
64.8000,1.306
64.8400,1.304
64.8800,1.316
64.9200,1.363
64.9600,1.308
65.0000,1.295
65.0400,1.270
65.0800,1.256
65.1200,1.214
65.1600,1.115
65.2000,1.041
65.2400,1.014
65.2800,1.054
65.3200,0.958
65.3600,0.927
65.4000,0.864
65.4400,0.871
65.4800,0.782
65.5200,0.799
65.5600,0.733
65.6000,0.686
65.6400,0.688
65.6800,0.663
65.7200,0.647
65.7600,0.630
65.8000,0.642
65.8400,0.600
65.8800,0.624
65.9200,0.615
65.9600,0.574
66.0000,0.627
66.0400,0.567
66.0800,0.591
66.1200,0.601
66.1600,0.594
66.2000,0.564
66.2400,0.509
66.2800,0.561
66.3200,0.541
66.3600,0.588
66.4000,0.575
66.4400,0.527
66.4800,0.519
66.5200,0.560
66.5600,0.534
66.6000,0.550
66.6400,0.543
66.6800,0.532
66.7200,0.596
66.7600,0.562
66.8000,0.540
66.8400,0.570
66.8800,0.548
66.9200,0.569
66.9600,0.547
67.0000,0.544
67.0400,0.505
67.0800,0.504
67.1200,0.567
67.1600,0.529
67.2000,0.475
67.2400,0.560
67.2800,0.570
67.3200,0.506
67.3600,0.524
67.4000,0.488
67.4400,0.500
67.4800,0.471
67.5200,0.470
67.5600,0.475
67.6000,0.465
67.6400,0.486
67.6800,0.500
67.7200,0.459
67.7600,0.471
67.8000,0.511
67.8400,0.474
67.8800,0.508
67.9200,0.455
67.9600,0.463
68.0000,0.490
68.0400,0.455
68.0800,0.475
68.1200,0.424
68.1600,0.477
68.2000,0.464
68.2400,0.454
68.2800,0.465
68.3200,0.472
68.3600,0.459
68.4000,0.508
68.4400,0.491
68.4800,0.470
68.5200,0.467
68.5600,0.489
68.6000,0.493
68.6400,0.510
68.6800,0.465
68.7200,0.441
68.7600,0.495
68.8000,0.454
68.8400,0.454
68.8800,0.448
68.9200,0.520
68.9600,0.511
69.0000,0.525
69.0400,0.556
69.0800,0.498
69.1200,0.461
69.1600,0.507
69.2000,0.518
69.2400,0.527
69.2800,0.557
69.3200,0.558
69.3600,0.517
69.4000,0.523
69.4400,0.573
69.4800,0.519
69.5200,0.492
69.5600,0.532
69.6000,0.571
69.6400,0.570
69.6800,0.567
69.7200,0.566
69.7600,0.612
69.8000,0.616
69.8400,0.587
69.8800,0.587
69.9200,0.621
69.9600,0.611
70.0000,0.665
70.0400,0.664
70.0800,0.652
70.1200,0.720
70.1600,0.677
70.2000,0.694
70.2400,0.710
70.2800,0.724
70.3200,0.641
70.3600,0.682
70.4000,0.698
70.4400,0.674
70.4800,0.729
70.5200,0.716
70.5600,0.770
70.6000,0.745
70.6400,0.788
70.6800,0.803
70.7200,0.755
70.7600,0.769
70.8000,0.767
70.8400,0.765
70.8800,0.750
70.9200,0.760
70.9600,0.727
71.0000,0.707
71.0400,0.674
71.0800,0.648
71.1200,0.652
71.1600,0.610
71.2000,0.610
71.2400,0.578
71.2800,0.608
71.3200,0.551
71.3600,0.558
71.4000,0.512
71.4400,0.523
71.4800,0.549
71.5200,0.528
71.5600,0.522
71.6000,0.524
71.6400,0.534
71.6800,0.500
71.7200,0.520
71.7600,0.506
71.8000,0.524
71.8400,0.468
71.8800,0.497
71.9200,0.459
71.9600,0.470
72.0000,0.461
72.0400,0.468
72.0800,0.500
72.1200,0.454
72.1600,0.448
72.2000,0.464
72.2400,0.460
72.2800,0.429
72.3200,0.441
72.3600,0.494
72.4000,0.447
72.4400,0.435
72.4800,0.476
72.5200,0.485
72.5600,0.458
72.6000,0.452
72.6400,0.435
72.6800,0.472
72.7200,0.483
72.7600,0.427
72.8000,0.451
72.8400,0.456
72.8800,0.475
72.9200,0.494
72.9600,0.477
73.0000,0.470
73.0400,0.495
73.0800,0.479
73.1200,0.476
73.1600,0.514
73.2000,0.470
73.2400,0.529
73.2800,0.520
73.3200,0.534
73.3600,0.514
73.4000,0.466
73.4400,0.501
73.4800,0.492
73.5200,0.560
73.5600,0.540
73.6000,0.515
73.6400,0.545
73.6800,0.542
73.7200,0.489
73.7600,0.512
73.8000,0.533
73.8400,0.531
73.8800,0.548
73.9200,0.483
73.9600,0.466
74.0000,0.465
74.0400,0.510
74.0800,0.508
74.1200,0.461
74.1600,0.469
74.2000,0.484
74.2400,0.456
74.2800,0.447
74.3200,0.470
74.3600,0.507
74.4000,0.468
74.4400,0.429
74.4800,0.444
74.5200,0.428
74.5600,0.475
74.6000,0.404
74.6400,0.423
74.6800,0.442
74.7200,0.433
74.7600,0.431
74.8000,0.432
74.8400,0.396
74.8800,0.423
74.9200,0.416
74.9600,0.401
75.0000,0.429
75.0400,0.410
75.0800,0.399
75.1200,0.396
75.1600,0.438
75.2000,0.438
75.2400,0.411
75.2800,0.422
75.3200,0.453
75.3600,0.455
75.4000,0.373
75.4400,0.429
75.4800,0.404
75.5200,0.435
75.5600,0.402
75.6000,0.400
75.6400,0.404
75.6800,0.399
75.7200,0.406
75.7600,0.387
75.8000,0.393
75.8400,0.411
75.8800,0.401
75.9200,0.395
75.9600,0.403
76.0000,0.415
76.0400,0.386
76.0800,0.424
76.1200,0.424
76.1600,0.445
76.2000,0.417
76.2400,0.389
76.2800,0.432
76.3200,0.419
76.3600,0.425
76.4000,0.464
76.4400,0.441
76.4800,0.416
76.5200,0.440
76.5600,0.427
76.6000,0.445
76.6400,0.438
76.6800,0.456
76.7200,0.449
76.7600,0.464
76.8000,0.421
76.8400,0.482
76.8800,0.471
76.9200,0.479
76.9600,0.460
77.0000,0.516
77.0400,0.530
77.0800,0.529
77.1200,0.492
77.1600,0.551
77.2000,0.569
77.2400,0.563
77.2800,0.640
77.3200,0.648
77.3600,0.652
77.4000,0.669
77.4400,0.703
77.4800,0.744
77.5200,0.772
77.5600,0.854
77.6000,0.819
77.6400,0.804
77.6800,0.885
77.7200,0.883
77.7600,0.910
77.8000,0.904
77.8400,0.942
77.8800,0.956
77.9200,0.984
77.9600,0.990
78.0000,0.893
78.0400,0.951
78.0800,0.955
78.1200,0.937
78.1600,0.990
78.2000,0.898
78.2400,0.854
78.2800,0.818
78.3200,0.793
78.3600,0.739
78.4000,0.756
78.4400,0.692
78.4800,0.636
78.5200,0.655
78.5600,0.637
78.6000,0.580
78.6400,0.636
78.6800,0.620
78.7200,0.555
78.7600,0.525
78.8000,0.473
78.8400,0.531
78.8800,0.476
78.9200,0.468
78.9600,0.488
79.0000,0.430
79.0400,0.451
79.0800,0.430
79.1200,0.442
79.1600,0.420
79.2000,0.422
79.2400,0.436
79.2800,0.432
79.3200,0.398
79.3600,0.397
79.4000,0.370
79.4400,0.373
79.4800,0.395
79.5200,0.405
79.5600,0.418
79.6000,0.415
79.6400,0.366
79.6800,0.355
79.7200,0.409
79.7600,0.390
79.8000,0.376
79.8400,0.367
79.8800,0.369
79.9200,0.357
79.9600,0.374
80.0000,0.333
