theta,intensity
5.0000,6.283
5.0400,6.142
5.0800,6.071
5.1200,6.231
5.1600,6.115
5.2000,6.022
5.2400,5.827
5.2800,5.986
5.3200,5.747
5.3600,5.572
5.4000,5.463
5.4400,5.346
5.4800,5.555
5.5200,5.264
5.5600,5.070
5.6000,5.316
5.6400,5.243
5.6800,5.020
5.7200,4.983
5.7600,4.896
5.8000,4.884
5.8400,4.996
5.8800,4.689
5.9200,4.731
5.9600,4.507
6.0000,4.533
6.0400,4.428
6.0800,4.601
6.1200,4.445
6.1600,4.290
6.2000,4.469
6.2400,4.340
6.2800,4.344
6.3200,4.335
6.3600,4.373
6.4000,4.347
6.4400,4.415
6.4800,4.349
6.5200,4.232
6.5600,4.305
6.6000,4.157
6.6400,4.258
6.6800,4.246
6.7200,4.218
6.7600,4.198
6.8000,4.178
6.8400,4.257
6.8800,4.118
6.9200,4.201
6.9600,4.149
7.0000,4.255
7.0400,4.245
7.0800,4.125
7.1200,4.141
7.1600,4.166
7.2000,4.129
7.2400,4.113
7.2800,4.063
7.3200,4.131
7.3600,4.191
7.4000,3.938
7.4400,4.050
7.4800,4.111
7.5200,4.116
7.5600,3.981
7.6000,4.149
7.6400,4.067
7.6800,4.043
7.7200,4.048
7.7600,4.039
7.8000,4.038
7.8400,4.124
7.8800,4.081
7.9200,4.085
7.9600,4.036
8.0000,3.861
8.0400,4.093
8.0800,3.989
8.1200,3.961
8.1600,3.909
8.2000,3.880
8.2400,3.891
8.2800,4.044
8.3200,3.810
8.3600,3.904
8.4000,3.885
8.4400,3.886
8.4800,4.053
8.5200,4.038
8.5600,3.848
8.6000,3.876
8.6400,3.973
8.6800,3.825
8.7200,3.847
8.7600,3.867
8.8000,3.844
8.8400,3.920
8.8800,3.886
8.9200,3.782
8.9600,3.911
9.0000,3.980
9.0400,3.816
9.0800,3.763
9.1200,3.740
9.1600,3.987
9.2000,3.747
9.2400,3.959
9.2800,3.825
9.3200,3.791
9.3600,3.968
9.4000,3.932
9.4400,3.743
9.4800,3.733
9.5200,3.815
9.5600,3.842
9.6000,3.762
9.6400,3.776
9.6800,3.990
9.7200,3.833
9.7600,3.803
9.8000,3.819
9.8400,3.803
9.8800,3.751
9.9200,3.786
9.9600,3.749
10.0000,3.736
10.0400,3.751
10.0800,3.844
10.1200,3.860
10.1600,3.742
10.2000,3.563
10.2400,3.844
10.2800,3.771
10.3200,3.710
10.3600,3.722
10.4000,3.697
10.4400,3.748
10.4800,3.681
10.5200,3.639
10.5600,3.709
10.6000,3.601
10.6400,3.791
10.6800,3.686
10.7200,3.667
10.7600,3.671
10.8000,3.770
10.8400,3.630
10.8800,3.651
10.9200,3.817
10.9600,3.709
11.0000,3.684
11.0400,3.769
11.0800,3.619
11.1200,3.605
11.1600,3.521
11.2000,3.646
11.2400,3.633
11.2800,3.597
11.3200,3.582
11.3600,3.638
11.4000,3.546
11.4400,3.543
11.4800,3.537
11.5200,3.436
11.5600,3.581
11.6000,3.642
11.6400,3.585
11.6800,3.642
11.7200,3.577
11.7600,3.485
11.8000,3.593
11.8400,3.523
11.8800,3.634
11.9200,3.544
11.9600,3.554
12.0000,3.436
12.0400,3.458
12.0800,3.387
12.1200,3.588
12.1600,3.641
12.2000,3.680
12.2400,3.558
12.2800,3.534
12.3200,3.597
12.3600,3.456
12.4000,3.471
12.4400,3.512
12.4800,3.527
12.5200,3.558
12.5600,3.510
12.6000,3.507
12.6400,3.556
12.6800,3.551
12.7200,3.327
12.7600,3.516
12.8000,3.436
12.8400,3.518
12.8800,3.562
12.9200,3.515
12.9600,3.491
13.0000,3.552
13.0400,3.579
13.0800,3.382
13.1200,3.468
13.1600,3.418
13.2000,3.453
13.2400,3.549
13.2800,3.488
13.3200,3.464
13.3600,3.427
13.4000,3.428
13.4400,3.551
13.4800,3.442
13.5200,3.519
13.5600,3.540
13.6000,3.455
13.6400,3.457
13.6800,3.333
13.7200,3.267
13.7600,3.282
13.8000,3.447
13.8400,3.451
13.8800,3.527
13.9200,3.271
13.9600,3.370
14.0000,3.260
14.0400,3.233
14.0800,3.300
14.1200,3.339
14.1600,3.355
14.2000,3.336
14.2400,3.251
14.2800,3.450
14.3200,3.302
14.3600,3.326
14.4000,3.387
14.4400,3.400
14.4800,3.342
14.5200,3.364
14.5600,3.346
14.6000,3.212
14.6400,3.329
14.6800,3.326
14.7200,3.323
14.7600,3.237
14.8000,3.343
14.8400,3.303
14.8800,3.440
14.9200,3.300
14.9600,3.329
15.0000,3.276
15.0400,3.408
15.0800,3.292
15.1200,3.410
15.1600,3.309
15.2000,3.408
15.2400,3.412
15.2800,3.300
15.3200,3.265
15.3600,3.166
15.4000,3.318
15.4400,3.317
15.4800,3.298
15.5200,3.417
15.5600,3.110
15.6000,3.248
15.6400,3.245
15.6800,3.243
15.7200,3.246
15.7600,3.257
15.8000,3.351
15.8400,3.295
15.8800,3.109
15.9200,3.387
15.9600,3.326
16.0000,3.313
16.0400,3.181
16.0800,3.216
16.1200,3.262
16.1600,3.139
16.2000,3.131
16.2400,3.257
16.2800,3.295
16.3200,3.167
16.3600,3.200
16.4000,3.181
16.4400,3.123
16.4800,3.229
16.5200,3.158
16.5600,3.084
16.6000,3.151
16.6400,3.150
16.6800,3.051
16.7200,3.256
16.7600,3.023
16.8000,3.094
16.8400,3.084
16.8800,3.229
16.9200,3.191
16.9600,3.191
17.0000,3.139
17.0400,3.247
17.0800,3.285
17.1200,3.149
17.1600,3.254
17.2000,3.224
17.2400,3.202
17.2800,3.096
17.3200,2.938
17.3600,3.038
17.4000,3.306
17.4400,3.025
17.4800,3.042
17.5200,3.172
17.5600,3.066
17.6000,3.172
17.6400,3.240
17.6800,3.062
17.7200,3.064
17.7600,3.165
17.8000,3.171
17.8400,3.000
17.8800,3.062
17.9200,3.079
17.9600,2.823
18.0000,3.083
18.0400,3.030
18.0800,2.931
18.1200,2.985
18.1600,3.095
18.2000,3.032
18.2400,2.984
18.2800,2.890
18.3200,2.987
18.3600,2.863
18.4000,2.821
18.4400,2.992
18.4800,2.860
18.5200,2.973
18.5600,2.874
18.6000,2.902
18.6400,2.957
18.6800,2.879
18.7200,2.923
18.7600,3.063
18.8000,3.151
18.8400,3.010
18.8800,3.057
18.9200,3.048
18.9600,2.942
19.0000,3.029
19.0400,2.829
19.0800,2.867
19.1200,2.831
19.1600,2.826
19.2000,2.900
19.2400,3.068
19.2800,2.900
19.3200,2.801
19.3600,2.835
19.4000,2.755
19.4400,2.869
19.4800,2.983
19.5200,2.907
19.5600,2.799
19.6000,2.908
19.6400,2.883
19.6800,2.841
19.7200,2.905
19.7600,2.912
19.8000,2.782
19.8400,2.805
19.8800,2.828
19.9200,2.851
19.9600,2.862
20.0000,2.934
20.0400,2.866
20.0800,2.734
20.1200,2.752
20.1600,2.757
20.2000,2.867
20.2400,2.769
20.2800,2.755
20.3200,2.751
20.3600,2.895
20.4000,2.840
20.4400,2.897
20.4800,2.841
20.5200,2.807
20.5600,2.786
20.6000,2.773
20.6400,2.788
20.6800,2.854
20.7200,2.712
20.7600,2.864
20.8000,2.750
20.8400,2.842
20.8800,2.787
20.9200,2.725
20.9600,2.762
21.0000,2.867
21.0400,2.758
21.0800,2.765
21.1200,2.849
21.1600,2.720
21.2000,2.856
21.2400,2.756
21.2800,2.869
21.3200,2.735
21.3600,2.700
21.4000,2.652
21.4400,2.711
21.4800,2.660
21.5200,2.868
21.5600,2.865
21.6000,2.718
21.6400,2.699
21.6800,2.724
21.7200,2.923
21.7600,2.745
21.8000,2.675
21.8400,2.797
21.8800,2.709
21.9200,2.703
21.9600,2.799
22.0000,2.692
22.0400,2.820
22.0800,2.820
22.1200,2.833
22.1600,2.741
22.2000,2.766
22.2400,2.801
22.2800,2.707
22.3200,2.698
22.3600,2.837
22.4000,2.792
22.4400,2.806
22.4800,2.843
22.5200,2.948
22.5600,2.786
22.6000,3.008
22.6400,2.986
22.6800,2.895
22.7200,3.017
22.7600,2.914
22.8000,3.028
22.8400,2.969
22.8800,2.980
22.9200,2.901
22.9600,2.978
23.0000,2.807
23.0400,2.887
23.0800,3.041
23.1200,2.817
23.1600,2.863
23.2000,2.767
23.2400,2.846
23.2800,2.884
23.3200,2.850
23.3600,2.726
23.4000,2.771
23.4400,2.903
23.4800,2.977
23.5200,2.863
23.5600,2.763
23.6000,2.675
23.6400,2.731
23.6800,2.803
23.7200,2.750
23.7600,2.715
23.8000,2.894
23.8400,2.688
23.8800,2.658
23.9200,2.694
23.9600,2.607
24.0000,2.710
24.0400,2.703
24.0800,2.671
24.1200,2.621
24.1600,2.640
24.2000,2.662
24.2400,2.657
24.2800,2.707
24.3200,2.538
24.3600,2.685
24.4000,2.604
24.4400,2.591
24.4800,2.673
24.5200,2.682
24.5600,2.645
24.6000,2.650
24.6400,2.562
24.6800,2.721
24.7200,2.614
24.7600,2.736
24.8000,2.670
24.8400,2.586
24.8800,2.638
24.9200,2.695
24.9600,2.541
25.0000,2.595
25.0400,2.540
25.0800,2.619
25.1200,2.536
25.1600,2.589
25.2000,2.589
25.2400,2.495
25.2800,2.575
25.3200,2.600
25.3600,2.468
25.4000,2.547
25.4400,2.517
25.4800,2.603
25.5200,2.666
25.5600,2.508
25.6000,2.528
25.6400,2.522
25.6800,2.693
25.7200,2.559
25.7600,2.473
25.8000,2.464
25.8400,2.460
25.8800,2.459
25.9200,2.464
25.9600,2.510
26.0000,2.617
26.0400,2.566
26.0800,2.477
26.1200,2.450
26.1600,2.409
26.2000,2.485
26.2400,2.385
26.2800,2.407
26.3200,2.414
26.3600,2.356
26.4000,2.418
26.4400,2.577
26.4800,2.327
26.5200,2.345
26.5600,2.351
26.6000,2.658
26.6400,2.459
26.6800,2.367
26.7200,2.410
26.7600,2.518
26.8000,2.386
26.8400,2.339
26.8800,2.451
26.9200,2.470
26.9600,2.486
27.0000,2.478
27.0400,2.549
27.0800,2.661
27.1200,2.789
27.1600,2.949
27.2000,2.930
27.2400,3.047
27.2800,2.845
27.3200,2.793
27.3600,2.580
27.4000,2.329
27.4400,2.437
27.4800,2.454
27.5200,2.402
27.5600,2.507
27.6000,2.453
27.6400,2.441
27.6800,2.237
27.7200,2.405
27.7600,2.416
27.8000,2.436
27.8400,2.429
27.8800,2.383
27.9200,2.389
27.9600,2.429
28.0000,2.220
28.0400,2.391
28.0800,2.574
28.1200,2.467
28.1600,2.495
28.2000,2.361
28.2400,2.445
28.2800,2.329
28.3200,2.439
28.3600,2.398
28.4000,2.357
28.4400,2.427
28.4800,2.439
28.5200,2.434
28.5600,2.442
28.6000,2.320
28.6400,2.303
28.6800,2.340
28.7200,2.350
28.7600,2.313
28.8000,2.339
28.8400,2.402
28.8800,2.355
28.9200,2.286
28.9600,2.443
29.0000,2.409
29.0400,2.264
29.0800,2.290
29.1200,2.322
29.1600,2.338
29.2000,2.329
29.2400,2.314
29.2800,2.348
29.3200,2.270
29.3600,2.311
29.4000,2.305
29.4400,2.326
29.4800,2.193
29.5200,2.303
29.5600,2.193
29.6000,2.281
29.6400,2.237
29.6800,2.222
29.7200,2.153
29.7600,2.097
29.8000,2.280
29.8400,2.281
29.8800,2.163
29.9200,2.162
29.9600,2.176
30.0000,2.130
30.0400,2.118
30.0800,2.236
30.1200,2.189
30.1600,2.213
30.2000,2.225
30.2400,2.194
30.2800,2.194
30.3200,2.125
30.3600,2.105
30.4000,2.103
30.4400,2.114
30.4800,2.118
30.5200,2.123
30.5600,2.041
30.6000,2.134
30.6400,2.033
30.6800,2.035
30.7200,2.081
30.7600,1.971
30.8000,1.978
30.8400,2.135
30.8800,1.875
30.9200,2.007
30.9600,2.095
31.0000,2.023
31.0400,2.076
31.0800,1.985
31.1200,1.969
31.1600,1.881
31.2000,1.967
31.2400,2.056
31.2800,1.953
31.3200,1.950
31.3600,2.026
31.4000,1.937
31.4400,1.933
31.4800,1.903
31.5200,1.916
31.5600,1.881
31.6000,1.953
31.6400,1.972
31.6800,1.951
31.7200,1.966
31.7600,1.923
31.8000,1.866
31.8400,1.953
31.8800,1.958
31.9200,1.927
31.9600,1.948
32.0000,1.921
32.0400,1.922
32.0800,1.887
32.1200,1.860
32.1600,1.812
32.2000,1.968
32.2400,1.889
32.2800,1.974
32.3200,1.900
32.3600,1.884
32.4000,1.931
32.4400,1.954
32.4800,1.836
32.5200,1.773
32.5600,1.834
32.6000,1.812
32.6400,1.955
32.6800,1.834
32.7200,1.808
32.7600,1.839
32.8000,1.704
32.8400,1.844
32.8800,1.883
32.9200,1.890
32.9600,1.882
33.0000,1.902
33.0400,1.845
33.0800,1.909
33.1200,1.860
33.1600,1.828
33.2000,1.803
33.2400,1.821
33.2800,1.790
33.3200,1.933
33.3600,1.801
33.4000,1.848
33.4400,1.912
33.4800,1.780
33.5200,1.868
33.5600,1.890
33.6000,1.849
33.6400,1.763
33.6800,1.854
33.7200,1.820
33.7600,1.767
33.8000,1.804
33.8400,1.819
33.8800,1.793
33.9200,1.791
33.9600,1.811
34.0000,1.691
34.0400,1.772
34.0800,1.831
34.1200,1.705
34.1600,1.791
34.2000,1.753
34.2400,1.730
34.2800,1.841
34.3200,1.745
34.3600,1.734
34.4000,1.775
34.4400,1.775
34.4800,1.739
34.5200,1.837
34.5600,1.762
34.6000,1.848
34.6400,1.842
34.6800,1.753
34.7200,1.802
34.7600,1.830
34.8000,1.697
34.8400,1.721
34.8800,1.800
34.9200,1.811
34.9600,1.775
35.0000,1.772
35.0400,1.718
35.0800,1.814
35.1200,1.795
35.1600,1.824
35.2000,1.848
35.2400,1.862
35.2800,1.741
35.3200,1.747
35.3600,1.767
35.4000,1.671
35.4400,1.750
35.4800,1.751
35.5200,1.680
35.5600,1.731
35.6000,1.761
35.6400,1.606
35.6800,1.663
35.7200,1.646
35.7600,1.685
35.8000,1.691
35.8400,1.682
35.8800,1.801
35.9200,1.644
35.9600,1.611
36.0000,1.726
36.0400,1.628
36.0800,1.531
36.1200,1.749
36.1600,1.694
36.2000,1.643
36.2400,1.680
36.2800,1.650
36.3200,1.598
36.3600,1.758
36.4000,1.761
36.4400,1.644
36.4800,1.581
36.5200,1.596
36.5600,1.606
36.6000,1.670
36.6400,1.632
36.6800,1.577
36.7200,1.670
36.7600,1.654
36.8000,1.661
36.8400,1.642
36.8800,1.696
36.9200,1.678
36.9600,1.638
37.0000,1.656
37.0400,1.706
37.0800,1.610
37.1200,1.638
37.1600,1.648
37.2000,1.604
37.2400,1.697
37.2800,1.679
37.3200,1.723
37.3600,1.617
37.4000,1.723
37.4400,1.600
37.4800,1.737
37.5200,1.785
37.5600,1.766
37.6000,1.834
37.6400,1.834
37.6800,1.874
37.7200,2.021
37.7600,2.020
37.8000,1.952
37.8400,2.247
37.8800,2.328
37.9200,2.544
37.9600,2.801
38.0000,3.084
38.0400,3.294
38.0800,3.524
38.1200,3.645
38.1600,3.828
38.2000,3.971
38.2400,4.245
38.2800,4.543
38.3200,4.888
38.3600,5.164
38.4000,5.285
38.4400,5.574
38.4800,5.823
38.5200,6.068
38.5600,6.251
38.6000,6.643
38.6400,7.474
38.6800,7.994
38.7200,8.884
38.7600,9.638
38.8000,10.276
38.8400,10.537
38.8800,11.434
38.9200,10.982
38.9600,9.770
39.0000,8.891
39.0400,7.765
39.0800,6.944
39.1200,6.496
39.1600,5.809
39.2000,5.418
39.2400,5.051
39.2800,4.632
39.3200,4.509
39.3600,4.192
39.4000,3.960
39.4400,3.639
39.4800,3.531
39.5200,3.418
39.5600,3.368
39.6000,3.317
39.6400,3.221
39.6800,3.180
39.7200,3.116
39.7600,3.116
39.8000,3.015
39.8400,2.902
39.8800,3.055
39.9200,2.870
39.9600,2.791
40.0000,2.764
40.0400,2.779
40.0800,2.658
40.1200,2.770
40.1600,2.659
40.2000,2.667
40.2400,2.606
40.2800,2.407
40.3200,2.415
40.3600,2.361
40.4000,2.388
40.4400,2.201
40.4800,2.381
40.5200,2.149
40.5600,2.093
40.6000,2.011
40.6400,2.094
40.6800,2.093
40.7200,1.914
40.7600,1.778
40.8000,1.835
40.8400,1.681
40.8800,1.721
40.9200,1.672
40.9600,1.571
41.0000,1.564
41.0400,1.560
41.0800,1.533
41.1200,1.546
41.1600,1.482
41.2000,1.442
41.2400,1.441
41.2800,1.437
41.3200,1.375
41.3600,1.348
41.4000,1.417
41.4400,1.415
41.4800,1.383
41.5200,1.357
41.5600,1.355
41.6000,1.354
41.6400,1.386
41.6800,1.325
41.7200,1.241
41.7600,1.405
41.8000,1.363
41.8400,1.325
41.8800,1.407
41.9200,1.322
41.9600,1.358
42.0000,1.255
42.0400,1.325
42.0800,1.390
42.1200,1.319
42.1600,1.409
42.2000,1.324
42.2400,1.320
42.2800,1.279
42.3200,1.296
42.3600,1.188
42.4000,1.294
42.4400,1.237
42.4800,1.360
42.5200,1.261
42.5600,1.313
42.6000,1.161
42.6400,1.250
42.6800,1.310
42.7200,1.225
42.7600,1.273
42.8000,1.361
42.8400,1.276
42.8800,1.248
42.9200,1.286
42.9600,1.325
43.0000,1.238
43.0400,1.286
43.0800,1.272
43.1200,1.272
43.1600,1.256
43.2000,1.219
43.2400,1.282
43.2800,1.317
43.3200,1.236
43.3600,1.217
43.4000,1.309
43.4400,1.283
43.4800,1.257
43.5200,1.247
43.5600,1.280
43.6000,1.265
43.6400,1.321
43.6800,1.321
43.7200,1.405
43.7600,1.344
43.8000,1.418
43.8400,1.519
43.8800,1.501
43.9200,1.498
43.9600,1.601
44.0000,1.561
44.0400,1.565
44.0800,1.626
44.1200,1.784
44.1600,2.011
44.2000,2.056
44.2400,1.985
44.2800,2.190
44.3200,2.316
44.3600,2.203
44.4000,2.525
44.4400,2.332
44.4800,2.344
44.5200,2.357
44.5600,2.458
44.6000,2.404
44.6400,2.515
44.6800,2.590
44.7200,2.559
44.7600,2.600
44.8000,2.612
44.8400,2.654
44.8800,2.649
44.9200,2.654
44.9600,2.647
45.0000,2.628
45.0400,2.530
45.0800,2.555
45.1200,2.520
45.1600,2.450
45.2000,2.432
45.2400,2.380
45.2800,2.444
45.3200,2.394
45.3600,2.324
45.4000,2.460
45.4400,2.239
45.4800,2.375
45.5200,2.350
45.5600,2.303
45.6000,2.271
45.6400,2.247
45.6800,2.211
45.7200,2.155
45.7600,1.988
45.8000,2.095
45.8400,1.994
45.8800,1.963
45.9200,1.812
45.9600,1.812
46.0000,1.815
46.0400,1.773
46.0800,1.700
46.1200,1.715
46.1600,1.579
46.2000,1.564
46.2400,1.557
46.2800,1.552
46.3200,1.426
46.3600,1.477
46.4000,1.438
46.4400,1.332
46.4800,1.372
46.5200,1.346
46.5600,1.331
46.6000,1.374
46.6400,1.353
46.6800,1.272
46.7200,1.265
46.7600,1.252
46.8000,1.223
46.8400,1.242
46.8800,1.195
46.9200,1.166
46.9600,1.197
47.0000,1.171
47.0400,1.137
47.0800,1.257
47.1200,1.098
47.1600,1.192
47.2000,1.145
47.2400,1.133
47.2800,1.178
47.3200,1.094
47.3600,1.083
47.4000,1.111
47.4400,1.025
47.4800,1.041
47.5200,0.986
47.5600,1.070
47.6000,1.029
47.6400,1.027
47.6800,1.002
47.7200,1.005
47.7600,1.013
47.8000,1.049
47.8400,0.993
47.8800,0.990
47.9200,1.067
47.9600,1.179
48.0000,1.013
48.0400,1.034
48.0800,1.101
48.1200,1.054
48.1600,1.025
48.2000,0.994
48.2400,1.138
48.2800,1.029
48.3200,1.077
48.3600,0.929
48.4000,0.939
48.4400,0.973
48.4800,0.934
48.5200,0.967
48.5600,0.955
48.6000,0.936
48.6400,0.878
48.6800,0.948
48.7200,1.064
48.7600,0.945
48.8000,0.917
48.8400,0.971
48.8800,0.854
48.9200,0.982
48.9600,0.913
49.0000,0.850
49.0400,0.904
49.0800,0.898
49.1200,0.928
49.1600,0.925
49.2000,0.980
49.2400,0.913
49.2800,0.946
49.3200,0.888
49.3600,0.960
49.4000,0.926
49.4400,0.965
49.4800,1.000
49.5200,0.981
49.5600,0.955
49.6000,0.944
49.6400,0.976
49.6800,0.905
49.7200,0.969
49.7600,1.050
49.8000,1.010
49.8400,0.984
49.8800,0.978
49.9200,0.906
49.9600,0.919
50.0000,0.918
50.0400,0.958
50.0800,0.937
50.1200,0.943
50.1600,0.951
50.2000,0.919
50.2400,0.959
50.2800,0.955
50.3200,0.864
50.3600,0.924
50.4000,0.881
50.4400,0.909
50.4800,0.960
50.5200,0.889
50.5600,0.893
50.6000,0.898
50.6400,0.875
50.6800,0.815
50.7200,0.883
50.7600,0.854
50.8000,0.976
50.8400,0.869
50.8800,0.874
50.9200,0.846
50.9600,0.881
51.0000,0.929
51.0400,0.846
51.0800,0.969
51.1200,0.867
51.1600,0.899
51.2000,0.873
51.2400,0.873
51.2800,0.898
51.3200,0.849
51.3600,0.891
51.4000,0.899
51.4400,0.895
51.4800,0.892
51.5200,0.868
51.5600,0.864
51.6000,0.781
51.6400,0.766
51.6800,0.809
51.7200,0.839
51.7600,0.833
51.8000,0.924
51.8400,0.810
51.8800,0.818
51.9200,0.858
51.9600,0.851
52.0000,0.813
52.0400,0.838
52.0800,0.807
52.1200,0.840
52.1600,0.800
52.2000,0.771
52.2400,0.769
52.2800,0.814
52.3200,0.849
52.3600,0.861
52.4000,0.827
52.4400,0.829
52.4800,0.783
52.5200,0.809
52.5600,0.853
52.6000,0.763
52.6400,0.875
52.6800,0.836
52.7200,0.753
52.7600,0.788
52.8000,0.779
52.8400,0.766
52.8800,0.755
52.9200,0.779
52.9600,0.779
53.0000,0.859
53.0400,0.837
53.0800,0.827
53.1200,0.812
53.1600,0.760
53.2000,0.818
53.2400,0.818
53.2800,0.834
53.3200,0.762
53.3600,0.769
53.4000,0.752
53.4400,0.738
53.4800,0.736
53.5200,0.695
53.5600,0.811
53.6000,0.729
53.6400,0.851
53.6800,0.794
53.7200,0.767
53.7600,0.783
53.8000,0.785
53.8400,0.765
53.8800,0.705
53.9200,0.756
53.9600,0.807
54.0000,0.751
54.0400,0.742
54.0800,0.770
54.1200,0.765
54.1600,0.822
54.2000,0.792
54.2400,0.709
54.2800,0.748
54.3200,0.781
54.3600,0.780
54.4000,0.792
54.4400,0.734
54.4800,0.801
54.5200,0.772
54.5600,0.773
54.6000,0.786
54.6400,0.794
54.6800,0.744
54.7200,0.738
54.7600,0.729
54.8000,0.721
54.8400,0.679
54.8800,0.768
54.9200,0.674
54.9600,0.835
55.0000,0.802
55.0400,0.717
55.0800,0.725
55.1200,0.785
55.1600,0.773
55.2000,0.856
55.2400,0.712
55.2800,0.772
55.3200,0.749
55.3600,0.750
55.4000,0.792
55.4400,0.788
55.4800,0.797
55.5200,0.764
55.5600,0.915
55.6000,0.789
55.6400,0.753
55.6800,0.769
55.7200,0.789
55.7600,0.837
55.8000,0.811
55.8400,0.904
55.8800,0.798
55.9200,0.837
55.9600,0.899
56.0000,0.923
56.0400,0.930
56.0800,1.009
56.1200,1.034
56.1600,1.004
56.2000,0.912
56.2400,0.984
56.2800,0.946
56.3200,0.909
56.3600,0.891
56.4000,0.822
56.4400,0.729
56.4800,0.768
56.5200,0.721
56.5600,0.679
56.6000,0.720
56.6400,0.670
56.6800,0.759
56.7200,0.647
56.7600,0.740
56.8000,0.706
56.8400,0.664
56.8800,0.686
56.9200,0.712
56.9600,0.693
57.0000,0.724
57.0400,0.668
57.0800,0.650
57.1200,0.651
57.1600,0.700
57.2000,0.641
57.2400,0.665
57.2800,0.733
57.3200,0.693
57.3600,0.719
57.4000,0.667
57.4400,0.650
57.4800,0.642
57.5200,0.686
57.5600,0.641
57.6000,0.675
57.6400,0.757
57.6800,0.654
57.7200,0.658
57.7600,0.709
57.8000,0.704
57.8400,0.664
57.8800,0.648
57.9200,0.671
57.9600,0.772
58.0000,0.732
58.0400,0.668
58.0800,0.623
58.1200,0.653
58.1600,0.681
58.2000,0.709
58.2400,0.678
58.2800,0.730
58.3200,0.670
58.3600,0.715
58.4000,0.631
58.4400,0.626
58.4800,0.654
58.5200,0.670
58.5600,0.696
58.6000,0.661
58.6400,0.649
58.6800,0.663
58.7200,0.647
58.7600,0.634
58.8000,0.620
58.8400,0.654
58.8800,0.677
58.9200,0.672
58.9600,0.700
59.0000,0.672
59.0400,0.616
59.0800,0.642
59.1200,0.650
59.1600,0.628
59.2000,0.676
59.2400,0.680
59.2800,0.612
59.3200,0.614
59.3600,0.656
59.4000,0.677
59.4400,0.638
59.4800,0.609
59.5200,0.597
59.5600,0.618
59.6000,0.622
59.6400,0.580
59.6800,0.638
59.7200,0.658
59.7600,0.622
59.8000,0.551
59.8400,0.624
59.8800,0.601
59.9200,0.604
59.9600,0.606
60.0000,0.618
60.0400,0.634
60.0800,0.636
60.1200,0.631
60.1600,0.617
60.2000,0.621
60.2400,0.633
60.2800,0.616
60.3200,0.637
60.3600,0.563
60.4000,0.625
60.4400,0.601
60.4800,0.608
60.5200,0.614
60.5600,0.605
60.6000,0.605
60.6400,0.585
60.6800,0.563
60.7200,0.611
60.7600,0.647
60.8000,0.614
60.8400,0.577
60.8800,0.621
60.9200,0.658
60.9600,0.609
61.0000,0.610
61.0400,0.578
61.0800,0.591
61.1200,0.612
61.1600,0.679
61.2000,0.614
61.2400,0.563
61.2800,0.549
61.3200,0.552
61.3600,0.571
61.4000,0.593
61.4400,0.598
61.4800,0.557
61.5200,0.658
61.5600,0.639
61.6000,0.581
61.6400,0.658
61.6800,0.563
61.7200,0.626
61.7600,0.549
61.8000,0.551
61.8400,0.625
61.8800,0.626
61.9200,0.608
61.9600,0.623
62.0000,0.592
62.0400,0.560
62.0800,0.605
62.1200,0.586
62.1600,0.583
62.2000,0.542
62.2400,0.519
62.2800,0.561
62.3200,0.564
62.3600,0.599
62.4000,0.611
62.4400,0.563
62.4800,0.551
62.5200,0.586
62.5600,0.633
62.6000,0.529
62.6400,0.562
62.6800,0.533
62.7200,0.575
62.7600,0.545
62.8000,0.563
62.8400,0.550
62.8800,0.557
62.9200,0.516
62.9600,0.594
63.0000,0.562
63.0400,0.552
63.0800,0.564
63.1200,0.577
63.1600,0.564
63.2000,0.578
63.2400,0.519
63.2800,0.552
63.3200,0.575
63.3600,0.595
63.4000,0.535
63.4400,0.582
63.4800,0.649
63.5200,0.614
63.5600,0.560
63.6000,0.584
63.6400,0.638
63.6800,0.610
63.7200,0.586
63.7600,0.614
63.8000,0.605
63.8400,0.589
63.8800,0.639
63.9200,0.548
63.9600,0.637
64.0000,0.607
64.0400,0.626
64.0800,0.607
64.1200,0.630
64.1600,0.619
64.2000,0.671
64.2400,0.751
64.2800,0.704
64.3200,0.721
64.3600,0.803
64.4000,0.692
64.4400,0.803
64.4800,0.768
64.5200,0.804
64.5600,0.791
64.6000,0.836
64.6400,0.855
64.6800,0.897
64.7200,0.912
64.7600,0.921
64.8000,0.892
64.8400,0.950
64.8800,0.905
64.9200,0.916
64.9600,0.999
65.0000,0.934
65.0400,0.999
65.0800,0.946
65.1200,0.926
65.1600,0.883
65.2000,0.972
65.2400,0.935
65.2800,0.966
65.3200,0.933
65.3600,1.006
65.4000,0.911
65.4400,0.912
65.4800,0.895
65.5200,0.925
65.5600,0.976
65.6000,0.957
65.6400,0.999
65.6800,0.848
65.7200,0.950
65.7600,1.010
65.8000,0.911
65.8400,0.969
65.8800,0.951
65.9200,0.945
65.9600,0.962
66.0000,0.899
66.0400,0.927
66.0800,0.929
66.1200,0.949
66.1600,0.916
66.2000,0.912
66.2400,0.883
66.2800,0.975
66.3200,0.834
66.3600,0.888
66.4000,0.879
66.4400,0.825
66.4800,0.916
66.5200,0.762
66.5600,0.842
66.6000,0.812
66.6400,0.809
66.6800,0.829
66.7200,0.809
66.7600,0.798
66.8000,0.798
66.8400,0.721
66.8800,0.644
66.9200,0.697
66.9600,0.678
67.0000,0.759
67.0400,0.661
67.0800,0.623
67.1200,0.559
67.1600,0.605
67.2000,0.624
67.2400,0.677
67.2800,0.649
67.3200,0.613
67.3600,0.671
67.4000,0.646
67.4400,0.637
67.4800,0.617
67.5200,0.642
67.5600,0.589
67.6000,0.572
67.6400,0.583
67.6800,0.569
67.7200,0.551
67.7600,0.572
67.8000,0.542
67.8400,0.597
67.8800,0.582
67.9200,0.512
67.9600,0.572
68.0000,0.562
68.0400,0.574
68.0800,0.561
68.1200,0.561
68.1600,0.487
68.2000,0.548
68.2400,0.591
68.2800,0.538
68.3200,0.559
68.3600,0.527
68.4000,0.550
68.4400,0.526
68.4800,0.526
68.5200,0.466
68.5600,0.492
68.6000,0.569
68.6400,0.532
68.6800,0.493
68.7200,0.564
68.7600,0.538
68.8000,0.499
68.8400,0.506
68.8800,0.520
68.9200,0.498
68.9600,0.583
69.0000,0.513
69.0400,0.533
69.0800,0.535
69.1200,0.539
69.1600,0.524
69.2000,0.548
69.2400,0.470
69.2800,0.556
69.3200,0.482
69.3600,0.510
69.4000,0.498
69.4400,0.510
69.4800,0.552
69.5200,0.495
69.5600,0.517
69.6000,0.517
69.6400,0.569
69.6800,0.546
69.7200,0.578
69.7600,0.483
69.8000,0.597
69.8400,0.532
69.8800,0.597
69.9200,0.560
69.9600,0.577
70.0000,0.520
70.0400,0.536
70.0800,0.595
70.1200,0.665
70.1600,0.663
70.2000,0.689
70.2400,0.772
70.2800,0.755
70.3200,0.718
70.3600,0.765
70.4000,0.815
70.4400,0.817
70.4800,0.795
70.5200,0.780
70.5600,0.701
70.6000,0.753
70.6400,0.665
70.6800,0.666
70.7200,0.534
70.7600,0.528
70.8000,0.531
70.8400,0.498
70.8800,0.534
70.9200,0.467
70.9600,0.467
71.0000,0.413
71.0400,0.446
71.0800,0.426
71.1200,0.444
71.1600,0.452
71.2000,0.413
71.2400,0.466
71.2800,0.485
71.3200,0.403
71.3600,0.394
71.4000,0.395
71.4400,0.391
71.4800,0.423
71.5200,0.468
71.5600,0.434
71.6000,0.410
71.6400,0.404
71.6800,0.431
71.7200,0.405
71.7600,0.442
71.8000,0.390
71.8400,0.386
71.8800,0.443
71.9200,0.380
71.9600,0.407
72.0000,0.403
72.0400,0.398
72.0800,0.455
72.1200,0.382
72.1600,0.401
72.2000,0.439
72.2400,0.472
72.2800,0.372
72.3200,0.363
72.3600,0.383
72.4000,0.346
72.4400,0.373
72.4800,0.419
72.5200,0.416
72.5600,0.425
72.6000,0.451
72.6400,0.363
72.6800,0.398
72.7200,0.439
72.7600,0.397
72.8000,0.431
72.8400,0.436
72.8800,0.427
72.9200,0.406
72.9600,0.421
73.0000,0.425
73.0400,0.404
73.0800,0.377
73.1200,0.411
73.1600,0.430
73.2000,0.376
73.2400,0.460
73.2800,0.424
73.3200,0.383
73.3600,0.400
73.4000,0.448
73.4400,0.407
73.4800,0.371
73.5200,0.384
73.5600,0.381
73.6000,0.379
73.6400,0.482
73.6800,0.419
73.7200,0.426
73.7600,0.429
73.8000,0.424
73.8400,0.412
73.8800,0.398
73.9200,0.379
73.9600,0.411
74.0000,0.416
74.0400,0.363
74.0800,0.378
74.1200,0.424
74.1600,0.395
74.2000,0.426
74.2400,0.405
74.2800,0.417
74.3200,0.405
74.3600,0.443
74.4000,0.413
74.4400,0.399
74.4800,0.423
74.5200,0.409
74.5600,0.374
74.6000,0.435
74.6400,0.375
74.6800,0.401
74.7200,0.417
74.7600,0.428
74.8000,0.398
74.8400,0.400
74.8800,0.421
74.9200,0.365
74.9600,0.374
75.0000,0.418
75.0400,0.397
75.0800,0.365
75.1200,0.376
75.1600,0.410
75.2000,0.412
75.2400,0.458
75.2800,0.378
75.3200,0.370
75.3600,0.421
75.4000,0.379
75.4400,0.392
75.4800,0.435
75.5200,0.348
75.5600,0.422
75.6000,0.396
75.6400,0.394
75.6800,0.417
75.7200,0.396
75.7600,0.390
75.8000,0.413
75.8400,0.419
75.8800,0.428
75.9200,0.416
75.9600,0.403
76.0000,0.424
76.0400,0.408
76.0800,0.367
76.1200,0.385
76.1600,0.418
76.2000,0.396
76.2400,0.433
76.2800,0.400
76.3200,0.430
76.3600,0.408
76.4000,0.393
76.4400,0.368
76.4800,0.407
76.5200,0.409
76.5600,0.437
76.6000,0.442
76.6400,0.458
76.6800,0.405
76.7200,0.440
76.7600,0.448
76.8000,0.425
76.8400,0.526
76.8800,0.503
76.9200,0.510
76.9600,0.511
77.0000,0.470
77.0400,0.486
77.0800,0.545
77.1200,0.544
77.1600,0.516
77.2000,0.497
77.2400,0.531
77.2800,0.636
77.3200,0.583
77.3600,0.579
77.4000,0.619
77.4400,0.622
77.4800,0.649
77.5200,0.650
77.5600,0.683
77.6000,0.646
77.6400,0.654
77.6800,0.642
77.7200,0.678
77.7600,0.696
77.8000,0.630
77.8400,0.650
77.8800,0.689
77.9200,0.686
77.9600,0.696
78.0000,0.637
78.0400,0.645
78.0800,0.693
78.1200,0.675
78.1600,0.683
78.2000,0.693
78.2400,0.671
78.2800,0.646
78.3200,0.720
78.3600,0.708
78.4000,0.742
78.4400,0.746
78.4800,0.680
78.5200,0.779
78.5600,0.658
78.6000,0.764
78.6400,0.709
78.6800,0.805
78.7200,0.724
78.7600,0.642
78.8000,0.717
78.8400,0.679
78.8800,0.695
78.9200,0.699
78.9600,0.693
79.0000,0.689
79.0400,0.643
79.0800,0.675
79.1200,0.640
79.1600,0.650
79.2000,0.675
79.2400,0.626
79.2800,0.642
79.3200,0.676
79.3600,0.650
79.4000,0.650
79.4400,0.641
79.4800,0.636
79.5200,0.673
79.5600,0.637
79.6000,0.575
79.6400,0.603
79.6800,0.601
79.7200,0.595
79.7600,0.652
79.8000,0.567
79.8400,0.654
79.8800,0.589
79.9200,0.575
79.9600,0.632
80.0000,0.545
