theta,intensity
5.0000,5.559
5.0400,5.489
5.0800,5.434
5.1200,5.246
5.1600,5.316
5.2000,5.505
5.2400,5.337
5.2800,5.230
5.3200,5.256
5.3600,5.079
5.4000,5.106
5.4400,5.086
5.4800,4.809
5.5200,5.055
5.5600,4.927
5.6000,4.934
5.6400,4.736
5.6800,4.617
5.7200,4.691
5.7600,4.753
5.8000,4.659
5.8400,4.604
5.8800,4.584
5.9200,4.390
5.9600,4.501
6.0000,4.474
6.0400,4.453
6.0800,4.517
6.1200,4.364
6.1600,4.439
6.2000,4.321
6.2400,4.260
6.2800,4.228
6.3200,4.311
6.3600,4.205
6.4000,4.235
6.4400,4.170
6.4800,4.218
6.5200,4.273
6.5600,4.132
6.6000,4.210
6.6400,4.034
6.6800,4.107
6.7200,4.167
6.7600,4.087
6.8000,4.153
6.8400,4.111
6.8800,4.076
6.9200,4.140
6.9600,4.098
7.0000,3.979
7.0400,4.009
7.0800,4.011
7.1200,4.069
7.1600,4.082
7.2000,4.026
7.2400,4.230
7.2800,4.108
7.3200,3.928
7.3600,4.076
7.4000,4.243
7.4400,3.988
7.4800,4.138
7.5200,3.953
7.5600,3.985
7.6000,3.946
7.6400,4.091
7.6800,3.990
7.7200,3.963
7.7600,4.007
7.8000,3.960
7.8400,3.996
7.8800,3.844
7.9200,3.969
7.9600,3.929
8.0000,4.127
8.0400,4.108
8.0800,3.831
8.1200,3.984
8.1600,3.830
8.2000,3.944
8.2400,3.892
8.2800,3.831
8.3200,3.971
8.3600,3.896
8.4000,3.744
8.4400,3.935
8.4800,4.061
8.5200,3.929
8.5600,3.917
8.6000,3.927
8.6400,3.845
8.6800,3.681
8.7200,3.895
8.7600,3.944
8.8000,3.874
8.8400,3.905
8.8800,3.805
8.9200,3.822
8.9600,3.749
9.0000,3.855
9.0400,3.751
9.0800,3.714
9.1200,3.756
9.1600,3.857
9.2000,3.902
9.2400,3.898
9.2800,3.857
9.3200,3.789
9.3600,3.760
9.4000,3.605
9.4400,3.781
9.4800,3.818
9.5200,3.770
9.5600,3.744
9.6000,3.716
9.6400,3.750
9.6800,3.856
9.7200,3.651
9.7600,3.684
9.8000,3.670
9.8400,3.903
9.8800,3.759
9.9200,3.528
9.9600,3.644
10.0000,3.741
10.0400,3.827
10.0800,3.804
10.1200,3.704
10.1600,3.630
10.2000,3.749
10.2400,3.617
10.2800,3.842
10.3200,3.591
10.3600,3.638
10.4000,3.720
10.4400,3.767
10.4800,3.632
10.5200,3.807
10.5600,3.685
10.6000,3.648
10.6400,3.642
10.6800,3.420
10.7200,3.648
10.7600,3.680
10.8000,3.615
10.8400,3.672
10.8800,3.515
10.9200,3.694
10.9600,3.673
11.0000,3.796
11.0400,3.566
11.0800,3.685
11.1200,3.573
11.1600,3.588
11.2000,3.640
11.2400,3.664
11.2800,3.523
11.3200,3.704
11.3600,3.626
11.4000,3.572
11.4400,3.586
11.4800,3.607
11.5200,3.694
11.5600,3.651
11.6000,3.582
11.6400,3.625
11.6800,3.511
11.7200,3.501
11.7600,3.563
11.8000,3.543
11.8400,3.512
11.8800,3.579
11.9200,3.525
11.9600,3.404
12.0000,3.402
12.0400,3.492
12.0800,3.423
12.1200,3.576
12.1600,3.635
12.2000,3.425
12.2400,3.443
12.2800,3.495
12.3200,3.496
12.3600,3.401
12.4000,3.480
12.4400,3.559
12.4800,3.394
12.5200,3.442
12.5600,3.331
12.6000,3.479
12.6400,3.473
12.6800,3.481
12.7200,3.497
12.7600,3.479
12.8000,3.484
12.8400,3.484
12.8800,3.420
12.9200,3.425
12.9600,3.452
13.0000,3.291
13.0400,3.405
13.0800,3.287
13.1200,3.466
13.1600,3.313
13.2000,3.427
13.2400,3.179
13.2800,3.283
13.3200,3.400
13.3600,3.518
13.4000,3.322
13.4400,3.385
13.4800,3.365
13.5200,3.478
13.5600,3.293
13.6000,3.444
13.6400,3.458
13.6800,3.364
13.7200,3.399
13.7600,3.351
13.8000,3.309
13.8400,3.435
13.8800,3.266
13.9200,3.320
13.9600,3.312
14.0000,3.507
14.0400,3.229
14.0800,3.305
14.1200,3.313
14.1600,3.392
14.2000,3.233
14.2400,3.401
14.2800,3.412
14.3200,3.411
14.3600,3.316
14.4000,3.408
14.4400,3.181
14.4800,3.324
14.5200,3.279
14.5600,3.158
14.6000,3.249
14.6400,3.216
14.6800,3.335
14.7200,3.151
14.7600,3.305
14.8000,3.332
14.8400,3.203
14.8800,3.270
14.9200,3.319
14.9600,3.228
15.0000,3.198
15.0400,3.265
15.0800,3.249
15.1200,3.251
15.1600,3.275
15.2000,3.411
15.2400,3.303
15.2800,3.347
15.3200,3.264
15.3600,3.189
15.4000,3.190
15.4400,3.119
15.4800,3.222
15.5200,3.278
15.5600,3.228
15.6000,3.217
15.6400,3.197
15.6800,3.273
15.7200,3.083
15.7600,3.119
15.8000,3.244
15.8400,3.353
15.8800,3.229
15.9200,3.117
15.9600,3.317
16.0000,3.222
16.0400,3.198
16.0800,3.135
16.1200,3.281
16.1600,3.081
16.2000,3.081
16.2400,3.197
16.2800,3.173
16.3200,3.114
16.3600,3.160
16.4000,3.171
16.4400,3.201
16.4800,3.164
16.5200,3.204
16.5600,3.162
16.6000,3.126
16.6400,3.183
16.6800,3.225
16.7200,3.065
16.7600,3.024
16.8000,3.086
16.8400,3.025
16.8800,2.991
16.9200,3.129
16.9600,3.124
17.0000,3.146
17.0400,3.034
17.0800,2.994
17.1200,3.127
17.1600,3.162
17.2000,3.020
17.2400,3.062
17.2800,2.957
17.3200,3.062
17.3600,3.109
17.4000,3.077
17.4400,3.023
17.4800,2.982
17.5200,3.142
17.5600,2.944
17.6000,2.966
17.6400,3.075
17.6800,3.018
17.7200,2.952
17.7600,2.943
17.8000,3.101
17.8400,3.115
17.8800,3.023
17.9200,2.883
17.9600,3.116
18.0000,3.029
18.0400,3.056
18.0800,3.091
18.1200,2.966
18.1600,2.955
18.2000,3.026
18.2400,3.131
18.2800,3.058
18.3200,3.013
18.3600,3.062
18.4000,2.965
18.4400,2.961
18.4800,3.041
18.5200,2.991
18.5600,2.853
18.6000,2.954
18.6400,2.866
18.6800,2.962
18.7200,2.949
18.7600,2.795
18.8000,2.841
18.8400,3.058
18.8800,3.064
18.9200,2.904
18.9600,2.952
19.0000,2.848
19.0400,2.900
19.0800,2.974
19.1200,2.794
19.1600,2.804
19.2000,2.849
19.2400,2.819
19.2800,2.822
19.3200,2.978
19.3600,2.827
19.4000,2.807
19.4400,2.766
19.4800,2.786
19.5200,2.933
19.5600,2.866
19.6000,2.957
19.6400,2.767
19.6800,2.922
19.7200,2.798
19.7600,2.986
19.8000,3.147
19.8400,3.256
19.8800,3.178
19.9200,2.915
19.9600,2.741
20.0000,2.831
20.0400,2.749
20.0800,2.790
20.1200,2.848
20.1600,2.800
20.2000,2.798
20.2400,2.699
20.2800,2.758
20.3200,2.821
20.3600,2.607
20.4000,2.869
20.4400,2.619
20.4800,2.678
20.5200,2.890
20.5600,2.758
20.6000,2.909
20.6400,2.773
20.6800,2.674
20.7200,2.733
20.7600,2.608
20.8000,2.746
20.8400,2.596
20.8800,2.742
20.9200,2.701
20.9600,2.623
21.0000,2.660
21.0400,2.641
21.0800,2.704
21.1200,2.765
21.1600,2.660
21.2000,2.595
21.2400,2.644
21.2800,2.603
21.3200,2.581
21.3600,2.737
21.4000,2.691
21.4400,2.710
21.4800,2.606
21.5200,2.584
21.5600,2.693
21.6000,2.716
21.6400,2.590
21.6800,2.656
21.7200,2.672
21.7600,2.676
21.8000,2.704
21.8400,2.740
21.8800,2.534
21.9200,2.602
21.9600,2.616
22.0000,2.625
22.0400,2.690
22.0800,2.747
22.1200,2.628
22.1600,2.552
22.2000,2.631
22.2400,2.609
22.2800,2.569
22.3200,2.570
22.3600,2.594
22.4000,2.641
22.4400,2.639
22.4800,2.592
22.5200,2.677
22.5600,2.641
22.6000,2.550
22.6400,2.581
22.6800,2.532
22.7200,2.690
22.7600,2.689
22.8000,2.570
22.8400,2.606
22.8800,2.648
22.9200,2.606
22.9600,2.568
23.0000,2.633
23.0400,2.555
23.0800,2.557
23.1200,2.524
23.1600,2.470
23.2000,2.484
23.2400,2.496
23.2800,2.519
23.3200,2.574
23.3600,2.609
23.4000,2.551
23.4400,2.606
23.4800,2.515
23.5200,2.586
23.5600,2.555
23.6000,2.637
23.6400,2.491
23.6800,2.509
23.7200,2.557
23.7600,2.538
23.8000,2.591
23.8400,2.499
23.8800,2.642
23.9200,2.513
23.9600,2.562
24.0000,2.467
24.0400,2.501
24.0800,2.560
24.1200,2.497
24.1600,2.332
24.2000,2.559
24.2400,2.433
24.2800,2.544
24.3200,2.554
24.3600,2.434
24.4000,2.295
24.4400,2.528
24.4800,2.486
24.5200,2.504
24.5600,2.427
24.6000,2.275
24.6400,2.391
24.6800,2.376
24.7200,2.377
24.7600,2.524
24.8000,2.424
24.8400,2.322
24.8800,2.404
24.9200,2.309
24.9600,2.506
25.0000,2.552
25.0400,2.404
25.0800,2.382
25.1200,2.458
25.1600,2.489
25.2000,2.473
25.2400,2.330
25.2800,2.296
25.3200,2.444
25.3600,2.315
25.4000,2.454
25.4400,2.499
25.4800,2.419
25.5200,2.321
25.5600,2.417
25.6000,2.370
25.6400,2.323
25.6800,2.422
25.7200,2.340
25.7600,2.369
25.8000,2.296
25.8400,2.392
25.8800,2.436
25.9200,2.252
25.9600,2.494
26.0000,2.388
26.0400,2.508
26.0800,2.492
26.1200,2.669
26.1600,2.650
26.2000,2.588
26.2400,2.454
26.2800,2.604
26.3200,2.402
26.3600,2.288
26.4000,2.376
26.4400,2.193
26.4800,2.331
26.5200,2.374
26.5600,2.316
26.6000,2.343
26.6400,2.465
26.6800,2.459
26.7200,3.028
26.7600,4.351
26.8000,5.479
26.8400,5.593
26.8800,4.475
26.9200,3.392
26.9600,2.534
27.0000,2.480
27.0400,2.218
27.0800,2.378
27.1200,2.295
27.1600,2.187
27.2000,2.213
27.2400,2.260
27.2800,2.244
27.3200,2.284
27.3600,2.151
27.4000,2.138
27.4400,2.352
27.4800,2.091
27.5200,2.159
27.5600,2.185
27.6000,2.319
27.6400,2.215
27.6800,2.252
27.7200,2.252
27.7600,2.109
27.8000,2.144
27.8400,2.160
27.8800,2.100
27.9200,2.175
27.9600,2.207
28.0000,2.105
28.0400,2.272
28.0800,2.156
28.1200,2.166
28.1600,2.306
28.2000,2.279
28.2400,2.362
28.2800,2.257
28.3200,2.325
28.3600,2.232
28.4000,2.247
28.4400,2.268
28.4800,2.177
28.5200,2.190
28.5600,2.103
28.6000,2.277
28.6400,2.173
28.6800,2.149
28.7200,2.134
28.7600,2.130
28.8000,2.101
28.8400,2.191
28.8800,2.153
28.9200,2.085
28.9600,2.020
29.0000,2.135
29.0400,2.136
29.0800,2.133
29.1200,2.045
29.1600,2.006
29.2000,2.071
29.2400,2.032
29.2800,2.198
29.3200,2.093
29.3600,2.105
29.4000,2.033
29.4400,2.022
29.4800,2.119
29.5200,1.944
29.5600,2.069
29.6000,2.017
29.6400,2.007
29.6800,1.939
29.7200,2.040
29.7600,2.044
29.8000,2.014
29.8400,1.917
29.8800,2.008
29.9200,1.977
29.9600,2.028
30.0000,1.940
30.0400,1.962
30.0800,1.988
30.1200,2.025
30.1600,1.936
30.2000,1.886
30.2400,1.977
30.2800,2.002
30.3200,2.046
30.3600,1.937
30.4000,1.979
30.4400,1.903
30.4800,1.934
30.5200,1.949
30.5600,1.915
30.6000,1.987
30.6400,1.914
30.6800,1.910
30.7200,1.929
30.7600,1.912
30.8000,1.857
30.8400,1.820
30.8800,1.869
30.9200,1.988
30.9600,1.921
31.0000,1.986
31.0400,1.885
31.0800,1.911
31.1200,1.764
31.1600,1.864
31.2000,1.953
31.2400,1.834
31.2800,1.903
31.3200,1.838
31.3600,1.845
31.4000,1.869
31.4400,1.835
31.4800,1.815
31.5200,1.829
31.5600,1.780
31.6000,1.776
31.6400,1.851
31.6800,1.844
31.7200,1.783
31.7600,1.688
31.8000,1.811
31.8400,1.800
31.8800,1.642
31.9200,1.756
31.9600,1.866
32.0000,1.894
32.0400,1.768
32.0800,1.729
32.1200,1.765
32.1600,1.800
32.2000,1.924
32.2400,1.935
32.2800,1.735
32.3200,1.853
32.3600,1.917
32.4000,1.969
32.4400,2.001
32.4800,1.937
32.5200,1.837
32.5600,1.892
32.6000,2.038
32.6400,2.219
32.6800,2.156
32.7200,2.378
32.7600,2.530
32.8000,2.707
32.8400,2.873
32.8800,3.159
32.9200,3.549
32.9600,3.802
33.0000,3.784
33.0400,3.749
33.0800,3.485
33.1200,3.214
33.1600,3.072
33.2000,2.751
33.2400,2.509
33.2800,2.379
33.3200,2.555
33.3600,3.011
33.4000,3.103
33.4400,3.036
33.4800,2.787
33.5200,2.471
33.5600,2.046
33.6000,1.977
33.6400,2.059
33.6800,2.188
33.7200,2.583
33.7600,2.782
33.8000,2.605
33.8400,2.621
33.8800,2.489
33.9200,2.215
33.9600,2.052
34.0000,1.872
34.0400,1.854
34.0800,1.763
34.1200,1.792
34.1600,1.680
34.2000,1.811
34.2400,1.804
34.2800,1.728
34.3200,1.663
34.3600,1.684
34.4000,1.667
34.4400,1.782
34.4800,1.670
34.5200,1.771
34.5600,1.598
34.6000,1.645
34.6400,1.734
34.6800,1.567
34.7200,1.607
34.7600,1.699
34.8000,1.569
34.8400,1.654
34.8800,1.611
34.9200,1.665
34.9600,1.599
35.0000,1.654
35.0400,1.580
35.0800,1.600
35.1200,1.609
35.1600,1.597
35.2000,1.606
35.2400,1.519
35.2800,1.634
35.3200,1.591
35.3600,1.667
35.4000,1.747
35.4400,1.684
35.4800,1.758
35.5200,1.845
35.5600,1.725
35.6000,1.750
35.6400,1.733
35.6800,1.624
35.7200,1.642
35.7600,1.799
35.8000,1.675
35.8400,1.609
35.8800,1.660
35.9200,1.606
35.9600,1.513
36.0000,1.592
36.0400,1.589
36.0800,1.605
36.1200,1.630
36.1600,1.584
36.2000,1.607
36.2400,1.651
36.2800,1.630
36.3200,1.641
36.3600,1.595
36.4000,1.653
36.4400,1.611
36.4800,1.682
36.5200,1.654
36.5600,1.586
36.6000,1.600
36.6400,1.711
36.6800,1.591
36.7200,1.623
36.7600,1.727
36.8000,1.804
36.8400,1.994
36.8800,2.360
36.9200,2.451
36.9600,2.414
37.0000,2.365
37.0400,2.270
37.0800,2.089
37.1200,1.915
37.1600,1.874
37.2000,1.987
37.2400,1.909
37.2800,2.013
37.3200,2.076
37.3600,2.326
37.4000,2.084
37.4400,2.098
37.4800,2.164
37.5200,2.118
37.5600,2.216
37.6000,2.396
37.6400,2.456
37.6800,3.053
37.7200,3.699
37.7600,3.691
37.8000,3.466
37.8400,3.289
37.8800,3.249
37.9200,2.909
37.9600,3.066
38.0000,4.020
38.0400,6.293
38.0800,13.995
38.1200,20.189
38.1600,18.178
38.2000,15.790
38.2400,14.321
38.2800,9.534
38.3200,8.362
38.3600,12.357
38.4000,19.776
38.4400,22.735
38.4800,19.588
38.5200,15.918
38.5600,11.901
38.6000,7.077
38.6400,4.322
38.6800,3.462
38.7200,3.269
38.7600,3.051
38.8000,3.352
38.8400,4.160
38.8800,5.243
38.9200,5.723
38.9600,5.928
39.0000,5.031
39.0400,4.058
39.0800,3.362
39.1200,2.674
39.1600,2.363
39.2000,2.191
39.2400,2.082
39.2800,2.077
39.3200,2.032
39.3600,1.952
39.4000,1.972
39.4400,1.834
39.4800,1.892
39.5200,1.779
39.5600,1.769
39.6000,1.706
39.6400,1.850
39.6800,1.740
39.7200,1.874
39.7600,1.801
39.8000,1.771
39.8400,1.739
39.8800,1.751
39.9200,1.650
39.9600,1.754
40.0000,1.678
40.0400,1.667
40.0800,1.713
40.1200,1.764
40.1600,1.873
40.2000,2.128
40.2400,2.680
40.2800,4.017
40.3200,4.032
40.3600,3.466
40.4000,3.223
40.4400,2.635
40.4800,2.040
40.5200,1.733
40.5600,1.675
40.6000,1.539
40.6400,1.515
40.6800,1.672
40.7200,1.461
40.7600,1.551
40.8000,1.506
40.8400,1.413
40.8800,1.435
40.9200,1.425
40.9600,1.459
41.0000,1.425
41.0400,1.407
41.0800,1.390
41.1200,1.359
41.1600,1.456
41.2000,1.428
41.2400,1.410
41.2800,1.433
41.3200,1.459
41.3600,1.345
41.4000,1.457
41.4400,1.305
41.4800,1.385
41.5200,1.492
41.5600,1.531
41.6000,1.670
41.6400,1.645
41.6800,1.800
41.7200,1.642
41.7600,1.552
41.8000,1.377
41.8400,1.410
41.8800,1.385
41.9200,1.297
41.9600,1.365
42.0000,1.293
42.0400,1.254
42.0800,1.233
42.1200,1.260
42.1600,1.357
42.2000,1.253
42.2400,1.275
42.2800,1.177
42.3200,1.298
42.3600,1.320
42.4000,1.164
42.4400,1.223
42.4800,1.200
42.5200,1.187
42.5600,1.064
42.6000,1.171
42.6400,1.161
42.6800,1.170
42.7200,1.192
42.7600,1.202
42.8000,1.064
42.8400,1.136
42.8800,1.296
42.9200,1.167
42.9600,1.122
43.0000,1.207
43.0400,1.151
43.0800,1.270
43.1200,1.149
43.1600,1.144
43.2000,1.138
43.2400,1.165
43.2800,1.082
43.3200,1.214
43.3600,1.130
43.4000,1.232
43.4400,1.133
43.4800,1.278
43.5200,1.183
43.5600,1.116
43.6000,1.191
43.6400,1.187
43.6800,1.141
43.7200,1.212
43.7600,1.132
43.8000,1.112
43.8400,1.223
43.8800,1.100
43.9200,1.117
43.9600,1.184
44.0000,1.201
44.0400,1.157
44.0800,1.092
44.1200,1.087
44.1600,1.134
44.2000,1.136
44.2400,1.163
44.2800,1.061
44.3200,1.044
44.3600,1.107
44.4000,1.127
44.4400,1.102
44.4800,1.120
44.5200,1.049
44.5600,1.092
44.6000,1.067
44.6400,1.083
44.6800,1.116
44.7200,0.982
44.7600,1.051
44.8000,1.084
44.8400,1.080
44.8800,1.058
44.9200,1.089
44.9600,1.072
45.0000,1.041
45.0400,1.109
45.0800,1.030
45.1200,0.979
45.1600,1.039
45.2000,0.949
45.2400,1.050
45.2800,1.080
45.3200,0.981
45.3600,0.958
45.4000,1.079
45.4400,1.024
45.4800,0.958
45.5200,1.073
45.5600,1.018
45.6000,0.964
45.6400,0.988
45.6800,1.000
45.7200,0.982
45.7600,1.011
45.8000,1.036
45.8400,1.004
45.8800,1.117
45.9200,1.085
45.9600,1.007
46.0000,0.968
46.0400,1.093
46.0800,1.008
46.1200,1.039
46.1600,1.043
46.2000,1.152
46.2400,1.277
46.2800,1.767
46.3200,2.501
46.3600,2.407
46.4000,1.985
46.4400,2.003
46.4800,1.774
46.5200,1.562
46.5600,1.416
46.6000,1.360
46.6400,1.325
46.6800,1.152
46.7200,1.175
46.7600,1.128
46.8000,0.951
46.8400,1.027
46.8800,0.958
46.9200,1.017
46.9600,1.006
47.0000,1.008
47.0400,0.975
47.0800,0.940
47.1200,1.067
47.1600,1.042
47.2000,1.036
47.2400,0.968
47.2800,0.996
47.3200,1.041
47.3600,1.000
47.4000,1.050
47.4400,1.335
47.4800,1.333
47.5200,1.189
47.5600,1.179
47.6000,1.221
47.6400,1.086
47.6800,0.925
47.7200,0.988
47.7600,1.028
47.8000,1.016
47.8400,0.949
47.8800,1.009
47.9200,0.973
47.9600,0.934
48.0000,1.001
48.0400,0.970
48.0800,0.928
48.1200,0.901
48.1600,0.870
48.2000,0.876
48.2400,0.934
48.2800,0.858
48.3200,0.905
48.3600,0.952
48.4000,0.847
48.4400,0.888
48.4800,0.835
48.5200,0.865
48.5600,0.850
48.6000,0.954
48.6400,0.917
48.6800,0.849
48.7200,0.868
48.7600,0.919
48.8000,0.897
48.8400,0.998
48.8800,0.865
48.9200,0.892
48.9600,0.895
49.0000,0.902
49.0400,0.865
49.0800,0.833
49.1200,0.813
49.1600,0.883
49.2000,0.828
49.2400,0.968
49.2800,1.015
49.3200,1.001
49.3600,0.924
49.4000,0.886
49.4400,0.945
49.4800,0.942
49.5200,0.909
49.5600,0.863
49.6000,0.829
49.6400,0.860
49.6800,0.808
49.7200,0.812
49.7600,0.875
49.8000,0.924
49.8400,0.904
49.8800,0.856
49.9200,0.942
49.9600,0.837
50.0000,0.930
50.0400,0.957
50.0800,0.872
50.1200,0.893
50.1600,0.844
50.2000,0.858
50.2400,0.864
50.2800,0.828
50.3200,0.817
50.3600,0.807
50.4000,0.857
50.4400,0.820
50.4800,0.800
50.5200,0.795
50.5600,0.775
50.6000,0.843
50.6400,0.871
50.6800,0.781
50.7200,0.844
50.7600,0.819
50.8000,0.875
50.8400,0.849
50.8800,0.885
50.9200,0.826
50.9600,0.791
51.0000,0.825
51.0400,0.865
51.0800,0.829
51.1200,0.893
51.1600,0.800
51.2000,0.790
51.2400,0.895
51.2800,0.818
51.3200,0.846
51.3600,0.810
51.4000,0.834
51.4400,0.842
51.4800,0.848
51.5200,0.873
51.5600,0.812
51.6000,0.867
51.6400,0.875
51.6800,0.865
51.7200,0.878
51.7600,0.803
51.8000,0.809
51.8400,0.832
51.8800,0.753
51.9200,0.793
51.9600,0.797
52.0000,0.772
52.0400,0.792
52.0800,0.831
52.1200,0.826
52.1600,0.846
52.2000,0.772
52.2400,0.787
52.2800,0.811
52.3200,0.828
52.3600,0.906
52.4000,0.878
52.4400,0.803
52.4800,0.830
52.5200,0.827
52.5600,0.841
52.6000,0.851
52.6400,0.852
52.6800,0.833
52.7200,0.788
52.7600,0.784
52.8000,0.822
52.8400,0.738
52.8800,0.769
52.9200,0.800
52.9600,0.748
53.0000,0.810
53.0400,0.798
53.0800,0.758
53.1200,0.864
53.1600,0.717
53.2000,0.872
53.2400,0.816
53.2800,0.761
53.3200,0.779
53.3600,0.810
53.4000,0.891
53.4400,0.816
53.4800,0.746
53.5200,0.814
53.5600,0.829
53.6000,0.794
53.6400,0.825
53.6800,0.826
53.7200,0.907
53.7600,0.950
53.8000,1.024
53.8400,1.048
53.8800,1.034
53.9200,1.003
53.9600,0.953
54.0000,0.894
54.0400,0.854
54.0800,0.901
54.1200,0.815
54.1600,0.810
54.2000,0.720
54.2400,0.719
54.2800,0.773
54.3200,0.793
54.3600,0.825
54.4000,0.764
54.4400,0.717
54.4800,0.766
54.5200,0.754
54.5600,0.837
54.6000,0.820
54.6400,0.814
54.6800,0.876
54.7200,0.799
54.7600,0.888
54.8000,0.834
54.8400,0.859
54.8800,0.951
54.9200,0.964
54.9600,0.931
55.0000,1.061
55.0400,1.287
55.0800,1.373
55.1200,1.561
55.1600,2.219
55.2000,3.335
55.2400,4.360
55.2800,3.929
55.3200,3.012
55.3600,3.066
55.4000,2.998
55.4400,2.420
55.4800,1.756
55.5200,1.341
55.5600,1.094
55.6000,1.050
55.6400,1.027
55.6800,1.011
55.7200,0.877
55.7600,0.862
55.8000,0.867
55.8400,0.783
55.8800,0.746
55.9200,0.759
55.9600,0.810
56.0000,0.784
56.0400,0.704
56.0800,0.729
56.1200,0.652
56.1600,0.684
56.2000,0.659
56.2400,0.737
56.2800,0.755
56.3200,0.736
56.3600,0.677
56.4000,0.743
56.4400,0.695
56.4800,0.715
56.5200,0.748
56.5600,0.695
56.6000,0.693
56.6400,0.682
56.6800,0.672
56.7200,0.666
56.7600,0.742
56.8000,0.724
56.8400,0.719
56.8800,0.734
56.9200,0.729
56.9600,0.721
57.0000,0.708
57.0400,0.772
57.0800,0.754
57.1200,0.821
57.1600,0.798
57.2000,0.769
57.2400,0.690
57.2800,0.679
57.3200,0.636
57.3600,0.682
57.4000,0.670
57.4400,0.647
57.4800,0.695
57.5200,0.786
57.5600,0.659
57.6000,0.665
57.6400,0.607
57.6800,0.596
57.7200,0.655
57.7600,0.735
57.8000,0.658
57.8400,0.635
57.8800,0.694
57.9200,0.636
57.9600,0.602
58.0000,0.592
58.0400,0.643
58.0800,0.693
58.1200,0.638
58.1600,0.625
58.2000,0.646
58.2400,0.706
58.2800,0.683
58.3200,0.652
58.3600,0.666
58.4000,0.724
58.4400,0.662
58.4800,0.618
58.5200,0.725
58.5600,0.655
58.6000,0.760
58.6400,0.780
58.6800,0.755
58.7200,0.771
58.7600,0.572
58.8000,0.702
58.8400,0.757
58.8800,0.694
58.9200,0.627
58.9600,0.656
59.0000,0.634
59.0400,0.682
59.0800,0.659
59.1200,0.612
59.1600,0.583
59.2000,0.660
59.2400,0.644
59.2800,0.631
59.3200,0.625
59.3600,0.636
59.4000,0.613
59.4400,0.609
59.4800,0.645
59.5200,0.635
59.5600,0.545
59.6000,0.637
59.6400,0.564
59.6800,0.590
59.7200,0.548
59.7600,0.606
59.8000,0.607
59.8400,0.566
59.8800,0.544
59.9200,0.570
59.9600,0.559
60.0000,0.553
60.0400,0.580
60.0800,0.610
60.1200,0.648
60.1600,0.583
60.2000,0.567
60.2400,0.590
60.2800,0.520
60.3200,0.557
60.3600,0.580
60.4000,0.595
60.4400,0.555
60.4800,0.538
60.5200,0.596
60.5600,0.557
60.6000,0.584
60.6400,0.573
60.6800,0.542
60.7200,0.547
60.7600,0.557
60.8000,0.576
60.8400,0.576
60.8800,0.520
60.9200,0.557
60.9600,0.527
61.0000,0.578
61.0400,0.516
61.0800,0.585
61.1200,0.597
61.1600,0.577
61.2000,0.588
61.2400,0.536
61.2800,0.557
61.3200,0.571
61.3600,0.516
61.4000,0.554
61.4400,0.606
61.4800,0.529
61.5200,0.558
61.5600,0.563
61.6000,0.551
61.6400,0.540
61.6800,0.612
61.7200,0.609
61.7600,0.593
61.8000,0.573
61.8400,0.588
61.8800,0.557
61.9200,0.580
61.9600,0.532
62.0000,0.535
62.0400,0.534
62.0800,0.471
62.1200,0.557
62.1600,0.584
62.2000,0.646
62.2400,0.579
62.2800,0.605
62.3200,0.531
62.3600,0.557
62.4000,0.605
62.4400,0.600
62.4800,0.601
62.5200,0.579
62.5600,0.608
62.6000,0.594
62.6400,0.635
62.6800,0.626
62.7200,0.640
62.7600,0.608
62.8000,0.617
62.8400,0.632
62.8800,0.624
62.9200,0.622
62.9600,0.558
63.0000,0.572
63.0400,0.554
63.0800,0.508
63.1200,0.521
63.1600,0.531
63.2000,0.513
63.2400,0.537
63.2800,0.566
63.3200,0.488
63.3600,0.530
63.4000,0.525
63.4400,0.453
63.4800,0.542
63.5200,0.541
63.5600,0.570
63.6000,0.585
63.6400,0.548
63.6800,0.559
63.7200,0.586
63.7600,0.716
63.8000,0.663
63.8400,0.639
63.8800,0.611
63.9200,0.643
63.9600,0.623
64.0000,0.557
64.0400,0.588
64.0800,0.590
64.1200,0.723
64.1600,0.842
64.2000,0.764
64.2400,0.685
64.2800,0.624
64.3200,0.702
64.3600,0.680
64.4000,0.618
64.4400,0.586
64.4800,0.640
64.5200,0.615
64.5600,0.669
64.6000,0.616
64.6400,0.608
64.6800,0.549
64.7200,0.580
64.7600,0.602
64.8000,0.598
64.8400,0.569
64.8800,0.602
64.9200,0.586
64.9600,0.525
65.0000,0.533
65.0400,0.552
65.0800,0.489
65.1200,0.562
65.1600,0.535
65.2000,0.603
65.2400,0.529
65.2800,0.543
65.3200,0.518
65.3600,0.541
65.4000,0.530
65.4400,0.553
65.4800,0.616
65.5200,0.612
65.5600,0.651
65.6000,0.688
65.6400,0.798
65.6800,0.922
65.7200,0.914
65.7600,0.823
65.8000,0.869
65.8400,0.877
65.8800,0.947
65.9200,0.868
65.9600,0.845
66.0000,0.773
66.0400,0.769
66.0800,0.734
66.1200,0.714
66.1600,0.736
66.2000,0.783
66.2400,0.949
66.2800,1.308
66.3200,1.420
66.3600,1.198
66.4000,1.064
66.4400,0.920
66.4800,0.955
66.5200,0.933
66.5600,0.792
66.6000,0.644
66.6400,0.580
66.6800,0.637
66.7200,0.537
66.7600,0.528
66.8000,0.504
66.8400,0.553
66.8800,0.537
66.9200,0.490
66.9600,0.517
67.0000,0.493
67.0400,0.452
67.0800,0.481
67.1200,0.529
67.1600,0.450
67.2000,0.510
67.2400,0.441
67.2800,0.497
67.3200,0.467
67.3600,0.483
67.4000,0.504
67.4400,0.457
67.4800,0.502
67.5200,0.494
67.5600,0.485
67.6000,0.450
67.6400,0.441
67.6800,0.500
67.7200,0.530
67.7600,0.577
67.8000,0.615
67.8400,0.556
67.8800,0.611
67.9200,0.532
67.9600,0.589
68.0000,0.568
68.0400,0.521
68.0800,0.535
68.1200,0.532
68.1600,0.512
68.2000,0.525
68.2400,0.519
68.2800,0.592
68.3200,0.537
68.3600,0.574
68.4000,0.545
68.4400,0.543
68.4800,0.668
68.5200,0.636
68.5600,0.630
68.6000,0.691
68.6400,0.885
68.6800,1.141
68.7200,1.021
68.7600,0.915
68.8000,0.833
68.8400,0.975
68.8800,1.255
68.9200,1.146
68.9600,0.993
69.0000,1.045
69.0400,0.998
69.0800,1.044
69.1200,1.096
69.1600,1.177
69.2000,1.508
69.2400,2.229
69.2800,2.707
69.3200,2.641
69.3600,2.253
69.4000,2.105
69.4400,2.411
69.4800,2.792
69.5200,2.692
69.5600,2.080
69.6000,1.620
69.6400,1.387
69.6800,1.407
69.7200,1.192
69.7600,1.016
69.8000,0.816
69.8400,0.666
69.8800,0.578
69.9200,0.534
69.9600,0.588
70.0000,0.522
70.0400,0.536
70.0800,0.531
70.1200,0.550
70.1600,0.605
70.2000,0.551
70.2400,0.527
70.2800,0.533
70.3200,0.522
70.3600,0.538
70.4000,0.514
70.4400,0.501
70.4800,0.475
70.5200,0.469
70.5600,0.484
70.6000,0.442
70.6400,0.513
70.6800,0.478
70.7200,0.514
70.7600,0.521
70.8000,0.499
70.8400,0.532
70.8800,0.551
70.9200,0.614
70.9600,0.633
71.0000,0.562
71.0400,0.610
71.0800,0.541
71.1200,0.580
71.1600,0.628
71.2000,0.616
71.2400,0.571
71.2800,0.617
71.3200,0.514
71.3600,0.581
71.4000,0.479
71.4400,0.520
71.4800,0.511
71.5200,0.517
71.5600,0.462
71.6000,0.494
71.6400,0.469
71.6800,0.519
71.7200,0.492
71.7600,0.489
71.8000,0.496
71.8400,0.494
71.8800,0.514
71.9200,0.482
71.9600,0.438
72.0000,0.507
72.0400,0.493
72.0800,0.454
72.1200,0.476
72.1600,0.467
72.2000,0.459
72.2400,0.435
72.2800,0.412
72.3200,0.386
72.3600,0.433
72.4000,0.362
72.4400,0.403
72.4800,0.375
72.5200,0.405
72.5600,0.376
72.6000,0.364
72.6400,0.359
72.6800,0.382
72.7200,0.383
72.7600,0.412
72.8000,0.391
72.8400,0.412
72.8800,0.386
72.9200,0.353
72.9600,0.431
73.0000,0.408
73.0400,0.393
73.0800,0.383
73.1200,0.356
73.1600,0.431
73.2000,0.377
73.2400,0.364
73.2800,0.387
73.3200,0.386
73.3600,0.409
73.4000,0.354
73.4400,0.348
73.4800,0.364
73.5200,0.358
73.5600,0.352
73.6000,0.371
73.6400,0.373
73.6800,0.404
73.7200,0.421
73.7600,0.399
73.8000,0.347
73.8400,0.381
73.8800,0.355
73.9200,0.338
73.9600,0.371
74.0000,0.403
74.0400,0.360
74.0800,0.369
74.1200,0.379
74.1600,0.396
74.2000,0.417
74.2400,0.439
74.2800,0.410
74.3200,0.437
74.3600,0.487
74.4000,0.450
74.4400,0.506
74.4800,0.674
74.5200,0.691
74.5600,0.566
74.6000,0.498
74.6400,0.410
74.6800,0.467
74.7200,0.587
74.7600,0.526
74.8000,0.445
74.8400,0.413
74.8800,0.419
74.9200,0.434
74.9600,0.478
75.0000,0.490
75.0400,0.646
75.0800,0.694
75.1200,0.719
75.1600,0.688
75.2000,0.611
75.2400,0.604
75.2800,0.620
75.3200,0.563
75.3600,0.552
75.4000,0.501
75.4400,0.504
75.4800,0.472
75.5200,0.436
75.5600,0.459
75.6000,0.416
75.6400,0.396
75.6800,0.400
75.7200,0.392
75.7600,0.395
75.8000,0.389
75.8400,0.374
75.8800,0.360
75.9200,0.413
75.9600,0.403
76.0000,0.334
76.0400,0.406
76.0800,0.398
76.1200,0.381
76.1600,0.391
76.2000,0.474
76.2400,0.415
76.2800,0.498
76.3200,0.396
76.3600,0.457
76.4000,0.399
76.4400,0.424
76.4800,0.466
76.5200,0.450
76.5600,0.437
76.6000,0.387
76.6400,0.433
76.6800,0.402
76.7200,0.424
76.7600,0.416
76.8000,0.381
76.8400,0.389
76.8800,0.349
76.9200,0.374
76.9600,0.367
77.0000,0.435
77.0400,0.455
77.0800,0.443
77.1200,0.414
77.1600,0.453
77.2000,0.491
77.2400,0.604
77.2800,0.769
77.3200,1.063
77.3600,1.044
77.4000,0.866
77.4400,0.758
77.4800,0.647
77.5200,0.742
77.5600,0.705
77.6000,0.719
77.6400,0.558
77.6800,0.470
77.7200,0.465
77.7600,0.422
77.8000,0.417
77.8400,0.412
77.8800,0.411
77.9200,0.390
77.9600,0.335
78.0000,0.380
78.0400,0.356
78.0800,0.367
78.1200,0.407
78.1600,0.366
78.2000,0.400
78.2400,0.397
78.2800,0.386
78.3200,0.405
78.3600,0.409
78.4000,0.344
78.4400,0.353
78.4800,0.368
78.5200,0.390
78.5600,0.380
78.6000,0.368
78.6400,0.378
78.6800,0.311
78.7200,0.338
78.7600,0.352
78.8000,0.344
78.8400,0.343
78.8800,0.421
78.9200,0.362
78.9600,0.338
79.0000,0.377
79.0400,0.351
79.0800,0.343
79.1200,0.374
79.1600,0.359
79.2000,0.308
79.2400,0.350
79.2800,0.354
79.3200,0.396
79.3600,0.429
79.4000,0.394
79.4400,0.357
79.4800,0.360
79.5200,0.363
79.5600,0.467
79.6000,0.471
79.6400,0.353
79.6800,0.331
79.7200,0.366
79.7600,0.369
79.8000,0.374
79.8400,0.383
79.8800,0.394
79.9200,0.376
79.9600,0.370
80.0000,0.394
