theta,intensity
5.0000,7.220
5.0400,7.123
5.0800,7.043
5.1200,7.015
5.1600,6.750
5.2000,6.765
5.2400,6.548
5.2800,6.458
5.3200,6.507
5.3600,6.391
5.4000,6.163
5.4400,6.026
5.4800,5.931
5.5200,5.884
5.5600,5.657
5.6000,5.637
5.6400,5.492
5.6800,5.577
5.7200,5.431
5.7600,5.362
5.8000,5.186
5.8400,4.964
5.8800,5.007
5.9200,4.944
5.9600,4.944
6.0000,4.774
6.0400,4.855
6.0800,4.813
6.1200,4.537
6.1600,4.526
6.2000,4.440
6.2400,4.385
6.2800,4.330
6.3200,4.281
6.3600,4.382
6.4000,4.400
6.4400,4.320
6.4800,4.270
6.5200,4.273
6.5600,4.340
6.6000,4.316
6.6400,4.215
6.6800,4.182
6.7200,4.171
6.7600,3.937
6.8000,4.156
6.8400,4.127
6.8800,4.221
6.9200,4.197
6.9600,4.115
7.0000,4.207
7.0400,4.083
7.0800,4.188
7.1200,4.018
7.1600,4.357
7.2000,3.979
7.2400,4.113
7.2800,4.035
7.3200,4.131
7.3600,3.973
7.4000,4.050
7.4400,4.133
7.4800,4.066
7.5200,3.976
7.5600,4.110
7.6000,3.979
7.6400,4.026
7.6800,3.981
7.7200,3.944
7.7600,4.101
7.8000,4.214
7.8400,4.118
7.8800,4.053
7.9200,4.130
7.9600,3.939
8.0000,4.188
8.0400,4.067
8.0800,3.844
8.1200,3.894
8.1600,3.990
8.2000,3.948
8.2400,4.051
8.2800,4.090
8.3200,3.963
8.3600,3.955
8.4000,3.789
8.4400,3.995
8.4800,3.870
8.5200,3.806
8.5600,4.022
8.6000,3.786
8.6400,3.902
8.6800,3.767
8.7200,3.763
8.7600,3.953
8.8000,3.764
8.8400,3.797
8.8800,3.804
8.9200,3.814
8.9600,3.684
9.0000,3.876
9.0400,3.773
9.0800,3.843
9.1200,3.790
9.1600,3.928
9.2000,3.900
9.2400,3.654
9.2800,3.867
9.3200,3.861
9.3600,3.738
9.4000,3.741
9.4400,3.773
9.4800,3.878
9.5200,3.887
9.5600,3.590
9.6000,3.824
9.6400,3.621
9.6800,3.647
9.7200,3.630
9.7600,3.937
9.8000,3.686
9.8400,3.856
9.8800,3.693
9.9200,3.735
9.9600,3.602
10.0000,3.789
10.0400,3.811
10.0800,3.735
10.1200,3.712
10.1600,3.574
10.2000,3.728
10.2400,3.648
10.2800,3.686
10.3200,3.763
10.3600,3.630
10.4000,3.592
10.4400,3.740
10.4800,3.644
10.5200,3.672
10.5600,3.588
10.6000,3.506
10.6400,3.569
10.6800,3.506
10.7200,3.781
10.7600,3.817
10.8000,3.553
10.8400,3.545
10.8800,3.509
10.9200,3.476
10.9600,3.517
11.0000,3.499
11.0400,3.523
11.0800,3.609
11.1200,3.665
11.1600,3.630
11.2000,3.628
11.2400,3.563
11.2800,3.637
11.3200,3.525
11.3600,3.589
11.4000,3.565
11.4400,3.539
11.4800,3.631
11.5200,3.601
11.5600,3.621
11.6000,3.479
11.6400,3.546
11.6800,3.432
11.7200,3.468
11.7600,3.545
11.8000,3.548
11.8400,3.550
11.8800,3.421
11.9200,3.467
11.9600,3.415
12.0000,3.522
12.0400,3.509
12.0800,3.338
12.1200,3.462
12.1600,3.470
12.2000,3.508
12.2400,3.551
12.2800,3.377
12.3200,3.337
12.3600,3.494
12.4000,3.410
12.4400,3.569
12.4800,3.576
12.5200,3.422
12.5600,3.481
12.6000,3.520
12.6400,3.565
12.6800,3.410
12.7200,3.403
12.7600,3.462
12.8000,3.310
12.8400,3.572
12.8800,3.392
12.9200,3.302
12.9600,3.488
13.0000,3.347
13.0400,3.442
13.0800,3.297
13.1200,3.420
13.1600,3.404
13.2000,3.340
13.2400,3.355
13.2800,3.392
13.3200,3.251
13.3600,3.241
13.4000,3.283
13.4400,3.436
13.4800,3.344
13.5200,3.338
13.5600,3.314
13.6000,3.370
13.6400,3.401
13.6800,3.280
13.7200,3.244
13.7600,3.230
13.8000,3.260
13.8400,3.131
13.8800,3.305
13.9200,3.190
13.9600,3.238
14.0000,3.210
14.0400,3.324
14.0800,3.414
14.1200,3.277
14.1600,3.265
14.2000,3.223
14.2400,3.245
14.2800,3.159
14.3200,3.210
14.3600,3.272
14.4000,3.245
14.4400,3.275
14.4800,3.079
14.5200,3.127
14.5600,3.378
14.6000,3.218
14.6400,3.193
14.6800,3.097
14.7200,3.136
14.7600,3.301
14.8000,3.129
14.8400,3.195
14.8800,3.186
14.9200,3.160
14.9600,3.225
15.0000,3.269
15.0400,3.135
15.0800,3.176
15.1200,3.213
15.1600,3.128
15.2000,3.186
15.2400,3.089
15.2800,2.984
15.3200,3.055
15.3600,3.089
15.4000,3.281
15.4400,3.159
15.4800,3.059
15.5200,3.246
15.5600,3.090
15.6000,3.097
15.6400,2.989
15.6800,3.010
15.7200,2.990
15.7600,3.130
15.8000,3.128
15.8400,3.123
15.8800,2.978
15.9200,3.045
15.9600,3.029
16.0000,3.129
16.0400,3.111
16.0800,3.120
16.1200,3.047
16.1600,3.040
16.2000,3.131
16.2400,2.980
16.2800,2.982
16.3200,3.125
16.3600,3.106
16.4000,3.006
16.4400,3.035
16.4800,3.074
16.5200,3.021
16.5600,2.989
16.6000,2.973
16.6400,3.014
16.6800,3.153
16.7200,2.995
16.7600,2.982
16.8000,3.102
16.8400,2.995
16.8800,3.027
16.9200,3.048
16.9600,3.005
17.0000,2.970
17.0400,3.087
17.0800,3.064
17.1200,2.980
17.1600,2.921
17.2000,2.946
17.2400,2.961
17.2800,2.836
17.3200,2.914
17.3600,2.957
17.4000,2.954
17.4400,2.895
17.4800,2.926
17.5200,3.081
17.5600,2.912
17.6000,2.956
17.6400,3.068
17.6800,2.882
17.7200,3.031
17.7600,2.955
17.8000,3.019
17.8400,2.970
17.8800,2.780
17.9200,3.027
17.9600,3.019
18.0000,2.966
18.0400,2.770
18.0800,2.966
18.1200,2.938
18.1600,2.864
18.2000,2.846
18.2400,2.879
18.2800,2.763
18.3200,2.755
18.3600,2.816
18.4000,2.787
18.4400,2.718
18.4800,2.848
18.5200,2.888
18.5600,2.888
18.6000,2.865
18.6400,2.866
18.6800,2.879
18.7200,2.799
18.7600,2.786
18.8000,3.008
18.8400,2.819
18.8800,2.876
18.9200,2.830
18.9600,2.836
19.0000,2.903
19.0400,2.759
19.0800,2.654
19.1200,2.713
19.1600,2.751
19.2000,2.811
19.2400,2.612
19.2800,2.800
19.3200,2.865
19.3600,2.789
19.4000,2.810
19.4400,2.743
19.4800,2.690
19.5200,2.736
19.5600,2.754
19.6000,2.808
19.6400,2.865
19.6800,2.796
19.7200,2.814
19.7600,2.718
19.8000,2.718
19.8400,2.690
19.8800,2.596
19.9200,2.600
19.9600,2.684
20.0000,2.802
20.0400,2.667
20.0800,2.728
20.1200,2.687
20.1600,2.689
20.2000,2.579
20.2400,2.686
20.2800,2.702
20.3200,2.767
20.3600,2.705
20.4000,2.722
20.4400,2.657
20.4800,2.753
20.5200,2.654
20.5600,2.737
20.6000,2.747
20.6400,2.768
20.6800,2.667
20.7200,2.640
20.7600,2.637
20.8000,2.642
20.8400,2.536
20.8800,2.679
20.9200,2.572
20.9600,2.662
21.0000,2.507
21.0400,2.623
21.0800,2.716
21.1200,2.597
21.1600,2.773
21.2000,2.649
21.2400,2.487
21.2800,2.698
21.3200,2.580
21.3600,2.675
21.4000,2.559
21.4400,2.565
21.4800,2.598
21.5200,2.446
21.5600,2.609
21.6000,2.513
21.6400,2.519
21.6800,2.552
21.7200,2.614
21.7600,2.510
21.8000,2.515
21.8400,2.518
21.8800,2.558
21.9200,2.560
21.9600,2.605
22.0000,2.624
22.0400,2.540
22.0800,2.591
22.1200,2.570
22.1600,2.585
22.2000,2.555
22.2400,2.461
22.2800,2.480
22.3200,2.554
22.3600,2.441
22.4000,2.532
22.4400,2.569
22.4800,2.479
22.5200,2.419
22.5600,2.538
22.6000,2.553
22.6400,2.532
22.6800,2.483
22.7200,2.526
22.7600,2.527
22.8000,2.418
22.8400,2.397
22.8800,2.413
22.9200,2.420
22.9600,2.346
23.0000,2.436
23.0400,2.436
23.0800,2.334
23.1200,2.528
23.1600,2.464
23.2000,2.450
23.2400,2.380
23.2800,2.411
23.3200,2.266
23.3600,2.503
23.4000,2.434
23.4400,2.459
23.4800,2.406
23.5200,2.644
23.5600,2.479
23.6000,2.448
23.6400,2.443
23.6800,2.442
23.7200,2.342
23.7600,2.374
23.8000,2.317
23.8400,2.474
23.8800,2.350
23.9200,2.427
23.9600,2.434
24.0000,2.441
24.0400,2.346
24.0800,2.366
24.1200,2.350
24.1600,2.335
24.2000,2.415
24.2400,2.411
24.2800,2.427
24.3200,2.391
24.3600,2.248
24.4000,2.319
24.4400,2.520
24.4800,2.318
24.5200,2.329
24.5600,2.275
24.6000,2.332
24.6400,2.385
24.6800,2.375
24.7200,2.391
24.7600,2.261
24.8000,2.316
24.8400,2.239
24.8800,2.456
24.9200,2.271
24.9600,2.325
25.0000,2.279
25.0400,2.349
25.0800,2.287
25.1200,2.386
25.1600,2.274
25.2000,2.317
25.2400,2.255
25.2800,2.284
25.3200,2.260
25.3600,2.247
25.4000,2.346
25.4400,2.321
25.4800,2.298
25.5200,2.201
25.5600,2.305
25.6000,2.224
25.6400,2.172
25.6800,2.321
25.7200,2.364
25.7600,2.398
25.8000,2.182
25.8400,2.196
25.8800,2.349
25.9200,2.323
25.9600,2.202
26.0000,2.252
26.0400,2.216
26.0800,2.359
26.1200,2.323
26.1600,2.276
26.2000,2.073
26.2400,2.285
26.2800,2.142
26.3200,2.257
26.3600,2.245
26.4000,2.169
26.4400,2.232
26.4800,2.167
26.5200,2.293
26.5600,2.238
26.6000,2.304
26.6400,2.228
26.6800,2.139
26.7200,2.095
26.7600,2.218
26.8000,2.236
26.8400,2.300
26.8800,2.167
26.9200,2.145
26.9600,2.124
27.0000,2.174
27.0400,2.241
27.0800,2.239
27.1200,2.173
27.1600,2.182
27.2000,2.075
27.2400,2.235
27.2800,2.249
27.3200,2.225
27.3600,2.370
27.4000,2.260
27.4400,2.136
27.4800,2.201
27.5200,2.284
27.5600,2.233
27.6000,2.230
27.6400,2.321
27.6800,2.235
27.7200,2.298
27.7600,2.296
27.8000,2.261
27.8400,2.380
27.8800,2.335
27.9200,2.371
27.9600,2.247
28.0000,2.321
28.0400,2.292
28.0800,2.299
28.1200,2.316
28.1600,2.482
28.2000,2.361
28.2400,2.385
28.2800,2.444
28.3200,2.366
28.3600,2.344
28.4000,2.380
28.4400,2.426
28.4800,2.434
28.5200,2.468
28.5600,2.235
28.6000,2.337
28.6400,2.362
28.6800,2.306
28.7200,2.339
28.7600,2.275
28.8000,2.364
28.8400,2.242
28.8800,2.265
28.9200,2.325
28.9600,2.295
29.0000,2.193
29.0400,2.255
29.0800,2.294
29.1200,2.239
29.1600,2.111
29.2000,2.207
29.2400,2.232
29.2800,2.256
29.3200,2.099
29.3600,2.046
29.4000,2.158
29.4400,2.162
29.4800,2.090
29.5200,2.156
29.5600,2.212
29.6000,2.068
29.6400,2.084
29.6800,1.907
29.7200,2.110
29.7600,2.101
29.8000,2.097
29.8400,2.027
29.8800,2.034
29.9200,2.036
29.9600,2.017
30.0000,2.018
30.0400,2.018
30.0800,2.013
30.1200,2.011
30.1600,1.889
30.2000,1.895
30.2400,1.887
30.2800,1.876
30.3200,1.884
30.3600,1.984
30.4000,2.008
30.4400,1.989
30.4800,1.864
30.5200,1.829
30.5600,1.838
30.6000,1.844
30.6400,1.784
30.6800,1.883
30.7200,1.822
30.7600,1.819
30.8000,1.730
30.8400,1.787
30.8800,1.845
30.9200,2.012
30.9600,1.902
31.0000,1.787
31.0400,1.851
31.0800,1.776
31.1200,1.819
31.1600,1.761
31.2000,1.797
31.2400,1.707
31.2800,1.772
31.3200,1.739
31.3600,1.780
31.4000,1.792
31.4400,1.757
31.4800,1.659
31.5200,1.813
31.5600,1.768
31.6000,1.819
31.6400,1.799
31.6800,1.682
31.7200,1.787
31.7600,1.754
31.8000,1.712
31.8400,1.677
31.8800,1.745
31.9200,1.789
31.9600,1.761
32.0000,1.706
32.0400,1.744
32.0800,1.747
32.1200,1.718
32.1600,1.756
32.2000,1.782
32.2400,1.716
32.2800,1.710
32.3200,1.520
32.3600,1.686
32.4000,1.766
32.4400,1.827
32.4800,1.798
32.5200,1.597
32.5600,1.609
32.6000,1.609
32.6400,1.753
32.6800,1.578
32.7200,1.553
32.7600,1.592
32.8000,1.583
32.8400,1.689
32.8800,1.699
32.9200,1.630
32.9600,1.650
33.0000,1.585
33.0400,1.630
33.0800,1.594
33.1200,1.610
33.1600,1.575
33.2000,1.615
33.2400,1.574
33.2800,1.608
33.3200,1.554
33.3600,1.644
33.4000,1.588
33.4400,1.569
33.4800,1.578
33.5200,1.641
33.5600,1.528
33.6000,1.537
33.6400,1.643
33.6800,1.521
33.7200,1.590
33.7600,1.534
33.8000,1.569
33.8400,1.608
33.8800,1.478
33.9200,1.634
33.9600,1.586
34.0000,1.481
34.0400,1.484
34.0800,1.520
34.1200,1.469
34.1600,1.604
34.2000,1.426
34.2400,1.591
34.2800,1.507
34.3200,1.554
34.3600,1.455
34.4000,1.445
34.4400,1.537
34.4800,1.524
34.5200,1.499
34.5600,1.481
34.6000,1.588
34.6400,1.527
34.6800,1.454
34.7200,1.458
34.7600,1.522
34.8000,1.459
34.8400,1.596
34.8800,1.464
34.9200,1.487
34.9600,1.429
35.0000,1.532
35.0400,1.498
35.0800,1.500
35.1200,1.532
35.1600,1.483
35.2000,1.611
35.2400,1.486
35.2800,1.434
35.3200,1.444
35.3600,1.363
35.4000,1.434
35.4400,1.430
35.4800,1.490
35.5200,1.459
35.5600,1.423
35.6000,1.517
35.6400,1.563
35.6800,1.414
35.7200,1.416
35.7600,1.439
35.8000,1.377
35.8400,1.423
35.8800,1.466
35.9200,1.364
35.9600,1.403
36.0000,1.410
36.0400,1.387
36.0800,1.408
36.1200,1.425
36.1600,1.431
36.2000,1.421
36.2400,1.423
36.2800,1.323
36.3200,1.445
36.3600,1.452
36.4000,1.464
36.4400,1.406
36.4800,1.464
36.5200,1.418
36.5600,1.412
36.6000,1.451
36.6400,1.432
36.6800,1.327
36.7200,1.308
36.7600,1.469
36.8000,1.399
36.8400,1.343
36.8800,1.303
36.9200,1.320
36.9600,1.464
37.0000,1.473
37.0400,1.358
37.0800,1.405
37.1200,1.420
37.1600,1.408
37.2000,1.363
37.2400,1.398
37.2800,1.407
37.3200,1.445
37.3600,1.361
37.4000,1.465
37.4400,1.395
37.4800,1.363
37.5200,1.328
37.5600,1.292
37.6000,1.416
37.6400,1.307
37.6800,1.299
37.7200,1.417
37.7600,1.449
37.8000,1.360
37.8400,1.448
37.8800,1.406
37.9200,1.319
37.9600,1.520
38.0000,1.524
38.0400,1.414
38.0800,1.466
38.1200,1.462
38.1600,1.563
38.2000,1.649
38.2400,1.586
38.2800,1.572
38.3200,1.758
38.3600,1.884
38.4000,1.957
38.4400,2.043
38.4800,2.086
38.5200,2.271
38.5600,2.461
38.6000,2.466
38.6400,2.647
38.6800,2.719
38.7200,2.670
38.7600,2.806
38.8000,2.809
38.8400,2.835
38.8800,2.807
38.9200,2.800
38.9600,2.737
39.0000,2.592
39.0400,2.570
39.0800,2.529
39.1200,2.464
39.1600,2.415
39.2000,2.208
39.2400,2.101
39.2800,2.067
39.3200,2.016
39.3600,1.895
39.4000,1.937
39.4400,1.861
39.4800,1.812
39.5200,1.980
39.5600,1.883
39.6000,1.775
39.6400,1.790
39.6800,1.828
39.7200,1.981
39.7600,2.015
39.8000,1.897
39.8400,2.059
39.8800,2.154
39.9200,2.228
39.9600,2.165
40.0000,2.338
40.0400,2.322
40.0800,2.299
40.1200,2.205
40.1600,2.037
40.2000,1.937
40.2400,1.765
40.2800,1.784
40.3200,1.674
40.3600,1.517
40.4000,1.452
40.4400,1.513
40.4800,1.408
40.5200,1.417
40.5600,1.367
40.6000,1.354
40.6400,1.320
40.6800,1.272
40.7200,1.360
40.7600,1.253
40.8000,1.302
40.8400,1.166
40.8800,1.202
40.9200,1.205
40.9600,1.143
41.0000,1.229
41.0400,1.199
41.0800,1.254
41.1200,1.192
41.1600,1.179
41.2000,1.235
41.2400,1.248
41.2800,1.133
41.3200,1.185
41.3600,1.166
41.4000,1.160
41.4400,1.131
41.4800,1.146
41.5200,1.175
41.5600,1.142
41.6000,1.088
41.6400,1.216
41.6800,1.092
41.7200,1.132
41.7600,1.168
41.8000,1.057
41.8400,1.102
41.8800,1.134
41.9200,1.150
41.9600,1.166
42.0000,1.067
42.0400,1.118
42.0800,1.111
42.1200,1.161
42.1600,1.140
42.2000,1.106
42.2400,1.075
42.2800,1.111
42.3200,1.142
42.3600,1.099
42.4000,1.039
42.4400,1.122
42.4800,1.102
42.5200,1.092
42.5600,1.055
42.6000,1.132
42.6400,1.107
42.6800,1.124
42.7200,1.038
42.7600,1.088
42.8000,1.062
42.8400,1.049
42.8800,1.066
42.9200,1.108
42.9600,1.009
43.0000,1.114
43.0400,1.061
43.0800,1.033
43.1200,1.061
43.1600,1.006
43.2000,1.057
43.2400,1.024
43.2800,1.035
43.3200,1.050
43.3600,0.964
43.4000,1.025
43.4400,0.992
43.4800,1.102
43.5200,0.988
43.5600,1.063
43.6000,1.065
43.6400,0.939
43.6800,1.050
43.7200,1.043
43.7600,1.066
43.8000,1.031
43.8400,1.086
43.8800,1.029
43.9200,0.993
43.9600,1.083
44.0000,1.012
44.0400,0.977
44.0800,1.071
44.1200,1.069
44.1600,1.066
44.2000,1.068
44.2400,1.081
44.2800,1.096
44.3200,1.054
44.3600,1.169
44.4000,1.042
44.4400,1.162
44.4800,1.155
44.5200,1.141
44.5600,1.163
44.6000,1.170
44.6400,1.211
44.6800,1.204
44.7200,1.325
44.7600,1.271
44.8000,1.393
44.8400,1.393
44.8800,1.385
44.9200,1.469
44.9600,1.382
45.0000,1.448
45.0400,1.491
45.0800,1.411
45.1200,1.513
45.1600,1.390
45.2000,1.384
45.2400,1.570
45.2800,1.342
45.3200,1.411
45.3600,1.333
45.4000,1.406
45.4400,1.295
45.4800,1.326
45.5200,1.270
45.5600,1.240
45.6000,1.282
45.6400,1.271
45.6800,1.275
45.7200,1.181
45.7600,1.151
45.8000,1.137
45.8400,1.253
45.8800,1.185
45.9200,1.139
45.9600,1.170
46.0000,1.104
46.0400,1.147
46.0800,1.156
46.1200,1.201
46.1600,1.176
46.2000,1.148
46.2400,1.119
46.2800,1.091
46.3200,1.151
46.3600,1.154
46.4000,1.191
46.4400,1.243
46.4800,1.181
46.5200,1.254
46.5600,1.228
46.6000,1.111
46.6400,1.186
46.6800,1.167
46.7200,1.146
46.7600,1.154
46.8000,1.013
46.8400,1.072
46.8800,1.059
46.9200,1.021
46.9600,0.998
47.0000,0.986
47.0400,1.015
47.0800,0.981
47.1200,0.953
47.1600,0.911
47.2000,0.915
47.2400,1.002
47.2800,0.945
47.3200,0.939
47.3600,0.905
47.4000,0.909
47.4400,0.912
47.4800,0.929
47.5200,0.918
47.5600,0.891
47.6000,0.876
47.6400,0.800
47.6800,0.883
47.7200,0.910
47.7600,0.895
47.8000,0.839
47.8400,0.898
47.8800,0.825
47.9200,0.888
47.9600,0.831
48.0000,0.858
48.0400,0.919
48.0800,0.845
48.1200,0.854
48.1600,0.748
48.2000,0.897
48.2400,0.852
48.2800,0.881
48.3200,0.773
48.3600,0.835
48.4000,0.843
48.4400,0.869
48.4800,0.878
48.5200,0.831
48.5600,0.795
48.6000,0.878
48.6400,0.826
48.6800,0.853
48.7200,0.838
48.7600,0.788
48.8000,0.814
48.8400,0.823
48.8800,0.849
48.9200,0.788
48.9600,0.832
49.0000,0.841
49.0400,0.839
49.0800,0.795
49.1200,0.787
49.1600,0.828
49.2000,0.763
49.2400,0.797
49.2800,0.861
49.3200,0.719
49.3600,0.769
49.4000,0.759
49.4400,0.758
49.4800,0.802
49.5200,0.807
49.5600,0.778
49.6000,0.822
49.6400,0.818
49.6800,0.829
49.7200,0.837
49.7600,0.865
49.8000,0.843
49.8400,0.834
49.8800,0.851
49.9200,0.783
49.9600,0.762
50.0000,0.780
50.0400,0.760
50.0800,0.794
50.1200,0.812
50.1600,0.829
50.2000,0.780
50.2400,0.783
50.2800,0.781
50.3200,0.760
50.3600,0.839
50.4000,0.774
50.4400,0.835
50.4800,0.697
50.5200,0.760
50.5600,0.737
50.6000,0.799
50.6400,0.722
50.6800,0.781
50.7200,0.670
50.7600,0.780
50.8000,0.807
50.8400,0.729
50.8800,0.801
50.9200,0.776
50.9600,0.768
51.0000,0.766
51.0400,0.724
51.0800,0.757
51.1200,0.748
51.1600,0.665
51.2000,0.726
51.2400,0.765
51.2800,0.696
51.3200,0.764
51.3600,0.713
51.4000,0.699
51.4400,0.758
51.4800,0.811
51.5200,0.689
51.5600,0.719
51.6000,0.753
51.6400,0.689
51.6800,0.671
51.7200,0.730
51.7600,0.680
51.8000,0.679
51.8400,0.766
51.8800,0.709
51.9200,0.683
51.9600,0.701
52.0000,0.686
52.0400,0.747
52.0800,0.729
52.1200,0.733
52.1600,0.659
52.2000,0.682
52.2400,0.672
52.2800,0.733
52.3200,0.685
52.3600,0.715
52.4000,0.713
52.4400,0.754
52.4800,0.673
52.5200,0.742
52.5600,0.802
52.6000,0.716
52.6400,0.686
52.6800,0.737
52.7200,0.720
52.7600,0.683
52.8000,0.697
52.8400,0.671
52.8800,0.671
52.9200,0.706
52.9600,0.656
53.0000,0.738
53.0400,0.766
53.0800,0.689
53.1200,0.750
53.1600,0.691
53.2000,0.694
53.2400,0.716
53.2800,0.652
53.3200,0.688
53.3600,0.689
53.4000,0.702
53.4400,0.651
53.4800,0.668
53.5200,0.748
53.5600,0.680
53.6000,0.661
53.6400,0.665
53.6800,0.624
53.7200,0.675
53.7600,0.648
53.8000,0.613
53.8400,0.692
53.8800,0.708
53.9200,0.647
53.9600,0.661
54.0000,0.639
54.0400,0.624
54.0800,0.607
54.1200,0.639
54.1600,0.703
54.2000,0.714
54.2400,0.663
54.2800,0.670
54.3200,0.681
54.3600,0.706
54.4000,0.615
54.4400,0.693
54.4800,0.673
54.5200,0.630
54.5600,0.647
54.6000,0.601
54.6400,0.566
54.6800,0.621
54.7200,0.583
54.7600,0.571
54.8000,0.638
54.8400,0.583
54.8800,0.640
54.9200,0.658
54.9600,0.634
55.0000,0.581
55.0400,0.650
55.0800,0.662
55.1200,0.607
55.1600,0.649
55.2000,0.656
55.2400,0.649
55.2800,0.613
55.3200,0.649
55.3600,0.699
55.4000,0.675
55.4400,0.646
55.4800,0.595
55.5200,0.641
55.5600,0.626
55.6000,0.652
55.6400,0.603
55.6800,0.651
55.7200,0.683
55.7600,0.624
55.8000,0.644
55.8400,0.690
55.8800,0.639
55.9200,0.591
55.9600,0.620
56.0000,0.618
56.0400,0.618
56.0800,0.635
56.1200,0.545
56.1600,0.654
56.2000,0.607
56.2400,0.630
56.2800,0.592
56.3200,0.590
56.3600,0.610
56.4000,0.618
56.4400,0.616
56.4800,0.578
56.5200,0.669
56.5600,0.642
56.6000,0.639
56.6400,0.665
56.6800,0.616
56.7200,0.606
56.7600,0.618
56.8000,0.582
56.8400,0.557
56.8800,0.587
56.9200,0.618
56.9600,0.634
57.0000,0.668
57.0400,0.579
57.0800,0.566
57.1200,0.585
57.1600,0.565
57.2000,0.584
57.2400,0.614
57.2800,0.584
57.3200,0.603
57.3600,0.641
57.4000,0.612
57.4400,0.600
57.4800,0.590
57.5200,0.619
57.5600,0.579
57.6000,0.578
57.6400,0.614
57.6800,0.610
57.7200,0.617
57.7600,0.578
57.8000,0.585
57.8400,0.549
57.8800,0.623
57.9200,0.547
57.9600,0.650
58.0000,0.541
58.0400,0.574
58.0800,0.606
58.1200,0.518
58.1600,0.616
58.2000,0.616
58.2400,0.570
58.2800,0.573
58.3200,0.619
58.3600,0.583
58.4000,0.602
58.4400,0.558
58.4800,0.600
58.5200,0.601
58.5600,0.525
58.6000,0.537
58.6400,0.568
58.6800,0.527
58.7200,0.575
58.7600,0.541
58.8000,0.572
58.8400,0.555
58.8800,0.494
58.9200,0.548
58.9600,0.588
59.0000,0.558
59.0400,0.516
59.0800,0.604
59.1200,0.562
59.1600,0.500
59.2000,0.578
59.2400,0.538
59.2800,0.582
59.3200,0.591
59.3600,0.574
59.4000,0.540
59.4400,0.524
59.4800,0.553
59.5200,0.609
59.5600,0.590
59.6000,0.569
59.6400,0.557
59.6800,0.502
59.7200,0.602
59.7600,0.544
59.8000,0.498
59.8400,0.514
59.8800,0.575
59.9200,0.502
59.9600,0.488
60.0000,0.560
60.0400,0.540
60.0800,0.590
60.1200,0.528
60.1600,0.502
60.2000,0.534
60.2400,0.591
60.2800,0.548
60.3200,0.541
60.3600,0.541
60.4000,0.529
60.4400,0.542
60.4800,0.522
60.5200,0.547
60.5600,0.514
60.6000,0.465
60.6400,0.538
60.6800,0.511
60.7200,0.462
60.7600,0.491
60.8000,0.504
60.8400,0.494
60.8800,0.533
60.9200,0.549
60.9600,0.536
61.0000,0.486
61.0400,0.495
61.0800,0.550
61.1200,0.519
61.1600,0.472
61.2000,0.540
61.2400,0.501
61.2800,0.472
61.3200,0.457
61.3600,0.528
61.4000,0.571
61.4400,0.512
61.4800,0.500
61.5200,0.514
61.5600,0.511
61.6000,0.490
61.6400,0.429
61.6800,0.488
61.7200,0.505
61.7600,0.499
61.8000,0.513
61.8400,0.489
61.8800,0.515
61.9200,0.476
61.9600,0.458
62.0000,0.497
62.0400,0.525
62.0800,0.493
62.1200,0.458
62.1600,0.493
62.2000,0.516
62.2400,0.438
62.2800,0.469
62.3200,0.435
62.3600,0.472
62.4000,0.473
62.4400,0.454
62.4800,0.457
62.5200,0.492
62.5600,0.477
62.6000,0.486
62.6400,0.501
62.6800,0.523
62.7200,0.475
62.7600,0.520
62.8000,0.464
62.8400,0.492
62.8800,0.514
62.9200,0.489
62.9600,0.493
63.0000,0.499
63.0400,0.480
63.0800,0.502
63.1200,0.436
63.1600,0.500
63.2000,0.380
63.2400,0.448
63.2800,0.479
63.3200,0.497
63.3600,0.450
63.4000,0.450
63.4400,0.457
63.4800,0.396
63.5200,0.511
63.5600,0.417
63.6000,0.438
63.6400,0.431
63.6800,0.424
63.7200,0.400
63.7600,0.514
63.8000,0.427
63.8400,0.420
63.8800,0.450
63.9200,0.444
63.9600,0.474
64.0000,0.479
64.0400,0.442
64.0800,0.494
64.1200,0.457
64.1600,0.442
64.2000,0.431
64.2400,0.452
64.2800,0.418
64.3200,0.415
64.3600,0.439
64.4000,0.464
64.4400,0.455
64.4800,0.484
64.5200,0.501
64.5600,0.471
64.6000,0.475
64.6400,0.484
64.6800,0.463
64.7200,0.512
64.7600,0.499
64.8000,0.489
64.8400,0.482
64.8800,0.468
64.9200,0.488
64.9600,0.474
65.0000,0.522
65.0400,0.509
65.0800,0.518
65.1200,0.507
65.1600,0.548
65.2000,0.546
65.2400,0.524
65.2800,0.539
65.3200,0.568
65.3600,0.541
65.4000,0.525
65.4400,0.540
65.4800,0.498
65.5200,0.552
65.5600,0.547
65.6000,0.612
65.6400,0.564
65.6800,0.548
65.7200,0.596
65.7600,0.613
65.8000,0.564
65.8400,0.608
65.8800,0.610
65.9200,0.536
65.9600,0.562
66.0000,0.555
66.0400,0.578
66.0800,0.558
66.1200,0.583
66.1600,0.577
66.2000,0.500
66.2400,0.584
66.2800,0.536
66.3200,0.521
66.3600,0.522
66.4000,0.503
66.4400,0.514
66.4800,0.585
66.5200,0.504
66.5600,0.472
66.6000,0.475
66.6400,0.482
66.6800,0.423
66.7200,0.494
66.7600,0.516
66.8000,0.402
66.8400,0.443
66.8800,0.445
66.9200,0.451
66.9600,0.484
67.0000,0.446
67.0400,0.529
67.0800,0.462
67.1200,0.452
67.1600,0.443
67.2000,0.451
67.2400,0.461
67.2800,0.471
67.3200,0.443
67.3600,0.462
67.4000,0.427
67.4400,0.408
67.4800,0.440
67.5200,0.498
67.5600,0.423
67.6000,0.427
67.6400,0.485
67.6800,0.462
67.7200,0.492
67.7600,0.493
67.8000,0.476
67.8400,0.535
67.8800,0.434
67.9200,0.491
67.9600,0.512
68.0000,0.491
68.0400,0.462
68.0800,0.482
68.1200,0.473
68.1600,0.523
68.2000,0.478
68.2400,0.442
68.2800,0.508
68.3200,0.449
68.3600,0.431
68.4000,0.457
68.4400,0.480
68.4800,0.471
68.5200,0.394
68.5600,0.434
68.6000,0.421
68.6400,0.425
68.6800,0.395
68.7200,0.384
68.7600,0.388
68.8000,0.365
68.8400,0.454
68.8800,0.374
68.9200,0.405
68.9600,0.367
69.0000,0.382
69.0400,0.402
69.0800,0.324
69.1200,0.390
69.1600,0.373
69.2000,0.382
69.2400,0.367
69.2800,0.347
69.3200,0.377
69.3600,0.362
69.4000,0.374
69.4400,0.385
69.4800,0.351
69.5200,0.378
69.5600,0.362
69.6000,0.376
69.6400,0.359
69.6800,0.345
69.7200,0.350
69.7600,0.394
69.8000,0.373
69.8400,0.349
69.8800,0.327
69.9200,0.337
69.9600,0.385
70.0000,0.376
70.0400,0.390
70.0800,0.374
70.1200,0.356
70.1600,0.341
70.2000,0.342
70.2400,0.346
70.2800,0.353
70.3200,0.317
70.3600,0.346
70.4000,0.339
70.4400,0.341
70.4800,0.326
70.5200,0.332
70.5600,0.330
70.6000,0.343
70.6400,0.351
70.6800,0.340
70.7200,0.314
70.7600,0.321
70.8000,0.343
70.8400,0.376
70.8800,0.363
70.9200,0.314
70.9600,0.323
71.0000,0.382
71.0400,0.344
71.0800,0.327
71.1200,0.355
71.1600,0.354
71.2000,0.336
71.2400,0.314
71.2800,0.292
71.3200,0.339
71.3600,0.344
71.4000,0.386
71.4400,0.370
71.4800,0.352
71.5200,0.329
71.5600,0.326
71.6000,0.291
71.6400,0.304
71.6800,0.279
71.7200,0.337
71.7600,0.303
71.8000,0.309
71.8400,0.350
71.8800,0.328
71.9200,0.342
71.9600,0.323
72.0000,0.387
72.0400,0.344
72.0800,0.328
72.1200,0.337
72.1600,0.307
72.2000,0.362
72.2400,0.321
72.2800,0.295
72.3200,0.327
72.3600,0.307
72.4000,0.379
72.4400,0.289
72.4800,0.330
72.5200,0.330
72.5600,0.322
72.6000,0.301
72.6400,0.298
72.6800,0.300
72.7200,0.319
72.7600,0.298
72.8000,0.290
72.8400,0.318
72.8800,0.324
72.9200,0.329
72.9600,0.315
73.0000,0.348
73.0400,0.324
73.0800,0.351
73.1200,0.302
73.1600,0.359
73.2000,0.295
73.2400,0.295
73.2800,0.316
73.3200,0.317
73.3600,0.326
73.4000,0.356
73.4400,0.313
73.4800,0.322
73.5200,0.310
73.5600,0.322
73.6000,0.304
73.6400,0.316
73.6800,0.331
73.7200,0.307
73.7600,0.321
73.8000,0.286
73.8400,0.275
73.8800,0.348
73.9200,0.337
73.9600,0.300
74.0000,0.340
74.0400,0.313
74.0800,0.284
74.1200,0.297
74.1600,0.313
74.2000,0.324
74.2400,0.316
74.2800,0.315
74.3200,0.303
74.3600,0.322
74.4000,0.300
74.4400,0.291
74.4800,0.318
74.5200,0.347
74.5600,0.326
74.6000,0.306
74.6400,0.300
74.6800,0.303
74.7200,0.340
74.7600,0.317
74.8000,0.331
74.8400,0.314
74.8800,0.296
74.9200,0.273
74.9600,0.305
75.0000,0.332
75.0400,0.271
75.0800,0.335
75.1200,0.309
75.1600,0.287
75.2000,0.278
75.2400,0.335
75.2800,0.305
75.3200,0.321
75.3600,0.313
75.4000,0.318
75.4400,0.304
75.4800,0.301
75.5200,0.317
75.5600,0.297
75.6000,0.324
75.6400,0.310
75.6800,0.292
75.7200,0.277
75.7600,0.287
75.8000,0.272
75.8400,0.320
75.8800,0.286
75.9200,0.335
75.9600,0.267
76.0000,0.291
76.0400,0.311
76.0800,0.307
76.1200,0.281
76.1600,0.322
76.2000,0.265
76.2400,0.298
76.2800,0.242
76.3200,0.289
76.3600,0.318
76.4000,0.319
76.4400,0.245
76.4800,0.338
76.5200,0.330
76.5600,0.302
76.6000,0.348
76.6400,0.284
76.6800,0.269
76.7200,0.322
76.7600,0.344
76.8000,0.280
76.8400,0.302
76.8800,0.277
76.9200,0.295
76.9600,0.332
77.0000,0.321
77.0400,0.355
77.0800,0.336
77.1200,0.296
77.1600,0.293
77.2000,0.314
77.2400,0.309
77.2800,0.319
77.3200,0.298
77.3600,0.319
77.4000,0.326
77.4400,0.297
77.4800,0.312
77.5200,0.330
77.5600,0.335
77.6000,0.308
77.6400,0.330
77.6800,0.309
77.7200,0.332
77.7600,0.337
77.8000,0.327
77.8400,0.337
77.8800,0.365
77.9200,0.310
77.9600,0.328
78.0000,0.335
78.0400,0.304
78.0800,0.316
78.1200,0.345
78.1600,0.332
78.2000,0.361
78.2400,0.371
78.2800,0.342
78.3200,0.372
78.3600,0.389
78.4000,0.344
78.4400,0.364
78.4800,0.407
78.5200,0.384
78.5600,0.374
78.6000,0.388
78.6400,0.384
78.6800,0.395
78.7200,0.420
78.7600,0.391
78.8000,0.462
78.8400,0.438
78.8800,0.358
78.9200,0.387
78.9600,0.454
79.0000,0.420
79.0400,0.451
79.0800,0.387
79.1200,0.378
79.1600,0.422
79.2000,0.446
79.2400,0.438
79.2800,0.428
79.3200,0.384
79.3600,0.418
79.4000,0.464
79.4400,0.461
79.4800,0.367
79.5200,0.423
79.5600,0.372
79.6000,0.431
79.6400,0.375
79.6800,0.381
79.7200,0.389
79.7600,0.411
79.8000,0.355
79.8400,0.387
79.8800,0.371
79.9200,0.367
79.9600,0.331
80.0000,0.383
