theta,intensity
5.0000,8.617
5.0400,8.619
5.0800,8.484
5.1200,8.353
5.1600,8.219
5.2000,8.069
5.2400,7.860
5.2800,7.988
5.3200,7.586
5.3600,7.463
5.4000,7.609
5.4400,7.352
5.4800,7.264
5.5200,7.160
5.5600,7.056
5.6000,6.944
5.6400,6.635
5.6800,6.447
5.7200,6.411
5.7600,6.268
5.8000,6.123
5.8400,6.244
5.8800,5.900
5.9200,5.729
5.9600,5.749
6.0000,5.703
6.0400,5.649
6.0800,5.533
6.1200,5.349
6.1600,5.255
6.2000,5.122
6.2400,5.132
6.2800,5.004
6.3200,4.989
6.3600,4.853
6.4000,5.009
6.4400,4.718
6.4800,4.643
6.5200,4.640
6.5600,4.572
6.6000,4.606
6.6400,4.394
6.6800,4.344
6.7200,4.541
6.7600,4.378
6.8000,4.314
6.8400,4.251
6.8800,4.396
6.9200,4.242
6.9600,4.293
7.0000,4.212
7.0400,4.373
7.0800,4.231
7.1200,4.033
7.1600,4.230
7.2000,4.255
7.2400,4.070
7.2800,4.139
7.3200,4.210
7.3600,4.080
7.4000,4.221
7.4400,3.972
7.4800,4.212
7.5200,4.071
7.5600,4.075
7.6000,4.153
7.6400,4.091
7.6800,4.098
7.7200,4.056
7.7600,4.154
7.8000,4.069
7.8400,3.940
7.8800,4.097
7.9200,4.177
7.9600,4.218
8.0000,3.938
8.0400,3.952
8.0800,3.904
8.1200,4.061
8.1600,3.983
8.2000,3.814
8.2400,4.032
8.2800,3.893
8.3200,3.914
8.3600,3.903
8.4000,3.922
8.4400,4.005
8.4800,3.827
8.5200,3.969
8.5600,3.864
8.6000,3.818
8.6400,3.940
8.6800,3.815
8.7200,3.909
8.7600,3.966
8.8000,3.788
8.8400,3.851
8.8800,3.856
8.9200,3.871
8.9600,3.790
9.0000,3.799
9.0400,3.838
9.0800,4.008
9.1200,3.784
9.1600,3.904
9.2000,3.620
9.2400,3.660
9.2800,3.821
9.3200,3.810
9.3600,3.675
9.4000,3.615
9.4400,3.741
9.4800,3.743
9.5200,3.838
9.5600,3.850
9.6000,3.764
9.6400,3.779
9.6800,3.741
9.7200,3.836
9.7600,3.740
9.8000,3.557
9.8400,3.922
9.8800,3.811
9.9200,3.829
9.9600,3.836
10.0000,3.751
10.0400,3.580
10.0800,3.681
10.1200,3.715
10.1600,3.800
10.2000,3.635
10.2400,3.680
10.2800,3.585
10.3200,3.517
10.3600,3.464
10.4000,3.637
10.4400,3.631
10.4800,3.770
10.5200,3.658
10.5600,3.452
10.6000,3.604
10.6400,3.623
10.6800,3.597
10.7200,3.585
10.7600,3.719
10.8000,3.673
10.8400,3.716
10.8800,3.572
10.9200,3.537
10.9600,3.651
11.0000,3.650
11.0400,3.563
11.0800,3.537
11.1200,3.530
11.1600,3.574
11.2000,3.493
11.2400,3.470
11.2800,3.525
11.3200,3.668
11.3600,3.517
11.4000,3.576
11.4400,3.729
11.4800,3.551
11.5200,3.561
11.5600,3.531
11.6000,3.505
11.6400,3.677
11.6800,3.611
11.7200,3.705
11.7600,3.469
11.8000,3.520
11.8400,3.602
11.8800,3.590
11.9200,3.650
11.9600,3.503
12.0000,3.532
12.0400,3.607
12.0800,3.422
12.1200,3.411
12.1600,3.339
12.2000,3.523
12.2400,3.303
12.2800,3.541
12.3200,3.527
12.3600,3.489
12.4000,3.521
12.4400,3.467
12.4800,3.415
12.5200,3.347
12.5600,3.447
12.6000,3.432
12.6400,3.486
12.6800,3.402
12.7200,3.392
12.7600,3.424
12.8000,3.353
12.8400,3.447
12.8800,3.501
12.9200,3.517
12.9600,3.405
13.0000,3.460
13.0400,3.365
13.0800,3.417
13.1200,3.488
13.1600,3.429
13.2000,3.445
13.2400,3.486
13.2800,3.372
13.3200,3.444
13.3600,3.384
13.4000,3.380
13.4400,3.308
13.4800,3.383
13.5200,3.481
13.5600,3.514
13.6000,3.385
13.6400,3.365
13.6800,3.415
13.7200,3.396
13.7600,3.239
13.8000,3.220
13.8400,3.279
13.8800,3.398
13.9200,3.304
13.9600,3.250
14.0000,3.190
14.0400,3.198
14.0800,3.273
14.1200,3.364
14.1600,3.269
14.2000,3.362
14.2400,3.345
14.2800,3.234
14.3200,3.322
14.3600,3.329
14.4000,3.309
14.4400,3.388
14.4800,3.271
14.5200,3.257
14.5600,3.254
14.6000,3.272
14.6400,3.263
14.6800,3.324
14.7200,3.101
14.7600,3.413
14.8000,3.453
14.8400,3.245
14.8800,3.258
14.9200,3.285
14.9600,3.279
15.0000,3.176
15.0400,3.202
15.0800,3.205
15.1200,3.313
15.1600,3.248
15.2000,3.245
15.2400,3.227
15.2800,3.037
15.3200,3.169
15.3600,3.159
15.4000,3.126
15.4400,3.168
15.4800,3.121
15.5200,3.176
15.5600,3.109
15.6000,3.234
15.6400,3.210
15.6800,3.174
15.7200,3.135
15.7600,3.303
15.8000,3.112
15.8400,3.131
15.8800,3.039
15.9200,3.125
15.9600,3.244
16.0000,3.017
16.0400,3.147
16.0800,3.027
16.1200,3.056
16.1600,3.007
16.2000,3.125
16.2400,3.178
16.2800,3.136
16.3200,3.166
16.3600,3.054
16.4000,2.947
16.4400,2.953
16.4800,3.055
16.5200,3.067
16.5600,2.860
16.6000,3.083
16.6400,3.146
16.6800,3.022
16.7200,3.254
16.7600,3.132
16.8000,3.041
16.8400,3.069
16.8800,3.035
16.9200,3.020
16.9600,2.885
17.0000,3.041
17.0400,2.906
17.0800,3.132
17.1200,3.039
17.1600,2.976
17.2000,3.073
17.2400,3.070
17.2800,2.937
17.3200,3.072
17.3600,3.088
17.4000,2.974
17.4400,2.860
17.4800,2.827
17.5200,2.971
17.5600,3.034
17.6000,2.964
17.6400,2.935
17.6800,2.999
17.7200,3.082
17.7600,3.019
17.8000,3.102
17.8400,3.042
17.8800,3.030
17.9200,2.976
17.9600,3.064
18.0000,2.876
18.0400,2.873
18.0800,2.913
18.1200,2.889
18.1600,2.880
18.2000,2.985
18.2400,2.957
18.2800,2.973
18.3200,2.878
18.3600,3.022
18.4000,2.911
18.4400,2.956
18.4800,2.802
18.5200,3.014
18.5600,2.979
18.6000,2.872
18.6400,2.865
18.6800,2.781
18.7200,2.821
18.7600,2.868
18.8000,2.902
18.8400,2.792
18.8800,2.899
18.9200,2.908
18.9600,2.877
19.0000,2.790
19.0400,2.746
19.0800,2.841
19.1200,2.831
19.1600,2.876
19.2000,2.924
19.2400,2.694
19.2800,2.871
19.3200,2.898
19.3600,2.886
19.4000,2.886
19.4400,2.842
19.4800,2.807
19.5200,2.858
19.5600,2.841
19.6000,2.726
19.6400,2.900
19.6800,2.839
19.7200,2.735
19.7600,2.801
19.8000,2.750
19.8400,2.765
19.8800,2.889
19.9200,2.709
19.9600,2.780
20.0000,2.816
20.0400,2.757
20.0800,2.896
20.1200,2.683
20.1600,2.780
20.2000,2.736
20.2400,2.657
20.2800,2.696
20.3200,2.699
20.3600,2.637
20.4000,2.809
20.4400,2.674
20.4800,2.779
20.5200,2.670
20.5600,2.789
20.6000,2.629
20.6400,2.821
20.6800,2.639
20.7200,2.622
20.7600,2.699
20.8000,2.628
20.8400,2.614
20.8800,2.677
20.9200,2.627
20.9600,2.660
21.0000,2.597
21.0400,2.605
21.0800,2.672
21.1200,2.710
21.1600,2.682
21.2000,2.734
21.2400,2.651
21.2800,2.591
21.3200,2.554
21.3600,2.695
21.4000,2.593
21.4400,2.650
21.4800,2.595
21.5200,2.563
21.5600,2.712
21.6000,2.529
21.6400,2.594
21.6800,2.670
21.7200,2.696
21.7600,2.747
21.8000,2.593
21.8400,2.579
21.8800,2.565
21.9200,2.585
21.9600,2.536
22.0000,2.683
22.0400,2.636
22.0800,2.484
22.1200,2.646
22.1600,2.586
22.2000,2.602
22.2400,2.572
22.2800,2.568
22.3200,2.417
22.3600,2.576
22.4000,2.585
22.4400,2.627
22.4800,2.667
22.5200,2.477
22.5600,2.562
22.6000,2.663
22.6400,2.559
22.6800,2.494
22.7200,2.481
22.7600,2.519
22.8000,2.493
22.8400,2.445
22.8800,2.604
22.9200,2.525
22.9600,2.590
23.0000,2.526
23.0400,2.533
23.0800,2.368
23.1200,2.503
23.1600,2.483
23.2000,2.487
23.2400,2.458
23.2800,2.518
23.3200,2.583
23.3600,2.488
23.4000,2.509
23.4400,2.593
23.4800,2.514
23.5200,2.598
23.5600,2.558
23.6000,2.438
23.6400,2.490
23.6800,2.469
23.7200,2.605
23.7600,2.575
23.8000,2.522
23.8400,2.712
23.8800,2.505
23.9200,2.687
23.9600,2.716
24.0000,2.711
24.0400,2.784
24.0800,2.956
24.1200,3.049
24.1600,3.079
24.2000,3.056
24.2400,3.081
24.2800,2.900
24.3200,3.036
24.3600,3.039
24.4000,3.027
24.4400,2.928
24.4800,2.980
24.5200,2.881
24.5600,2.966
24.6000,2.887
24.6400,2.838
24.6800,2.866
24.7200,2.822
24.7600,2.730
24.8000,2.736
24.8400,2.688
24.8800,2.729
24.9200,2.765
24.9600,2.739
25.0000,2.649
25.0400,2.762
25.0800,2.734
25.1200,2.736
25.1600,2.680
25.2000,2.763
25.2400,2.679
25.2800,2.692
25.3200,2.649
25.3600,2.716
25.4000,2.675
25.4400,2.548
25.4800,2.568
25.5200,2.458
25.5600,2.457
25.6000,2.524
25.6400,2.454
25.6800,2.374
25.7200,2.390
25.7600,2.368
25.8000,2.306
25.8400,2.349
25.8800,2.341
25.9200,2.423
25.9600,2.368
26.0000,2.416
26.0400,2.279
26.0800,2.419
26.1200,2.414
26.1600,2.339
26.2000,2.264
26.2400,2.284
26.2800,2.322
26.3200,2.228
26.3600,2.237
26.4000,2.302
26.4400,2.224
26.4800,2.269
26.5200,2.130
26.5600,2.243
26.6000,2.326
26.6400,2.250
26.6800,2.105
26.7200,2.246
26.7600,2.275
26.8000,2.315
26.8400,2.281
26.8800,2.229
26.9200,2.191
26.9600,2.236
27.0000,2.280
27.0400,2.307
27.0800,2.189
27.1200,2.194
27.1600,2.211
27.2000,2.300
27.2400,2.326
27.2800,2.223
27.3200,2.156
27.3600,2.279
27.4000,2.369
27.4400,2.243
27.4800,2.195
27.5200,2.152
27.5600,2.269
27.6000,2.284
27.6400,2.352
27.6800,2.338
27.7200,2.321
27.7600,2.279
27.8000,2.252
27.8400,2.352
27.8800,2.391
27.9200,2.432
27.9600,2.351
28.0000,2.322
28.0400,2.269
28.0800,2.317
28.1200,2.200
28.1600,2.387
28.2000,2.287
28.2400,2.352
28.2800,2.324
28.3200,2.445
28.3600,2.310
28.4000,2.498
28.4400,2.339
28.4800,2.339
28.5200,2.213
28.5600,2.323
28.6000,2.152
28.6400,2.367
28.6800,2.202
28.7200,2.314
28.7600,2.196
28.8000,2.307
28.8400,2.257
28.8800,2.391
28.9200,2.202
28.9600,2.290
29.0000,2.058
29.0400,2.210
29.0800,2.298
29.1200,2.228
29.1600,2.204
29.2000,2.173
29.2400,2.236
29.2800,2.173
29.3200,2.143
29.3600,2.101
29.4000,2.145
29.4400,2.182
29.4800,2.282
29.5200,2.260
29.5600,2.272
29.6000,2.328
29.6400,2.537
29.6800,2.558
29.7200,2.650
29.7600,2.801
29.8000,2.784
29.8400,2.814
29.8800,2.746
29.9200,2.635
29.9600,2.406
30.0000,2.262
30.0400,2.231
30.0800,2.165
30.1200,2.039
30.1600,2.052
30.2000,2.212
30.2400,1.975
30.2800,1.999
30.3200,1.950
30.3600,1.992
30.4000,1.977
30.4400,1.909
30.4800,2.051
30.5200,1.974
30.5600,2.057
30.6000,1.900
30.6400,1.897
30.6800,1.905
30.7200,1.891
30.7600,1.918
30.8000,1.925
30.8400,1.897
30.8800,1.984
30.9200,2.042
30.9600,1.887
31.0000,1.857
31.0400,1.977
31.0800,1.845
31.1200,1.925
31.1600,1.868
31.2000,1.805
31.2400,1.986
31.2800,1.897
31.3200,1.920
31.3600,1.968
31.4000,1.848
31.4400,1.908
31.4800,1.951
31.5200,2.023
31.5600,1.948
31.6000,2.021
31.6400,2.005
31.6800,2.185
31.7200,2.320
31.7600,2.450
31.8000,2.458
31.8400,2.592
31.8800,2.795
31.9200,3.075
31.9600,3.179
32.0000,3.203
32.0400,3.199
32.0800,3.078
32.1200,2.911
32.1600,2.775
32.2000,2.607
32.2400,2.490
32.2800,2.349
32.3200,2.239
32.3600,2.180
32.4000,2.101
32.4400,1.982
32.4800,1.823
32.5200,1.996
32.5600,1.908
32.6000,1.798
32.6400,1.663
32.6800,1.858
32.7200,1.864
32.7600,1.721
32.8000,1.786
32.8400,1.821
32.8800,1.806
32.9200,1.776
32.9600,1.665
33.0000,1.654
33.0400,1.849
33.0800,1.690
33.1200,1.726
33.1600,1.746
33.2000,1.704
33.2400,1.646
33.2800,1.779
33.3200,1.690
33.3600,1.675
33.4000,1.676
33.4400,1.633
33.4800,1.693
33.5200,1.652
33.5600,1.649
33.6000,1.719
33.6400,1.601
33.6800,1.810
33.7200,1.802
33.7600,1.594
33.8000,1.698
33.8400,1.584
33.8800,1.557
33.9200,1.536
33.9600,1.549
34.0000,1.589
34.0400,1.590
34.0800,1.634
34.1200,1.657
34.1600,1.591
34.2000,1.622
34.2400,1.600
34.2800,1.532
34.3200,1.587
34.3600,1.551
34.4000,1.574
34.4400,1.612
34.4800,1.543
34.5200,1.530
34.5600,1.551
34.6000,1.563
34.6400,1.597
34.6800,1.591
34.7200,1.607
34.7600,1.573
34.8000,1.590
34.8400,1.559
34.8800,1.477
34.9200,1.501
34.9600,1.478
35.0000,1.517
35.0400,1.570
35.0800,1.581
35.1200,1.550
35.1600,1.496
35.2000,1.662
35.2400,1.516
35.2800,1.539
35.3200,1.486
35.3600,1.644
35.4000,1.538
35.4400,1.461
35.4800,1.489
35.5200,1.556
35.5600,1.550
35.6000,1.494
35.6400,1.469
35.6800,1.452
35.7200,1.482
35.7600,1.449
35.8000,1.495
35.8400,1.466
35.8800,1.480
35.9200,1.513
35.9600,1.482
36.0000,1.475
36.0400,1.484
36.0800,1.555
36.1200,1.538
36.1600,1.506
36.2000,1.449
36.2400,1.446
36.2800,1.450
36.3200,1.504
36.3600,1.476
36.4000,1.386
36.4400,1.369
36.4800,1.363
36.5200,1.394
36.5600,1.452
36.6000,1.414
36.6400,1.412
36.6800,1.484
36.7200,1.356
36.7600,1.425
36.8000,1.416
36.8400,1.436
36.8800,1.345
36.9200,1.417
36.9600,1.478
37.0000,1.369
37.0400,1.440
37.0800,1.309
37.1200,1.490
37.1600,1.368
37.2000,1.382
37.2400,1.395
37.2800,1.397
37.3200,1.327
37.3600,1.373
37.4000,1.417
37.4400,1.269
37.4800,1.362
37.5200,1.337
37.5600,1.345
37.6000,1.399
37.6400,1.351
37.6800,1.311
37.7200,1.406
37.7600,1.425
37.8000,1.388
37.8400,1.426
37.8800,1.387
37.9200,1.412
37.9600,1.383
38.0000,1.404
38.0400,1.329
38.0800,1.424
38.1200,1.422
38.1600,1.424
38.2000,1.373
38.2400,1.346
38.2800,1.399
38.3200,1.385
38.3600,1.361
38.4000,1.363
38.4400,1.352
38.4800,1.424
38.5200,1.448
38.5600,1.274
38.6000,1.374
38.6400,1.322
38.6800,1.406
38.7200,1.352
38.7600,1.279
38.8000,1.276
38.8400,1.264
38.8800,1.283
38.9200,1.293
38.9600,1.346
39.0000,1.278
39.0400,1.361
39.0800,1.318
39.1200,1.411
39.1600,1.344
39.2000,1.428
39.2400,1.416
39.2800,1.409
39.3200,1.489
39.3600,1.399
39.4000,1.339
39.4400,1.375
39.4800,1.355
39.5200,1.338
39.5600,1.477
39.6000,1.428
39.6400,1.390
39.6800,1.458
39.7200,1.407
39.7600,1.413
39.8000,1.394
39.8400,1.515
39.8800,1.417
39.9200,1.447
39.9600,1.499
40.0000,1.516
40.0400,1.575
40.0800,1.512
40.1200,1.675
40.1600,1.634
40.2000,1.719
40.2400,1.793
40.2800,1.877
40.3200,2.016
40.3600,2.221
40.4000,2.523
40.4400,2.723
40.4800,3.193
40.5200,3.521
40.5600,4.193
40.6000,4.643
40.6400,5.025
40.6800,5.216
40.7200,5.386
40.7600,5.670
40.8000,5.697
40.8400,6.007
40.8800,5.892
40.9200,5.708
40.9600,5.610
41.0000,5.627
41.0400,5.611
41.0800,5.511
41.1200,5.285
41.1600,5.232
41.2000,5.208
41.2400,4.772
41.2800,4.330
41.3200,4.151
41.3600,3.853
41.4000,3.288
41.4400,2.802
41.4800,2.547
41.5200,2.429
41.5600,2.119
41.6000,1.971
41.6400,1.951
41.6800,1.815
41.7200,1.801
41.7600,1.707
41.8000,1.636
41.8400,1.636
41.8800,1.577
41.9200,1.507
41.9600,1.673
42.0000,1.505
42.0400,1.540
42.0800,1.601
42.1200,1.635
42.1600,1.550
42.2000,1.733
42.2400,1.742
42.2800,1.820
42.3200,1.923
42.3600,2.109
42.4000,2.330
42.4400,2.673
42.4800,3.094
42.5200,3.502
42.5600,3.935
42.6000,4.570
42.6400,4.952
42.6800,4.985
42.7200,4.634
42.7600,4.502
42.8000,4.012
42.8400,3.721
42.8800,3.177
42.9200,2.762
42.9600,2.488
43.0000,2.050
43.0400,1.902
43.0800,1.636
43.1200,1.498
43.1600,1.422
43.2000,1.296
43.2400,1.324
43.2800,1.229
43.3200,1.300
43.3600,1.215
43.4000,1.146
43.4400,1.151
43.4800,1.162
43.5200,1.147
43.5600,1.122
43.6000,1.112
43.6400,1.213
43.6800,1.137
43.7200,1.111
43.7600,1.155
43.8000,1.105
43.8400,1.121
43.8800,1.046
43.9200,1.121
43.9600,1.064
44.0000,1.014
44.0400,1.176
44.0800,1.179
44.1200,1.049
44.1600,1.108
44.2000,1.028
44.2400,1.028
44.2800,1.169
44.3200,1.115
44.3600,1.101
44.4000,1.148
44.4400,0.999
44.4800,1.141
44.5200,1.001
44.5600,1.035
44.6000,1.096
44.6400,1.117
44.6800,1.040
44.7200,1.042
44.7600,1.080
44.8000,1.202
44.8400,1.088
44.8800,1.011
44.9200,1.143
44.9600,1.227
45.0000,1.064
45.0400,1.070
45.0800,1.080
45.1200,1.183
45.1600,1.156
45.2000,1.068
45.2400,1.224
45.2800,1.246
45.3200,1.164
45.3600,1.227
45.4000,1.363
45.4400,1.374
45.4800,1.475
45.5200,1.585
45.5600,1.588
45.6000,1.735
45.6400,1.828
45.6800,2.075
45.7200,2.148
45.7600,2.168
45.8000,2.364
45.8400,2.547
45.8800,2.480
45.9200,2.599
45.9600,2.527
46.0000,2.656
46.0400,2.539
46.0800,2.459
46.1200,2.295
46.1600,2.119
46.2000,2.021
46.2400,1.888
46.2800,1.740
46.3200,1.512
46.3600,1.612
46.4000,1.513
46.4400,1.311
46.4800,1.430
46.5200,1.246
46.5600,1.201
46.6000,1.219
46.6400,1.084
46.6800,1.147
46.7200,1.128
46.7600,1.104
46.8000,1.005
46.8400,1.068
46.8800,1.041
46.9200,1.024
46.9600,0.956
47.0000,0.979
47.0400,0.991
47.0800,1.000
47.1200,0.955
47.1600,1.016
47.2000,0.923
47.2400,0.929
47.2800,0.922
47.3200,0.945
47.3600,1.008
47.4000,0.946
47.4400,0.943
47.4800,0.962
47.5200,1.036
47.5600,0.907
47.6000,0.949
47.6400,0.900
47.6800,0.954
47.7200,0.915
47.7600,0.880
47.8000,0.953
47.8400,0.954
47.8800,0.888
47.9200,0.911
47.9600,0.927
48.0000,0.891
48.0400,0.898
48.0800,0.923
48.1200,0.930
48.1600,0.920
48.2000,0.893
48.2400,0.909
48.2800,0.902
48.3200,0.849
48.3600,0.942
48.4000,0.951
48.4400,0.916
48.4800,0.867
48.5200,0.930
48.5600,0.915
48.6000,0.965
48.6400,0.864
48.6800,0.872
48.7200,0.949
48.7600,0.909
48.8000,0.923
48.8400,0.964
48.8800,0.872
48.9200,0.866
48.9600,0.882
49.0000,0.912
49.0400,0.903
49.0800,0.963
49.1200,0.994
49.1600,0.918
49.2000,0.919
49.2400,0.895
49.2800,1.030
49.3200,0.935
49.3600,0.931
49.4000,0.945
49.4400,0.971
49.4800,0.976
49.5200,0.972
49.5600,1.044
49.6000,0.973
49.6400,0.949
49.6800,0.990
49.7200,1.017
49.7600,0.943
49.8000,0.965
49.8400,0.931
49.8800,0.944
49.9200,0.948
49.9600,0.894
50.0000,0.957
50.0400,0.942
50.0800,0.975
50.1200,1.013
50.1600,1.016
50.2000,0.955
50.2400,0.933
50.2800,0.946
50.3200,0.967
50.3600,0.941
50.4000,0.930
50.4400,0.848
50.4800,0.985
50.5200,0.865
50.5600,0.873
50.6000,0.899
50.6400,0.905
50.6800,0.964
50.7200,0.881
50.7600,0.894
50.8000,0.912
50.8400,0.918
50.8800,0.880
50.9200,0.866
50.9600,0.887
51.0000,0.767
51.0400,0.864
51.0800,0.825
51.1200,0.869
51.1600,0.808
51.2000,0.909
51.2400,0.929
51.2800,0.844
51.3200,0.855
51.3600,0.805
51.4000,0.825
51.4400,0.874
51.4800,0.890
51.5200,0.823
51.5600,0.770
51.6000,0.864
51.6400,0.873
51.6800,0.816
51.7200,0.810
51.7600,0.931
51.8000,0.897
51.8400,0.851
51.8800,0.790
51.9200,0.885
51.9600,0.868
52.0000,0.905
52.0400,0.892
52.0800,0.878
52.1200,0.880
52.1600,0.940
52.2000,0.830
52.2400,0.907
52.2800,0.755
52.3200,0.931
52.3600,0.863
52.4000,0.895
52.4400,0.906
52.4800,0.900
52.5200,0.946
52.5600,0.994
52.6000,1.080
52.6400,1.071
52.6800,1.116
52.7200,1.114
52.7600,1.195
52.8000,1.239
52.8400,1.387
52.8800,1.246
52.9200,1.255
52.9600,1.224
53.0000,1.248
53.0400,1.363
53.0800,1.130
53.1200,1.106
53.1600,1.037
53.2000,1.011
53.2400,0.914
53.2800,0.925
53.3200,0.904
53.3600,0.818
53.4000,0.863
53.4400,0.813
53.4800,0.804
53.5200,0.813
53.5600,0.749
53.6000,0.810
53.6400,0.775
53.6800,0.764
53.7200,0.751
53.7600,0.687
53.8000,0.699
53.8400,0.672
53.8800,0.732
53.9200,0.710
53.9600,0.708
54.0000,0.746
54.0400,0.686
54.0800,0.728
54.1200,0.634
54.1600,0.667
54.2000,0.679
54.2400,0.727
54.2800,0.744
54.3200,0.697
54.3600,0.696
54.4000,0.784
54.4400,0.682
54.4800,0.719
54.5200,0.663
54.5600,0.663
54.6000,0.651
54.6400,0.664
54.6800,0.756
54.7200,0.619
54.7600,0.668
54.8000,0.680
54.8400,0.693
54.8800,0.656
54.9200,0.747
54.9600,0.639
55.0000,0.655
55.0400,0.682
55.0800,0.685
55.1200,0.697
55.1600,0.681
55.2000,0.627
55.2400,0.623
55.2800,0.693
55.3200,0.734
55.3600,0.613
55.4000,0.719
55.4400,0.677
55.4800,0.663
55.5200,0.602
55.5600,0.550
55.6000,0.727
55.6400,0.653
55.6800,0.678
55.7200,0.675
55.7600,0.652
55.8000,0.680
55.8400,0.637
55.8800,0.603
55.9200,0.612
55.9600,0.667
56.0000,0.663
56.0400,0.612
56.0800,0.699
56.1200,0.622
56.1600,0.608
56.2000,0.672
56.2400,0.673
56.2800,0.608
56.3200,0.607
56.3600,0.642
56.4000,0.629
56.4400,0.695
56.4800,0.668
56.5200,0.638
56.5600,0.607
56.6000,0.639
56.6400,0.652
56.6800,0.637
56.7200,0.613
56.7600,0.601
56.8000,0.637
56.8400,0.594
56.8800,0.605
56.9200,0.587
56.9600,0.671
57.0000,0.572
57.0400,0.594
57.0800,0.591
57.1200,0.574
57.1600,0.618
57.2000,0.605
57.2400,0.608
57.2800,0.578
57.3200,0.600
57.3600,0.659
57.4000,0.617
57.4400,0.630
57.4800,0.554
57.5200,0.572
57.5600,0.579
57.6000,0.604
57.6400,0.640
57.6800,0.657
57.7200,0.587
57.7600,0.614
57.8000,0.654
57.8400,0.612
57.8800,0.593
57.9200,0.535
57.9600,0.605
58.0000,0.565
58.0400,0.623
58.0800,0.569
58.1200,0.622
58.1600,0.601
58.2000,0.622
58.2400,0.575
58.2800,0.628
58.3200,0.661
58.3600,0.631
58.4000,0.623
58.4400,0.583
58.4800,0.568
58.5200,0.594
58.5600,0.597
58.6000,0.562
58.6400,0.641
58.6800,0.615
58.7200,0.607
58.7600,0.606
58.8000,0.513
58.8400,0.569
58.8800,0.568
58.9200,0.611
58.9600,0.640
59.0000,0.639
59.0400,0.608
59.0800,0.652
59.1200,0.569
59.1600,0.638
59.2000,0.539
59.2400,0.553
59.2800,0.554
59.3200,0.598
59.3600,0.605
59.4000,0.553
59.4400,0.602
59.4800,0.571
59.5200,0.607
59.5600,0.573
59.6000,0.585
59.6400,0.586
59.6800,0.562
59.7200,0.539
59.7600,0.546
59.8000,0.557
59.8400,0.572
59.8800,0.606
59.9200,0.605
59.9600,0.573
60.0000,0.609
60.0400,0.594
60.0800,0.576
60.1200,0.626
60.1600,0.615
60.2000,0.584
60.2400,0.618
60.2800,0.610
60.3200,0.605
60.3600,0.567
60.4000,0.597
60.4400,0.622
60.4800,0.615
60.5200,0.622
60.5600,0.614
60.6000,0.628
60.6400,0.641
60.6800,0.653
60.7200,0.584
60.7600,0.595
60.8000,0.627
60.8400,0.655
60.8800,0.629
60.9200,0.605
60.9600,0.648
61.0000,0.603
61.0400,0.614
61.0800,0.591
61.1200,0.662
61.1600,0.679
61.2000,0.601
61.2400,0.633
61.2800,0.638
61.3200,0.641
61.3600,0.621
61.4000,0.542
61.4400,0.614
61.4800,0.617
61.5200,0.615
61.5600,0.693
61.6000,0.671
61.6400,0.690
61.6800,0.716
61.7200,0.644
61.7600,0.713
61.8000,0.741
61.8400,0.724
61.8800,0.787
61.9200,0.805
61.9600,0.849
62.0000,0.791
62.0400,0.778
62.0800,0.771
62.1200,0.708
62.1600,0.662
62.2000,0.703
62.2400,0.780
62.2800,0.673
62.3200,0.652
62.3600,0.644
62.4000,0.622
62.4400,0.643
62.4800,0.581
62.5200,0.590
62.5600,0.587
62.6000,0.599
62.6400,0.552
62.6800,0.543
62.7200,0.540
62.7600,0.545
62.8000,0.536
62.8400,0.537
62.8800,0.507
62.9200,0.503
62.9600,0.503
63.0000,0.496
63.0400,0.558
63.0800,0.497
63.1200,0.507
63.1600,0.489
63.2000,0.493
63.2400,0.466
63.2800,0.509
63.3200,0.484
63.3600,0.482
63.4000,0.483
63.4400,0.478
63.4800,0.467
63.5200,0.515
63.5600,0.471
63.6000,0.433
63.6400,0.449
63.6800,0.465
63.7200,0.460
63.7600,0.516
63.8000,0.407
63.8400,0.493
63.8800,0.450
63.9200,0.448
63.9600,0.454
64.0000,0.492
64.0400,0.460
64.0800,0.497
64.1200,0.501
64.1600,0.457
64.2000,0.468
64.2400,0.463
64.2800,0.479
64.3200,0.510
64.3600,0.401
64.4000,0.465
64.4400,0.403
64.4800,0.439
64.5200,0.514
64.5600,0.438
64.6000,0.430
64.6400,0.509
64.6800,0.433
64.7200,0.443
64.7600,0.471
64.8000,0.432
64.8400,0.454
64.8800,0.400
64.9200,0.494
64.9600,0.483
65.0000,0.437
65.0400,0.390
65.0800,0.450
65.1200,0.449
65.1600,0.474
65.2000,0.412
65.2400,0.457
65.2800,0.459
65.3200,0.444
65.3600,0.441
65.4000,0.439
65.4400,0.459
65.4800,0.422
65.5200,0.525
65.5600,0.502
65.6000,0.434
65.6400,0.423
65.6800,0.440
65.7200,0.438
65.7600,0.425
65.8000,0.441
65.8400,0.449
65.8800,0.403
65.9200,0.474
65.9600,0.461
66.0000,0.435
66.0400,0.438
66.0800,0.456
66.1200,0.468
66.1600,0.418
66.2000,0.424
66.2400,0.472
66.2800,0.467
66.3200,0.495
66.3600,0.434
66.4000,0.508
66.4400,0.511
66.4800,0.569
66.5200,0.545
66.5600,0.522
66.6000,0.583
66.6400,0.538
66.6800,0.528
66.7200,0.582
66.7600,0.623
66.8000,0.604
66.8400,0.714
66.8800,0.566
66.9200,0.592
66.9600,0.641
67.0000,0.641
67.0400,0.639
67.0800,0.637
67.1200,0.641
67.1600,0.663
67.2000,0.596
67.2400,0.560
67.2800,0.634
67.3200,0.642
67.3600,0.671
67.4000,0.561
67.4400,0.552
67.4800,0.539
67.5200,0.551
67.5600,0.573
67.6000,0.572
67.6400,0.551
67.6800,0.520
67.7200,0.541
67.7600,0.463
67.8000,0.504
67.8400,0.514
67.8800,0.483
67.9200,0.472
67.9600,0.481
68.0000,0.405
68.0400,0.452
68.0800,0.393
68.1200,0.465
68.1600,0.432
68.2000,0.445
68.2400,0.447
68.2800,0.443
68.3200,0.424
68.3600,0.444
68.4000,0.470
68.4400,0.399
68.4800,0.413
68.5200,0.463
68.5600,0.440
68.6000,0.447
68.6400,0.453
68.6800,0.390
68.7200,0.409
68.7600,0.409
68.8000,0.419
68.8400,0.392
68.8800,0.419
68.9200,0.479
68.9600,0.339
69.0000,0.411
69.0400,0.428
69.0800,0.429
69.1200,0.396
69.1600,0.451
69.2000,0.406
69.2400,0.451
69.2800,0.456
69.3200,0.430
69.3600,0.426
69.4000,0.387
69.4400,0.454
69.4800,0.438
69.5200,0.468
69.5600,0.435
69.6000,0.467
69.6400,0.395
69.6800,0.428
69.7200,0.430
69.7600,0.457
69.8000,0.506
69.8400,0.533
69.8800,0.567
69.9200,0.601
69.9600,0.592
70.0000,0.548
70.0400,0.700
70.0800,0.601
70.1200,0.620
70.1600,0.602
70.2000,0.625
70.2400,0.690
70.2800,0.653
70.3200,0.729
70.3600,0.596
70.4000,0.637
70.4400,0.669
70.4800,0.717
70.5200,0.668
70.5600,0.654
70.6000,0.587
70.6400,0.601
70.6800,0.640
70.7200,0.603
70.7600,0.638
70.8000,0.569
70.8400,0.517
70.8800,0.611
70.9200,0.563
70.9600,0.545
71.0000,0.591
71.0400,0.582
71.0800,0.531
71.1200,0.539
71.1600,0.562
71.2000,0.547
71.2400,0.524
71.2800,0.551
71.3200,0.529
71.3600,0.515
71.4000,0.598
71.4400,0.557
71.4800,0.592
71.5200,0.550
71.5600,0.591
71.6000,0.518
71.6400,0.590
71.6800,0.530
71.7200,0.547
71.7600,0.479
71.8000,0.504
71.8400,0.543
71.8800,0.490
71.9200,0.543
71.9600,0.476
72.0000,0.528
72.0400,0.453
72.0800,0.453
72.1200,0.520
72.1600,0.528
72.2000,0.531
72.2400,0.511
72.2800,0.491
72.3200,0.469
72.3600,0.472
72.4000,0.498
72.4400,0.513
72.4800,0.513
72.5200,0.495
72.5600,0.497
72.6000,0.429
72.6400,0.471
72.6800,0.457
72.7200,0.440
72.7600,0.444
72.8000,0.470
72.8400,0.504
72.8800,0.427
72.9200,0.425
72.9600,0.431
73.0000,0.399
73.0400,0.381
73.0800,0.448
73.1200,0.419
73.1600,0.374
73.2000,0.385
73.2400,0.372
73.2800,0.383
73.3200,0.333
73.3600,0.366
73.4000,0.367
73.4400,0.343
73.4800,0.366
73.5200,0.331
73.5600,0.404
73.6000,0.386
73.6400,0.381
73.6800,0.354
73.7200,0.358
73.7600,0.319
73.8000,0.348
73.8400,0.349
73.8800,0.342
73.9200,0.379
73.9600,0.339
74.0000,0.312
74.0400,0.318
74.0800,0.361
74.1200,0.357
74.1600,0.369
74.2000,0.331
74.2400,0.312
74.2800,0.346
74.3200,0.304
74.3600,0.316
74.4000,0.314
74.4400,0.318
74.4800,0.368
74.5200,0.321
74.5600,0.359
74.6000,0.356
74.6400,0.324
74.6800,0.292
74.7200,0.348
74.7600,0.335
74.8000,0.349
74.8400,0.356
74.8800,0.338
74.9200,0.321
74.9600,0.320
75.0000,0.283
75.0400,0.350
75.0800,0.330
75.1200,0.338
75.1600,0.313
75.2000,0.344
75.2400,0.350
75.2800,0.369
75.3200,0.325
75.3600,0.355
75.4000,0.374
75.4400,0.340
75.4800,0.317
75.5200,0.366
75.5600,0.344
75.6000,0.374
75.6400,0.359
75.6800,0.305
75.7200,0.381
75.7600,0.357
75.8000,0.341
75.8400,0.349
75.8800,0.353
75.9200,0.374
75.9600,0.408
76.0000,0.400
76.0400,0.384
76.0800,0.405
76.1200,0.351
76.1600,0.372
76.2000,0.347
76.2400,0.410
76.2800,0.358
76.3200,0.350
76.3600,0.392
76.4000,0.386
76.4400,0.409
76.4800,0.398
76.5200,0.388
76.5600,0.372
76.6000,0.380
76.6400,0.331
76.6800,0.359
76.7200,0.342
76.7600,0.370
76.8000,0.374
76.8400,0.406
76.8800,0.394
76.9200,0.355
76.9600,0.335
77.0000,0.300
77.0400,0.382
77.0800,0.370
77.1200,0.336
77.1600,0.364
77.2000,0.335
77.2400,0.373
77.2800,0.348
77.3200,0.341
77.3600,0.368
77.4000,0.311
77.4400,0.383
77.4800,0.331
77.5200,0.388
77.5600,0.399
77.6000,0.450
77.6400,0.438
77.6800,0.442
77.7200,0.420
77.7600,0.416
77.8000,0.477
77.8400,0.514
77.8800,0.564
77.9200,0.543
77.9600,0.554
78.0000,0.649
78.0400,0.587
78.0800,0.653
78.1200,0.617
78.1600,0.654
78.2000,0.650
78.2400,0.696
78.2800,0.608
78.3200,0.574
78.3600,0.637
78.4000,0.614
78.4400,0.571
78.4800,0.568
78.5200,0.553
78.5600,0.558
78.6000,0.456
78.6400,0.456
78.6800,0.438
78.7200,0.509
78.7600,0.403
78.8000,0.444
78.8400,0.430
78.8800,0.347
78.9200,0.359
78.9600,0.361
79.0000,0.364
79.0400,0.397
79.0800,0.327
79.1200,0.354
79.1600,0.323
79.2000,0.328
79.2400,0.356
79.2800,0.317
79.3200,0.340
79.3600,0.333
79.4000,0.340
79.4400,0.300
79.4800,0.297
79.5200,0.346
79.5600,0.327
79.6000,0.348
79.6400,0.311
79.6800,0.289
79.7200,0.297
79.7600,0.320
79.8000,0.321
79.8400,0.319
79.8800,0.299
79.9200,0.328
79.9600,0.344
80.0000,0.321
