theta,intensity
5.0000,2.724
5.0400,2.553
5.0800,2.551
5.1200,2.571
5.1600,2.488
5.2000,2.390
5.2400,2.296
5.2800,2.371
5.3200,2.322
5.3600,2.304
5.4000,2.212
5.4400,2.160
5.4800,2.188
5.5200,2.238
5.5600,2.152
5.6000,2.133
5.6400,2.087
5.6800,2.141
5.7200,2.084
5.7600,2.078
5.8000,1.967
5.8400,2.015
5.8800,2.016
5.9200,1.945
5.9600,1.936
6.0000,1.896
6.0400,1.924
6.0800,1.827
6.1200,1.853
6.1600,1.826
6.2000,1.807
6.2400,1.750
6.2800,1.814
6.3200,1.775
6.3600,1.705
6.4000,1.643
6.4400,1.679
6.4800,1.622
6.5200,1.614
6.5600,1.593
6.6000,1.601
6.6400,1.513
6.6800,1.533
6.7200,1.538
6.7600,1.527
6.8000,1.513
6.8400,1.491
6.8800,1.525
6.9200,1.493
6.9600,1.486
7.0000,1.480
7.0400,1.505
7.0800,1.464
7.1200,1.486
7.1600,1.428
7.2000,1.434
7.2400,1.507
7.2800,1.426
7.3200,1.412
7.3600,1.469
7.4000,1.462
7.4400,1.427
7.4800,1.486
7.5200,1.446
7.5600,1.431
7.6000,1.478
7.6400,1.484
7.6800,1.430
7.7200,1.442
7.7600,1.438
7.8000,1.453
7.8400,1.449
7.8800,1.390
7.9200,1.450
7.9600,1.445
8.0000,1.402
8.0400,1.439
8.0800,1.491
8.1200,1.423
8.1600,1.400
8.2000,1.394
8.2400,1.412
8.2800,1.452
8.3200,1.448
8.3600,1.444
8.4000,1.430
8.4400,1.421
8.4800,1.448
8.5200,1.412
8.5600,1.433
8.6000,1.385
8.6400,1.417
8.6800,1.414
8.7200,1.414
8.7600,1.422
8.8000,1.436
8.8400,1.406
8.8800,1.390
8.9200,1.392
8.9600,1.410
9.0000,1.420
9.0400,1.368
9.0800,1.430
9.1200,1.407
9.1600,1.402
9.2000,1.410
9.2400,1.431
9.2800,1.472
9.3200,1.338
9.3600,1.366
9.4000,1.388
9.4400,1.387
9.4800,1.396
9.5200,1.437
9.5600,1.404
9.6000,1.437
9.6400,1.411
9.6800,1.411
9.7200,1.378
9.7600,1.389
9.8000,1.432
9.8400,1.405
9.8800,1.385
9.9200,1.376
9.9600,1.400
10.0000,1.415
10.0400,1.372
10.0800,1.402
10.1200,1.371
10.1600,1.412
10.2000,1.368
10.2400,1.367
10.2800,1.394
10.3200,1.359
10.3600,1.388
10.4000,1.356
10.4400,1.373
10.4800,1.359
10.5200,1.348
10.5600,1.401
10.6000,1.380
10.6400,1.328
10.6800,1.379
10.7200,1.403
10.7600,1.353
10.8000,1.405
10.8400,1.337
10.8800,1.361
10.9200,1.340
10.9600,1.320
11.0000,1.384
11.0400,1.309
11.0800,1.326
11.1200,1.339
11.1600,1.305
11.2000,1.320
11.2400,1.339
11.2800,1.325
11.3200,1.327
11.3600,1.301
11.4000,1.348
11.4400,1.370
11.4800,1.335
11.5200,1.339
11.5600,1.320
11.6000,1.332
11.6400,1.331
11.6800,1.342
11.7200,1.338
11.7600,1.348
11.8000,1.360
11.8400,1.323
11.8800,1.338
11.9200,1.304
11.9600,1.342
12.0000,1.273
12.0400,1.256
12.0800,1.299
12.1200,1.337
12.1600,1.296
12.2000,1.327
12.2400,1.282
12.2800,1.327
12.3200,1.364
12.3600,1.301
12.4000,1.319
12.4400,1.324
12.4800,1.321
12.5200,1.309
12.5600,1.334
12.6000,1.321
12.6400,1.229
12.6800,1.321
12.7200,1.312
12.7600,1.295
12.8000,1.295
12.8400,1.330
12.8800,1.300
12.9200,1.278
12.9600,1.285
13.0000,1.279
13.0400,1.269
13.0800,1.303
13.1200,1.288
13.1600,1.282
13.2000,1.282
13.2400,1.268
13.2800,1.280
13.3200,1.269
13.3600,1.282
13.4000,1.264
13.4400,1.310
13.4800,1.309
13.5200,1.313
13.5600,1.255
13.6000,1.236
13.6400,1.287
13.6800,1.263
13.7200,1.223
13.7600,1.244
13.8000,1.260
13.8400,1.300
13.8800,1.294
13.9200,1.262
13.9600,1.246
14.0000,1.233
14.0400,1.234
14.0800,1.274
14.1200,1.282
14.1600,1.294
14.2000,1.288
14.2400,1.261
14.2800,1.201
14.3200,1.260
14.3600,1.229
14.4000,1.252
14.4400,1.245
14.4800,1.225
14.5200,1.245
14.5600,1.249
14.6000,1.273
14.6400,1.254
14.6800,1.228
14.7200,1.234
14.7600,1.199
14.8000,1.246
14.8400,1.231
14.8800,1.203
14.9200,1.235
14.9600,1.257
15.0000,1.230
15.0400,1.211
15.0800,1.268
15.1200,1.232
15.1600,1.221
15.2000,1.254
15.2400,1.234
15.2800,1.219
15.3200,1.182
15.3600,1.226
15.4000,1.208
15.4400,1.266
15.4800,1.218
15.5200,1.195
15.5600,1.249
15.6000,1.213
15.6400,1.235
15.6800,1.242
15.7200,1.267
15.7600,1.229
15.8000,1.208
15.8400,1.188
15.8800,1.197
15.9200,1.201
15.9600,1.234
16.0000,1.227
16.0400,1.181
16.0800,1.230
16.1200,1.157
16.1600,1.200
16.2000,1.173
16.2400,1.210
16.2800,1.199
16.3200,1.230
16.3600,1.179
16.4000,1.187
16.4400,1.197
16.4800,1.238
16.5200,1.188
16.5600,1.180
16.6000,1.190
16.6400,1.181
16.6800,1.169
16.7200,1.189
16.7600,1.229
16.8000,1.183
16.8400,1.138
16.8800,1.153
16.9200,1.207
16.9600,1.180
17.0000,1.182
17.0400,1.184
17.0800,1.190
17.1200,1.180
17.1600,1.224
17.2000,1.137
17.2400,1.183
17.2800,1.167
17.3200,1.142
17.3600,1.196
17.4000,1.169
17.4400,1.190
17.4800,1.188
17.5200,1.222
17.5600,1.143
17.6000,1.159
17.6400,1.192
17.6800,1.144
17.7200,1.142
17.7600,1.201
17.8000,1.193
17.8400,1.199
17.8800,1.226
17.9200,1.218
17.9600,1.160
18.0000,1.177
18.0400,1.128
18.0800,1.147
18.1200,1.193
18.1600,1.171
18.2000,1.153
18.2400,1.168
18.2800,1.180
18.3200,1.224
18.3600,1.189
18.4000,1.166
18.4400,1.171
18.4800,1.178
18.5200,1.131
18.5600,1.184
18.6000,1.211
18.6400,1.180
18.6800,1.180
18.7200,1.180
18.7600,1.188
18.8000,1.197
18.8400,1.179
18.8800,1.131
18.9200,1.157
18.9600,1.186
19.0000,1.179
19.0400,1.111
19.0800,1.178
19.1200,1.202
19.1600,1.137
19.2000,1.155
19.2400,1.137
19.2800,1.136
19.3200,1.161
19.3600,1.176
19.4000,1.173
19.4400,1.145
19.4800,1.156
19.5200,1.160
19.5600,1.162
19.6000,1.137
19.6400,1.174
19.6800,1.126
19.7200,1.176
19.7600,1.211
19.8000,1.169
19.8400,1.114
19.8800,1.136
19.9200,1.171
19.9600,1.134
20.0000,1.117
20.0400,1.133
20.0800,1.186
20.1200,1.156
20.1600,1.151
20.2000,1.160
20.2400,1.141
20.2800,1.143
20.3200,1.181
20.3600,1.127
20.4000,1.123
20.4400,1.070
20.4800,1.117
20.5200,1.140
20.5600,1.128
20.6000,1.086
20.6400,1.137
20.6800,1.141
20.7200,1.155
20.7600,1.140
20.8000,1.116
20.8400,1.093
20.8800,1.145
20.9200,1.122
20.9600,1.131
21.0000,1.092
21.0400,1.156
21.0800,1.130
21.1200,1.138
21.1600,1.093
21.2000,1.119
21.2400,1.108
21.2800,1.138
21.3200,1.160
21.3600,1.139
21.4000,1.135
21.4400,1.099
21.4800,1.125
21.5200,1.120
21.5600,1.195
21.6000,1.225
21.6400,1.290
21.6800,1.313
21.7200,1.386
21.7600,1.533
21.8000,1.677
21.8400,1.894
21.8800,1.916
21.9200,1.811
21.9600,1.659
22.0000,1.542
22.0400,1.398
22.0800,1.364
22.1200,1.220
22.1600,1.212
22.2000,1.212
22.2400,1.164
22.2800,1.152
22.3200,1.113
22.3600,1.085
22.4000,1.115
22.4400,1.046
22.4800,1.122
22.5200,1.048
22.5600,1.055
22.6000,1.059
22.6400,1.050
22.6800,1.104
22.7200,1.024
22.7600,1.052
22.8000,1.069
22.8400,1.054
22.8800,1.069
22.9200,1.007
22.9600,1.069
23.0000,0.991
23.0400,0.985
23.0800,0.990
23.1200,0.997
23.1600,1.002
23.2000,1.011
23.2400,1.010
23.2800,1.002
23.3200,0.964
23.3600,1.038
23.4000,0.992
23.4400,1.015
23.4800,1.021
23.5200,0.997
23.5600,1.016
23.6000,1.029
23.6400,0.997
23.6800,0.951
23.7200,1.030
23.7600,1.009
23.8000,1.011
23.8400,0.970
23.8800,0.943
23.9200,0.981
23.9600,1.025
24.0000,1.000
24.0400,0.981
24.0800,0.965
24.1200,0.983
24.1600,0.942
24.2000,0.977
24.2400,0.930
24.2800,0.965
24.3200,0.948
24.3600,0.952
24.4000,0.954
24.4400,0.938
24.4800,0.943
24.5200,0.917
24.5600,0.894
24.6000,0.958
24.6400,0.910
24.6800,0.910
24.7200,0.897
24.7600,0.925
24.8000,0.915
24.8400,0.933
24.8800,0.931
24.9200,0.895
24.9600,0.908
25.0000,0.914
25.0400,0.931
25.0800,0.873
25.1200,0.902
25.1600,0.875
25.2000,0.879
25.2400,0.854
25.2800,0.899
25.3200,0.879
25.3600,0.916
25.4000,0.877
25.4400,0.919
25.4800,0.888
25.5200,0.866
25.5600,0.866
25.6000,0.872
25.6400,0.857
25.6800,0.834
25.7200,0.863
25.7600,0.839
25.8000,0.864
25.8400,0.899
25.8800,0.877
25.9200,0.891
25.9600,0.866
26.0000,0.894
26.0400,0.818
26.0800,0.819
26.1200,0.841
26.1600,0.843
26.2000,0.844
26.2400,0.880
26.2800,0.860
26.3200,0.834
26.3600,0.846
26.4000,0.851
26.4400,0.814
26.4800,0.816
26.5200,0.792
26.5600,0.808
26.6000,0.849
26.6400,0.858
26.6800,0.833
26.7200,0.798
26.7600,0.826
26.8000,0.846
26.8400,0.825
26.8800,0.808
26.9200,0.807
26.9600,0.805
27.0000,0.815
27.0400,0.811
27.0800,0.783
27.1200,0.796
27.1600,0.777
27.2000,0.812
27.2400,0.757
27.2800,0.770
27.3200,0.781
27.3600,0.762
27.4000,0.791
27.4400,0.825
27.4800,0.797
27.5200,0.762
27.5600,0.784
27.6000,0.758
27.6400,0.751
27.6800,0.777
27.7200,0.760
27.7600,0.745
27.8000,0.772
27.8400,0.793
27.8800,0.809
27.9200,0.742
27.9600,0.761
28.0000,0.786
28.0400,0.760
28.0800,0.807
28.1200,0.759
28.1600,0.779
28.2000,0.732
28.2400,0.722
28.2800,0.738
28.3200,0.756
28.3600,0.770
28.4000,0.754
28.4400,0.753
28.4800,0.744
28.5200,0.779
28.5600,0.743
28.6000,0.711
28.6400,0.737
28.6800,0.728
28.7200,0.741
28.7600,0.756
28.8000,0.711
28.8400,0.734
28.8800,0.729
28.9200,0.724
28.9600,0.723
29.0000,0.676
29.0400,0.727
29.0800,0.729
29.1200,0.706
29.1600,0.679
29.2000,0.740
29.2400,0.729
29.2800,0.698
29.3200,0.693
29.3600,0.713
29.4000,0.742
29.4400,0.719
29.4800,0.682
29.5200,0.717
29.5600,0.729
29.6000,0.724
29.6400,0.687
29.6800,0.670
29.7200,0.673
29.7600,0.715
29.8000,0.661
29.8400,0.707
29.8800,0.681
29.9200,0.691
29.9600,0.705
30.0000,0.664
30.0400,0.720
30.0800,0.702
30.1200,0.717
30.1600,0.696
30.2000,0.677
30.2400,0.706
30.2800,0.666
30.3200,0.714
30.3600,0.686
30.4000,0.721
30.4400,0.679
30.4800,0.689
30.5200,0.736
30.5600,0.716
30.6000,0.745
30.6400,0.719
30.6800,0.743
30.7200,0.776
30.7600,0.763
30.8000,0.811
30.8400,0.823
30.8800,0.855
30.9200,0.914
30.9600,0.962
31.0000,1.230
31.0400,1.375
31.0800,1.492
31.1200,1.490
31.1600,1.467
31.2000,1.276
31.2400,1.134
31.2800,0.998
31.3200,0.968
31.3600,0.828
31.4000,0.760
31.4400,0.746
31.4800,0.736
31.5200,0.732
31.5600,0.699
31.6000,0.666
31.6400,0.672
31.6800,0.659
31.7200,0.704
31.7600,0.664
31.8000,0.639
31.8400,0.659
31.8800,0.678
31.9200,0.659
31.9600,0.638
32.0000,0.653
32.0400,0.631
32.0800,0.608
32.1200,0.593
32.1600,0.612
32.2000,0.632
32.2400,0.600
32.2800,0.595
32.3200,0.595
32.3600,0.586
32.4000,0.616
32.4400,0.595
32.4800,0.622
32.5200,0.606
32.5600,0.576
32.6000,0.612
32.6400,0.604
32.6800,0.599
32.7200,0.574
32.7600,0.566
32.8000,0.567
32.8400,0.606
32.8800,0.619
32.9200,0.593
32.9600,0.550
33.0000,0.597
33.0400,0.584
33.0800,0.585
33.1200,0.586
33.1600,0.571
33.2000,0.579
33.2400,0.594
33.2800,0.580
33.3200,0.588
33.3600,0.583
33.4000,0.578
33.4400,0.565
33.4800,0.565
33.5200,0.593
33.5600,0.582
33.6000,0.574
33.6400,0.614
33.6800,0.568
33.7200,0.571
33.7600,0.555
33.8000,0.613
33.8400,0.605
33.8800,0.570
33.9200,0.588
33.9600,0.576
34.0000,0.554
34.0400,0.554
34.0800,0.572
34.1200,0.563
34.1600,0.524
34.2000,0.539
34.2400,0.608
34.2800,0.580
34.3200,0.578
34.3600,0.592
34.4000,0.553
34.4400,0.537
34.4800,0.570
34.5200,0.578
34.5600,0.569
34.6000,0.547
34.6400,0.559
34.6800,0.574
34.7200,0.561
34.7600,0.562
34.8000,0.552
34.8400,0.572
34.8800,0.563
34.9200,0.550
34.9600,0.566
35.0000,0.569
35.0400,0.563
35.0800,0.518
35.1200,0.562
35.1600,0.522
35.2000,0.537
35.2400,0.527
35.2800,0.549
35.3200,0.515
35.3600,0.539
35.4000,0.546
35.4400,0.526
35.4800,0.536
35.5200,0.538
35.5600,0.544
35.6000,0.559
35.6400,0.550
35.6800,0.557
35.7200,0.538
35.7600,0.510
35.8000,0.573
35.8400,0.571
35.8800,0.561
35.9200,0.544
35.9600,0.534
36.0000,0.541
36.0400,0.534
36.0800,0.537
36.1200,0.570
36.1600,0.547
36.2000,0.551
36.2400,0.584
36.2800,0.563
36.3200,0.562
36.3600,0.568
36.4000,0.563
36.4400,0.567
36.4800,0.538
36.5200,0.554
36.5600,0.555
36.6000,0.569
36.6400,0.590
36.6800,0.549
36.7200,0.595
36.7600,0.574
36.8000,0.586
36.8400,0.576
36.8800,0.592
36.9200,0.590
36.9600,0.605
37.0000,0.587
37.0400,0.619
37.0800,0.630
37.1200,0.609
37.1600,0.605
37.2000,0.618
37.2400,0.667
37.2800,0.658
37.3200,0.676
37.3600,0.692
37.4000,0.673
37.4400,0.710
37.4800,0.734
37.5200,0.783
37.5600,0.804
37.6000,0.819
37.6400,0.830
37.6800,0.886
37.7200,0.921
37.7600,1.019
37.8000,1.070
37.8400,1.183
37.8800,1.338
37.9200,1.487
37.9600,1.738
38.0000,2.044
38.0400,2.410
38.0800,2.910
38.1200,3.804
38.1600,5.028
38.2000,6.884
38.2400,9.386
38.2800,12.495
38.3200,14.665
38.3600,15.648
38.4000,15.048
38.4400,13.055
38.4800,10.606
38.5200,8.186
38.5600,6.160
38.6000,4.541
38.6400,3.606
38.6800,2.901
38.7200,2.297
38.7600,2.025
38.8000,1.722
38.8400,1.506
38.8800,1.309
38.9200,1.201
38.9600,1.108
39.0000,1.081
39.0400,1.005
39.0800,0.928
39.1200,0.903
39.1600,0.869
39.2000,0.854
39.2400,0.776
39.2800,0.785
39.3200,0.779
39.3600,0.766
39.4000,0.768
39.4400,0.751
39.4800,0.750
39.5200,0.771
39.5600,0.760
39.6000,0.774
39.6400,0.726
39.6800,0.696
39.7200,0.663
39.7600,0.644
39.8000,0.610
39.8400,0.617
39.8800,0.598
39.9200,0.579
39.9600,0.576
40.0000,0.593
40.0400,0.560
40.0800,0.573
40.1200,0.591
40.1600,0.591
40.2000,0.594
40.2400,0.604
40.2800,0.587
40.3200,0.587
40.3600,0.603
40.4000,0.542
40.4400,0.547
40.4800,0.512
40.5200,0.516
40.5600,0.506
40.6000,0.477
40.6400,0.483
40.6800,0.500
40.7200,0.463
40.7600,0.491
40.8000,0.477
40.8400,0.488
40.8800,0.499
40.9200,0.484
40.9600,0.439
41.0000,0.475
41.0400,0.484
41.0800,0.457
41.1200,0.472
41.1600,0.467
41.2000,0.481
41.2400,0.456
41.2800,0.478
41.3200,0.468
41.3600,0.482
41.4000,0.465
41.4400,0.461
41.4800,0.490
41.5200,0.452
41.5600,0.445
41.6000,0.455
41.6400,0.436
41.6800,0.455
41.7200,0.473
41.7600,0.451
41.8000,0.446
41.8400,0.435
41.8800,0.472
41.9200,0.441
41.9600,0.437
42.0000,0.478
42.0400,0.445
42.0800,0.432
42.1200,0.444
42.1600,0.465
42.2000,0.430
42.2400,0.455
42.2800,0.461
42.3200,0.441
42.3600,0.450
42.4000,0.486
42.4400,0.464
42.4800,0.441
42.5200,0.437
42.5600,0.468
42.6000,0.462
42.6400,0.479
42.6800,0.473
42.7200,0.460
42.7600,0.465
42.8000,0.445
42.8400,0.480
42.8800,0.479
42.9200,0.491
42.9600,0.522
43.0000,0.516
43.0400,0.497
43.0800,0.493
43.1200,0.476
43.1600,0.493
43.2000,0.472
43.2400,0.482
43.2800,0.491
43.3200,0.502
43.3600,0.466
43.4000,0.490
43.4400,0.493
43.4800,0.514
43.5200,0.537
43.5600,0.536
43.6000,0.521
43.6400,0.556
43.6800,0.542
43.7200,0.592
43.7600,0.590
43.8000,0.606
43.8400,0.595
43.8800,0.650
43.9200,0.685
43.9600,0.712
44.0000,0.767
44.0400,0.831
44.0800,0.880
44.1200,0.957
44.1600,1.108
44.2000,1.225
44.2400,1.363
44.2800,1.620
44.3200,1.909
44.3600,2.413
44.4000,3.112
44.4400,3.765
44.4800,4.590
44.5200,5.464
44.5600,5.971
44.6000,6.108
44.6400,5.779
44.6800,5.067
44.7200,4.326
44.7600,3.500
44.8000,2.792
44.8400,2.218
44.8800,1.791
44.9200,1.490
44.9600,1.267
45.0000,1.110
45.0400,0.988
45.0800,0.912
45.1200,0.861
45.1600,0.757
45.2000,0.715
45.2400,0.675
45.2800,0.636
45.3200,0.624
45.3600,0.597
45.4000,0.602
45.4400,0.517
45.4800,0.509
45.5200,0.547
45.5600,0.506
45.6000,0.473
45.6400,0.500
45.6800,0.442
45.7200,0.444
45.7600,0.429
45.8000,0.466
45.8400,0.419
45.8800,0.410
45.9200,0.418
45.9600,0.396
46.0000,0.429
46.0400,0.415
46.0800,0.399
46.1200,0.382
46.1600,0.374
46.2000,0.399
46.2400,0.374
46.2800,0.354
46.3200,0.355
46.3600,0.362
46.4000,0.358
46.4400,0.366
46.4800,0.373
46.5200,0.349
46.5600,0.382
46.6000,0.367
46.6400,0.355
46.6800,0.346
46.7200,0.328
46.7600,0.348
46.8000,0.335
46.8400,0.302
46.8800,0.323
46.9200,0.338
46.9600,0.334
47.0000,0.338
47.0400,0.360
47.0800,0.319
47.1200,0.314
47.1600,0.348
47.2000,0.328
47.2400,0.340
47.2800,0.323
47.3200,0.335
47.3600,0.329
47.4000,0.354
47.4400,0.306
47.4800,0.310
47.5200,0.313
47.5600,0.313
47.6000,0.307
47.6400,0.339
47.6800,0.297
47.7200,0.311
47.7600,0.327
47.8000,0.309
47.8400,0.345
47.8800,0.322
47.9200,0.290
47.9600,0.305
48.0000,0.297
48.0400,0.291
48.0800,0.324
48.1200,0.327
48.1600,0.307
48.2000,0.315
48.2400,0.300
48.2800,0.297
48.3200,0.305
48.3600,0.295
48.4000,0.309
48.4400,0.321
48.4800,0.318
48.5200,0.297
48.5600,0.318
48.6000,0.300
48.6400,0.298
48.6800,0.295
48.7200,0.302
48.7600,0.312
48.8000,0.288
48.8400,0.303
48.8800,0.316
48.9200,0.304
48.9600,0.311
49.0000,0.310
49.0400,0.316
49.0800,0.282
49.1200,0.302
49.1600,0.287
49.2000,0.287
49.2400,0.300
49.2800,0.294
49.3200,0.298
49.3600,0.258
49.4000,0.301
49.4400,0.306
49.4800,0.321
49.5200,0.320
49.5600,0.319
49.6000,0.327
49.6400,0.281
49.6800,0.332
49.7200,0.312
49.7600,0.327
49.8000,0.329
49.8400,0.327
49.8800,0.356
49.9200,0.369
49.9600,0.440
50.0000,0.489
50.0400,0.516
50.0800,0.522
50.1200,0.612
50.1600,0.642
50.2000,0.667
50.2400,0.640
50.2800,0.626
50.3200,0.530
50.3600,0.485
50.4000,0.426
50.4400,0.375
50.4800,0.388
50.5200,0.347
50.5600,0.317
50.6000,0.321
50.6400,0.313
50.6800,0.312
50.7200,0.300
50.7600,0.290
50.8000,0.282
50.8400,0.292
50.8800,0.293
50.9200,0.288
50.9600,0.285
51.0000,0.289
51.0400,0.282
51.0800,0.273
51.1200,0.271
51.1600,0.267
51.2000,0.289
51.2400,0.283
51.2800,0.257
51.3200,0.281
51.3600,0.288
51.4000,0.266
51.4400,0.277
51.4800,0.285
51.5200,0.269
51.5600,0.279
51.6000,0.277
51.6400,0.270
51.6800,0.273
51.7200,0.277
51.7600,0.264
51.8000,0.255
51.8400,0.272
51.8800,0.253
51.9200,0.253
51.9600,0.263
52.0000,0.257
52.0400,0.276
52.0800,0.259
52.1200,0.261
52.1600,0.278
52.2000,0.290
52.2400,0.270
52.2800,0.265
52.3200,0.259
52.3600,0.251
52.4000,0.267
52.4400,0.261
52.4800,0.260
52.5200,0.247
52.5600,0.244
52.6000,0.247
52.6400,0.265
52.6800,0.254
52.7200,0.233
52.7600,0.267
52.8000,0.246
52.8400,0.255
52.8800,0.263
52.9200,0.256
52.9600,0.285
53.0000,0.270
53.0400,0.284
53.0800,0.260
53.1200,0.248
53.1600,0.249
53.2000,0.248
53.2400,0.259
53.2800,0.240
53.3200,0.252
53.3600,0.247
53.4000,0.249
53.4400,0.238
53.4800,0.263
53.5200,0.246
53.5600,0.243
53.6000,0.244
53.6400,0.272
53.6800,0.252
53.7200,0.233
53.7600,0.237
53.8000,0.238
53.8400,0.236
53.8800,0.255
53.9200,0.254
53.9600,0.245
54.0000,0.262
54.0400,0.235
54.0800,0.251
54.1200,0.259
54.1600,0.251
54.2000,0.248
54.2400,0.251
54.2800,0.227
54.3200,0.259
54.3600,0.251
54.4000,0.248
54.4400,0.254
54.4800,0.241
54.5200,0.236
54.5600,0.243
54.6000,0.247
54.6400,0.238
54.6800,0.241
54.7200,0.256
54.7600,0.265
54.8000,0.254
54.8400,0.259
54.8800,0.255
54.9200,0.240
54.9600,0.266
55.0000,0.301
55.0400,0.315
55.0800,0.299
55.1200,0.318
55.1600,0.335
55.2000,0.393
55.2400,0.390
55.2800,0.460
55.3200,0.505
55.3600,0.508
55.4000,0.497
55.4400,0.475
55.4800,0.443
55.5200,0.422
55.5600,0.388
55.6000,0.346
55.6400,0.305
55.6800,0.305
55.7200,0.293
55.7600,0.321
55.8000,0.253
55.8400,0.273
55.8800,0.266
55.9200,0.284
55.9600,0.269
56.0000,0.242
56.0400,0.267
56.0800,0.236
56.1200,0.259
56.1600,0.222
56.2000,0.228
56.2400,0.227
56.2800,0.243
56.3200,0.250
56.3600,0.232
56.4000,0.243
56.4400,0.217
56.4800,0.225
56.5200,0.235
56.5600,0.246
56.6000,0.225
56.6400,0.242
56.6800,0.240
56.7200,0.202
56.7600,0.228
56.8000,0.258
56.8400,0.234
56.8800,0.224
56.9200,0.237
56.9600,0.214
57.0000,0.237
57.0400,0.219
57.0800,0.219
57.1200,0.228
57.1600,0.257
57.2000,0.243
57.2400,0.238
57.2800,0.224
57.3200,0.231
57.3600,0.217
57.4000,0.229
57.4400,0.210
57.4800,0.230
57.5200,0.232
57.5600,0.245
57.6000,0.239
57.6400,0.242
57.6800,0.232
57.7200,0.246
57.7600,0.246
57.8000,0.224
57.8400,0.214
57.8800,0.239
57.9200,0.249
57.9600,0.221
58.0000,0.256
58.0400,0.230
58.0800,0.246
58.1200,0.221
58.1600,0.226
58.2000,0.217
58.2400,0.225
58.2800,0.224
58.3200,0.230
58.3600,0.223
58.4000,0.192
58.4400,0.241
58.4800,0.240
58.5200,0.229
58.5600,0.226
58.6000,0.224
58.6400,0.223
58.6800,0.231
58.7200,0.213
58.7600,0.228
58.8000,0.207
58.8400,0.223
58.8800,0.227
58.9200,0.219
58.9600,0.228
59.0000,0.225
59.0400,0.237
59.0800,0.230
59.1200,0.224
59.1600,0.233
59.2000,0.221
59.2400,0.233
59.2800,0.233
59.3200,0.204
59.3600,0.223
59.4000,0.220
59.4400,0.214
59.4800,0.231
59.5200,0.223
59.5600,0.237
59.6000,0.228
59.6400,0.198
59.6800,0.204
59.7200,0.208
59.7600,0.213
59.8000,0.220
59.8400,0.209
59.8800,0.225
59.9200,0.221
59.9600,0.198
60.0000,0.211
60.0400,0.213
60.0800,0.223
60.1200,0.212
60.1600,0.226
60.2000,0.223
60.2400,0.193
60.2800,0.221
60.3200,0.224
60.3600,0.204
60.4000,0.213
60.4400,0.234
60.4800,0.218
60.5200,0.207
60.5600,0.221
60.6000,0.226
60.6400,0.199
60.6800,0.208
60.7200,0.208
60.7600,0.222
60.8000,0.233
60.8400,0.229
60.8800,0.238
60.9200,0.224
60.9600,0.210
61.0000,0.234
61.0400,0.219
61.0800,0.214
61.1200,0.214
61.1600,0.232
61.2000,0.217
61.2400,0.241
61.2800,0.221
61.3200,0.217
61.3600,0.226
61.4000,0.225
61.4400,0.235
61.4800,0.220
61.5200,0.223
61.5600,0.222
61.6000,0.226
61.6400,0.219
61.6800,0.247
61.7200,0.238
61.7600,0.223
61.8000,0.227
61.8400,0.228
61.8800,0.234
61.9200,0.213
61.9600,0.218
62.0000,0.217
62.0400,0.220
62.0800,0.225
62.1200,0.219
62.1600,0.212
62.2000,0.224
62.2400,0.250
62.2800,0.247
62.3200,0.238
62.3600,0.237
62.4000,0.221
62.4400,0.238
62.4800,0.221
62.5200,0.226
62.5600,0.251
62.6000,0.226
62.6400,0.214
62.6800,0.235
62.7200,0.234
62.7600,0.231
62.8000,0.236
62.8400,0.227
62.8800,0.249
62.9200,0.235
62.9600,0.245
63.0000,0.238
63.0400,0.211
63.0800,0.248
63.1200,0.246
63.1600,0.245
63.2000,0.244
63.2400,0.249
63.2800,0.256
63.3200,0.274
63.3600,0.267
63.4000,0.262
63.4400,0.248
63.4800,0.255
63.5200,0.279
63.5600,0.276
63.6000,0.253
63.6400,0.282
63.6800,0.288
63.7200,0.294
63.7600,0.308
63.8000,0.308
63.8400,0.297
63.8800,0.294
63.9200,0.314
63.9600,0.309
64.0000,0.327
64.0400,0.341
64.0800,0.357
64.1200,0.377
64.1600,0.390
64.2000,0.417
64.2400,0.430
64.2800,0.432
64.3200,0.465
64.3600,0.526
64.4000,0.538
64.4400,0.586
64.4800,0.643
64.5200,0.737
64.5600,0.806
64.6000,1.000
64.6400,1.186
64.6800,1.369
64.7200,1.779
64.7600,2.143
64.8000,2.585
64.8400,2.734
64.8800,2.840
64.9200,2.782
64.9600,2.585
65.0000,2.455
65.0400,2.197
65.0800,1.929
65.1200,1.604
65.1600,1.362
65.2000,1.095
65.2400,0.931
65.2800,0.818
65.3200,0.703
65.3600,0.649
65.4000,0.584
65.4400,0.530
65.4800,0.497
65.5200,0.440
65.5600,0.470
65.6000,0.441
65.6400,0.421
65.6800,0.411
65.7200,0.415
65.7600,0.424
65.8000,0.344
65.8400,0.388
65.8800,0.348
65.9200,0.350
65.9600,0.339
66.0000,0.356
66.0400,0.344
66.0800,0.370
66.1200,0.354
66.1600,0.338
66.2000,0.365
66.2400,0.341
66.2800,0.314
66.3200,0.353
66.3600,0.347
66.4000,0.364
66.4400,0.342
66.4800,0.350
66.5200,0.335
66.5600,0.336
66.6000,0.356
66.6400,0.327
66.6800,0.361
66.7200,0.330
66.7600,0.338
66.8000,0.339
66.8400,0.342
66.8800,0.356
66.9200,0.362
66.9600,0.337
67.0000,0.374
67.0400,0.369
67.0800,0.346
67.1200,0.360
67.1600,0.338
67.2000,0.341
67.2400,0.353
67.2800,0.365
67.3200,0.360
67.3600,0.364
67.4000,0.371
67.4400,0.364
67.4800,0.352
67.5200,0.385
67.5600,0.398
67.6000,0.376
67.6400,0.401
67.6800,0.395
67.7200,0.423
67.7600,0.393
67.8000,0.401
67.8400,0.396
67.8800,0.416
67.9200,0.406
67.9600,0.420
68.0000,0.470
68.0400,0.430
68.0800,0.480
68.1200,0.464
68.1600,0.469
68.2000,0.491
68.2400,0.490
68.2800,0.528
68.3200,0.509
68.3600,0.532
68.4000,0.547
68.4400,0.565
68.4800,0.618
68.5200,0.555
68.5600,0.602
68.6000,0.648
68.6400,0.725
68.6800,0.825
68.7200,0.973
68.7600,1.092
68.8000,1.262
68.8400,1.319
68.8800,1.463
68.9200,1.699
68.9600,2.393
69.0000,4.265
69.0400,12.797
69.0800,38.690
69.1200,51.898
69.1600,42.780
69.2000,31.534
69.2400,18.533
69.2800,23.282
69.3200,28.336
69.3600,23.095
69.4000,16.147
69.4400,6.822
69.4800,2.877
69.5200,1.853
69.5600,1.383
69.6000,1.195
69.6400,1.075
69.6800,0.914
69.7200,0.831
69.7600,0.790
69.8000,0.714
69.8400,0.670
69.8800,0.676
69.9200,0.585
69.9600,0.648
70.0000,0.603
70.0400,0.594
70.0800,0.536
70.1200,0.555
70.1600,0.520
70.2000,0.527
70.2400,0.494
70.2800,0.492
70.3200,0.467
70.3600,0.472
70.4000,0.457
70.4400,0.462
70.4800,0.444
70.5200,0.450
70.5600,0.424
70.6000,0.455
70.6400,0.433
70.6800,0.398
70.7200,0.372
70.7600,0.396
70.8000,0.384
70.8400,0.395
70.8800,0.378
70.9200,0.331
70.9600,0.359
71.0000,0.337
71.0400,0.384
71.0800,0.367
71.1200,0.347
71.1600,0.368
71.2000,0.328
71.2400,0.324
71.2800,0.317
71.3200,0.343
71.3600,0.326
71.4000,0.319
71.4400,0.307
71.4800,0.317
71.5200,0.312
71.5600,0.306
71.6000,0.301
71.6400,0.308
71.6800,0.295
71.7200,0.310
71.7600,0.295
71.8000,0.299
71.8400,0.294
71.8800,0.262
71.9200,0.292
71.9600,0.279
72.0000,0.284
72.0400,0.272
72.0800,0.284
72.1200,0.271
72.1600,0.277
72.2000,0.245
72.2400,0.262
72.2800,0.276
72.3200,0.271
72.3600,0.252
72.4000,0.252
72.4400,0.273
72.4800,0.267
72.5200,0.276
72.5600,0.254
72.6000,0.248
72.6400,0.259
72.6800,0.249
72.7200,0.246
72.7600,0.257
72.8000,0.241
72.8400,0.263
72.8800,0.254
72.9200,0.261
72.9600,0.262
73.0000,0.258
73.0400,0.244
73.0800,0.262
73.1200,0.240
73.1600,0.232
73.2000,0.242
73.2400,0.266
73.2800,0.237
73.3200,0.257
73.3600,0.264
73.4000,0.268
73.4400,0.257
73.4800,0.270
73.5200,0.274
73.5600,0.276
73.6000,0.279
73.6400,0.290
73.6800,0.286
73.7200,0.285
73.7600,0.269
73.8000,0.278
73.8400,0.291
73.8800,0.267
73.9200,0.253
73.9600,0.254
74.0000,0.261
74.0400,0.240
74.0800,0.225
74.1200,0.231
74.1600,0.252
74.2000,0.240
74.2400,0.207
74.2800,0.217
74.3200,0.214
74.3600,0.226
74.4000,0.229
74.4400,0.203
74.4800,0.204
74.5200,0.239
74.5600,0.221
74.6000,0.238
74.6400,0.241
74.6800,0.209
74.7200,0.218
74.7600,0.233
74.8000,0.206
74.8400,0.203
74.8800,0.212
74.9200,0.213
74.9600,0.219
75.0000,0.215
75.0400,0.232
75.0800,0.215
75.1200,0.216
75.1600,0.223
75.2000,0.211
75.2400,0.215
75.2800,0.224
75.3200,0.213
75.3600,0.237
75.4000,0.232
75.4400,0.223
75.4800,0.229
75.5200,0.238
75.5600,0.213
75.6000,0.226
75.6400,0.231
75.6800,0.215
75.7200,0.218
75.7600,0.208
75.8000,0.208
75.8400,0.237
75.8800,0.221
75.9200,0.227
75.9600,0.233
76.0000,0.214
76.0400,0.221
76.0800,0.219
76.1200,0.202
76.1600,0.213
76.2000,0.215
76.2400,0.245
76.2800,0.214
76.3200,0.245
76.3600,0.255
76.4000,0.231
76.4400,0.234
76.4800,0.222
76.5200,0.247
76.5600,0.248
76.6000,0.259
76.6400,0.265
76.6800,0.250
76.7200,0.269
76.7600,0.244
76.8000,0.271
76.8400,0.280
76.8800,0.280
76.9200,0.296
76.9600,0.281
77.0000,0.280
77.0400,0.310
77.0800,0.293
77.1200,0.317
77.1600,0.300
77.2000,0.343
77.2400,0.352
77.2800,0.387
77.3200,0.399
77.3600,0.435
77.4000,0.438
77.4400,0.491
77.4800,0.543
77.5200,0.645
77.5600,0.707
77.6000,0.773
77.6400,0.922
77.6800,1.069
77.7200,1.299
77.7600,1.481
77.8000,1.744
77.8400,2.053
77.8800,2.274
77.9200,2.397
77.9600,2.395
78.0000,2.295
78.0400,2.174
78.0800,2.043
78.1200,1.845
78.1600,1.760
78.2000,1.617
78.2400,1.395
78.2800,1.222
78.3200,1.001
78.3600,0.837
78.4000,0.753
78.4400,0.656
78.4800,0.581
78.5200,0.493
78.5600,0.483
78.6000,0.436
78.6400,0.402
78.6800,0.349
78.7200,0.361
78.7600,0.352
78.8000,0.326
78.8400,0.320
78.8800,0.314
78.9200,0.308
78.9600,0.295
79.0000,0.284
79.0400,0.291
79.0800,0.259
79.1200,0.242
79.1600,0.254
79.2000,0.270
79.2400,0.245
79.2800,0.251
79.3200,0.255
79.3600,0.252
79.4000,0.236
79.4400,0.244
79.4800,0.242
79.5200,0.234
79.5600,0.224
79.6000,0.227
79.6400,0.254
79.6800,0.227
79.7200,0.245
79.7600,0.210
79.8000,0.219
79.8400,0.211
79.8800,0.206
79.9200,0.215
79.9600,0.211
80.0000,0.189
