theta,intensity
5.0000,4.337
5.0400,4.406
5.0800,4.606
5.1200,4.378
5.1600,4.283
5.2000,4.369
5.2400,4.366
5.2800,4.214
5.3200,4.282
5.3600,4.403
5.4000,4.343
5.4400,4.332
5.4800,4.319
5.5200,4.386
5.5600,4.351
5.6000,4.197
5.6400,4.375
5.6800,4.311
5.7200,4.222
5.7600,4.316
5.8000,4.235
5.8400,4.288
5.8800,4.304
5.9200,4.195
5.9600,4.345
6.0000,4.195
6.0400,4.212
6.0800,4.132
6.1200,4.198
6.1600,4.152
6.2000,4.177
6.2400,4.082
6.2800,4.255
6.3200,4.182
6.3600,4.143
6.4000,4.178
6.4400,4.201
6.4800,4.103
6.5200,4.093
6.5600,4.096
6.6000,3.963
6.6400,4.150
6.6800,4.127
6.7200,4.148
6.7600,3.995
6.8000,4.102
6.8400,4.092
6.8800,4.050
6.9200,3.940
6.9600,4.077
7.0000,4.052
7.0400,3.949
7.0800,4.022
7.1200,4.188
7.1600,4.112
7.2000,3.891
7.2400,4.031
7.2800,3.918
7.3200,3.995
7.3600,4.028
7.4000,4.020
7.4400,3.835
7.4800,3.865
7.5200,3.969
7.5600,3.989
7.6000,4.003
7.6400,4.036
7.6800,3.956
7.7200,3.812
7.7600,3.826
7.8000,3.882
7.8400,4.009
7.8800,3.913
7.9200,3.757
7.9600,3.937
8.0000,3.901
8.0400,3.779
8.0800,3.867
8.1200,3.847
8.1600,3.969
8.2000,3.752
8.2400,3.856
8.2800,3.877
8.3200,3.910
8.3600,3.884
8.4000,3.853
8.4400,3.839
8.4800,3.695
8.5200,3.792
8.5600,3.837
8.6000,3.826
8.6400,3.873
8.6800,3.820
8.7200,3.847
8.7600,3.864
8.8000,3.700
8.8400,3.775
8.8800,3.858
8.9200,3.841
8.9600,3.786
9.0000,3.768
9.0400,3.754
9.0800,3.688
9.1200,3.774
9.1600,3.815
9.2000,3.671
9.2400,3.822
9.2800,3.805
9.3200,3.736
9.3600,3.744
9.4000,3.750
9.4400,3.691
9.4800,3.730
9.5200,3.624
9.5600,3.719
9.6000,3.773
9.6400,3.710
9.6800,3.752
9.7200,3.607
9.7600,3.600
9.8000,3.646
9.8400,3.583
9.8800,3.605
9.9200,3.587
9.9600,3.645
10.0000,3.690
10.0400,3.663
10.0800,3.623
10.1200,3.625
10.1600,3.562
10.2000,3.696
10.2400,3.622
10.2800,3.647
10.3200,3.686
10.3600,3.615
10.4000,3.661
10.4400,3.640
10.4800,3.560
10.5200,3.530
10.5600,3.580
10.6000,3.470
10.6400,3.556
10.6800,3.583
10.7200,3.629
10.7600,3.562
10.8000,3.533
10.8400,3.636
10.8800,3.581
10.9200,3.563
10.9600,3.572
11.0000,3.544
11.0400,3.597
11.0800,3.492
11.1200,3.605
11.1600,3.454
11.2000,3.584
11.2400,3.569
11.2800,3.556
11.3200,3.576
11.3600,3.582
11.4000,3.537
11.4400,3.416
11.4800,3.500
11.5200,3.452
11.5600,3.580
11.6000,3.390
11.6400,3.522
11.6800,3.529
11.7200,3.406
11.7600,3.446
11.8000,3.447
11.8400,3.456
11.8800,3.460
11.9200,3.446
11.9600,3.406
12.0000,3.534
12.0400,3.448
12.0800,3.454
12.1200,3.422
12.1600,3.335
12.2000,3.480
12.2400,3.369
12.2800,3.397
12.3200,3.473
12.3600,3.417
12.4000,3.413
12.4400,3.414
12.4800,3.470
12.5200,3.394
12.5600,3.441
12.6000,3.472
12.6400,3.273
12.6800,3.307
12.7200,3.359
12.7600,3.276
12.8000,3.432
12.8400,3.404
12.8800,3.416
12.9200,3.418
12.9600,3.334
13.0000,3.391
13.0400,3.431
13.0800,3.395
13.1200,3.335
13.1600,3.377
13.2000,3.333
13.2400,3.462
13.2800,3.219
13.3200,3.304
13.3600,3.386
13.4000,3.340
13.4400,3.289
13.4800,3.328
13.5200,3.386
13.5600,3.346
13.6000,3.248
13.6400,3.189
13.6800,3.321
13.7200,3.275
13.7600,3.386
13.8000,3.223
13.8400,3.305
13.8800,3.235
13.9200,3.304
13.9600,3.173
14.0000,3.321
14.0400,3.374
14.0800,3.208
14.1200,3.324
14.1600,3.226
14.2000,3.266
14.2400,3.176
14.2800,3.342
14.3200,3.281
14.3600,3.277
14.4000,3.285
14.4400,3.246
14.4800,3.234
14.5200,3.147
14.5600,3.222
14.6000,3.324
14.6400,3.268
14.6800,3.289
14.7200,3.296
14.7600,3.201
14.8000,3.331
14.8400,3.345
14.8800,3.194
14.9200,3.248
14.9600,3.268
15.0000,3.260
15.0400,3.215
15.0800,3.175
15.1200,3.161
15.1600,3.309
15.2000,3.270
15.2400,3.150
15.2800,3.134
15.3200,3.225
15.3600,3.301
15.4000,3.174
15.4400,3.176
15.4800,3.144
15.5200,3.202
15.5600,3.256
15.6000,3.249
15.6400,3.104
15.6800,3.277
15.7200,3.229
15.7600,3.191
15.8000,3.204
15.8400,3.188
15.8800,3.129
15.9200,3.195
15.9600,3.190
16.0000,3.245
16.0400,3.240
16.0800,3.245
16.1200,3.162
16.1600,3.305
16.2000,3.148
16.2400,3.139
16.2800,3.262
16.3200,3.297
16.3600,2.975
16.4000,3.163
16.4400,3.107
16.4800,3.125
16.5200,3.229
16.5600,3.104
16.6000,3.130
16.6400,3.131
16.6800,3.220
16.7200,3.102
16.7600,3.094
16.8000,3.105
16.8400,3.116
16.8800,3.085
16.9200,3.118
16.9600,3.138
17.0000,3.089
17.0400,3.089
17.0800,3.096
17.1200,3.056
17.1600,3.099
17.2000,3.080
17.2400,3.067
17.2800,3.019
17.3200,3.036
17.3600,2.988
17.4000,3.097
17.4400,3.034
17.4800,2.978
17.5200,3.000
17.5600,2.977
17.6000,3.045
17.6400,2.870
17.6800,2.912
17.7200,3.006
17.7600,2.963
17.8000,2.960
17.8400,2.975
17.8800,3.015
17.9200,3.065
17.9600,3.006
18.0000,3.063
18.0400,3.095
18.0800,3.020
18.1200,2.913
18.1600,2.819
18.2000,2.931
18.2400,2.954
18.2800,2.973
18.3200,2.861
18.3600,2.944
18.4000,2.968
18.4400,2.827
18.4800,2.903
18.5200,2.922
18.5600,2.848
18.6000,2.927
18.6400,2.898
18.6800,2.784
18.7200,2.890
18.7600,2.908
18.8000,2.939
18.8400,2.899
18.8800,2.851
18.9200,2.882
18.9600,2.802
19.0000,2.824
19.0400,2.792
19.0800,2.876
19.1200,2.858
19.1600,2.808
19.2000,2.851
19.2400,2.955
19.2800,2.798
19.3200,2.787
19.3600,2.835
19.4000,2.788
19.4400,2.847
19.4800,2.712
19.5200,2.770
19.5600,2.755
19.6000,2.773
19.6400,2.711
19.6800,2.727
19.7200,2.715
19.7600,2.749
19.8000,2.778
19.8400,2.818
19.8800,2.736
19.9200,2.716
19.9600,2.841
20.0000,2.842
20.0400,2.771
20.0800,2.760
20.1200,2.754
20.1600,2.729
20.2000,2.681
20.2400,2.889
20.2800,2.772
20.3200,2.817
20.3600,2.754
20.4000,2.685
20.4400,2.753
20.4800,2.765
20.5200,2.763
20.5600,2.755
20.6000,2.680
20.6400,2.784
20.6800,2.742
20.7200,2.669
20.7600,2.782
20.8000,2.684
20.8400,2.677
20.8800,2.700
20.9200,2.780
20.9600,2.725
21.0000,2.841
21.0400,2.734
21.0800,2.637
21.1200,2.682
21.1600,2.654
21.2000,2.730
21.2400,2.634
21.2800,2.684
21.3200,2.734
21.3600,2.648
21.4000,2.689
21.4400,2.728
21.4800,2.702
21.5200,2.585
21.5600,2.727
21.6000,2.570
21.6400,2.688
21.6800,2.698
21.7200,2.608
21.7600,2.559
21.8000,2.576
21.8400,2.603
21.8800,2.698
21.9200,2.636
21.9600,2.595
22.0000,2.575
22.0400,2.670
22.0800,2.642
22.1200,2.642
22.1600,2.628
22.2000,2.722
22.2400,2.623
22.2800,2.558
22.3200,2.679
22.3600,2.548
22.4000,2.612
22.4400,2.583
22.4800,2.494
22.5200,2.607
22.5600,2.495
22.6000,2.736
22.6400,2.549
22.6800,2.575
22.7200,2.560
22.7600,2.600
22.8000,2.472
22.8400,2.665
22.8800,2.634
22.9200,2.545
22.9600,2.632
23.0000,2.532
23.0400,2.436
23.0800,2.573
23.1200,2.594
23.1600,2.578
23.2000,2.511
23.2400,2.573
23.2800,2.574
23.3200,2.524
23.3600,2.633
23.4000,2.576
23.4400,2.618
23.4800,2.500
23.5200,2.645
23.5600,2.641
23.6000,2.559
23.6400,2.570
23.6800,2.584
23.7200,2.588
23.7600,2.465
23.8000,2.527
23.8400,2.542
23.8800,2.503
23.9200,2.606
23.9600,2.580
24.0000,2.564
24.0400,2.553
24.0800,2.529
24.1200,2.493
24.1600,2.552
24.2000,2.551
24.2400,2.543
24.2800,2.559
24.3200,2.502
24.3600,2.600
24.4000,2.605
24.4400,2.564
24.4800,2.575
24.5200,2.551
24.5600,2.636
24.6000,2.496
24.6400,2.525
24.6800,2.545
24.7200,2.613
24.7600,2.551
24.8000,2.548
24.8400,2.564
24.8800,2.518
24.9200,2.555
24.9600,2.592
25.0000,2.528
25.0400,2.512
25.0800,2.606
25.1200,2.509
25.1600,2.460
25.2000,2.503
25.2400,2.545
25.2800,2.605
25.3200,2.561
25.3600,2.548
25.4000,2.509
25.4400,2.550
25.4800,2.561
25.5200,2.618
25.5600,2.510
25.6000,2.555
25.6400,2.657
25.6800,2.544
25.7200,2.575
25.7600,2.492
25.8000,2.572
25.8400,2.573
25.8800,2.591
25.9200,2.496
25.9600,2.605
26.0000,2.627
26.0400,2.593
26.0800,2.632
26.1200,2.544
26.1600,2.559
26.2000,2.533
26.2400,2.578
26.2800,2.578
26.3200,2.547
26.3600,2.530
26.4000,2.536
26.4400,2.536
26.4800,2.539
26.5200,2.635
26.5600,2.593
26.6000,2.629
26.6400,2.584
26.6800,2.552
26.7200,2.549
26.7600,2.573
26.8000,2.544
26.8400,2.507
26.8800,2.513
26.9200,2.478
26.9600,2.464
27.0000,2.543
27.0400,2.626
27.0800,2.602
27.1200,2.532
27.1600,2.444
27.2000,2.595
27.2400,2.498
27.2800,2.543
27.3200,2.583
27.3600,2.603
27.4000,2.585
27.4400,2.526
27.4800,2.422
27.5200,2.513
27.5600,2.493
27.6000,2.459
27.6400,2.470
27.6800,2.499
27.7200,2.467
27.7600,2.610
27.8000,2.620
27.8400,2.526
27.8800,2.587
27.9200,2.566
27.9600,2.531
28.0000,2.538
28.0400,2.472
28.0800,2.463
28.1200,2.563
28.1600,2.513
28.2000,2.545
28.2400,2.493
28.2800,2.596
28.3200,2.608
28.3600,2.519
28.4000,2.614
28.4400,2.612
28.4800,2.517
28.5200,2.576
28.5600,2.625
28.6000,2.569
28.6400,2.623
28.6800,2.583
28.7200,2.596
28.7600,2.619
28.8000,2.703
28.8400,2.602
28.8800,2.531
28.9200,2.479
28.9600,2.444
29.0000,2.482
29.0400,2.476
29.0800,2.488
29.1200,2.429
29.1600,2.467
29.2000,2.435
29.2400,2.331
29.2800,2.345
29.3200,2.338
29.3600,2.434
29.4000,2.435
29.4400,2.377
29.4800,2.408
29.5200,2.409
29.5600,2.417
29.6000,2.398
29.6400,2.369
29.6800,2.322
29.7200,2.199
29.7600,2.340
29.8000,2.222
29.8400,2.261
29.8800,2.280
29.9200,2.218
29.9600,2.279
30.0000,2.172
30.0400,2.259
30.0800,2.285
30.1200,2.179
30.1600,2.216
30.2000,2.162
30.2400,2.098
30.2800,2.195
30.3200,2.100
30.3600,2.120
30.4000,2.156
30.4400,2.136
30.4800,2.199
30.5200,2.060
30.5600,2.131
30.6000,2.097
30.6400,2.339
30.6800,2.749
30.7200,3.389
30.7600,3.193
30.8000,2.968
30.8400,2.595
30.8800,2.170
30.9200,2.024
30.9600,2.001
31.0000,1.973
31.0400,2.020
31.0800,1.964
31.1200,2.014
31.1600,1.949
31.2000,1.986
31.2400,1.936
31.2800,1.874
31.3200,1.893
31.3600,1.946
31.4000,1.959
31.4400,2.008
31.4800,2.035
31.5200,1.915
31.5600,2.000
31.6000,1.915
31.6400,2.007
31.6800,1.955
31.7200,1.966
31.7600,2.038
31.8000,1.938
31.8400,1.943
31.8800,2.029
31.9200,2.081
31.9600,2.137
32.0000,2.121
32.0400,2.366
32.0800,3.365
32.1200,3.912
32.1600,3.471
32.2000,3.023
32.2400,2.312
32.2800,1.966
32.3200,1.963
32.3600,1.955
32.4000,1.844
32.4400,1.879
32.4800,1.945
32.5200,1.965
32.5600,2.015
32.6000,1.905
32.6400,1.861
32.6800,1.950
32.7200,1.972
32.7600,1.957
32.8000,1.963
32.8400,1.941
32.8800,1.874
32.9200,2.031
32.9600,1.970
33.0000,1.971
33.0400,1.880
33.0800,1.908
33.1200,1.931
33.1600,1.952
33.2000,1.993
33.2400,1.965
33.2800,1.884
33.3200,1.981
33.3600,1.948
33.4000,1.832
33.4400,1.903
33.4800,1.937
33.5200,1.939
33.5600,1.939
33.6000,1.832
33.6400,1.977
33.6800,1.851
33.7200,1.899
33.7600,1.933
33.8000,1.865
33.8400,1.888
33.8800,1.872
33.9200,1.915
33.9600,1.879
34.0000,1.889
34.0400,1.954
34.0800,1.814
34.1200,1.801
34.1600,1.765
34.2000,1.774
34.2400,1.824
34.2800,1.875
34.3200,1.781
34.3600,1.748
34.4000,1.787
34.4400,1.670
34.4800,1.792
34.5200,1.741
34.5600,1.798
34.6000,1.777
34.6400,1.703
34.6800,1.756
34.7200,1.713
34.7600,1.823
34.8000,1.842
34.8400,1.792
34.8800,1.808
34.9200,1.712
34.9600,1.682
35.0000,1.694
35.0400,1.669
35.0800,1.616
35.1200,1.632
35.1600,1.683
35.2000,1.681
35.2400,1.657
35.2800,1.648
35.3200,1.597
35.3600,1.679
35.4000,1.539
35.4400,1.657
35.4800,1.667
35.5200,1.604
35.5600,1.739
35.6000,1.585
35.6400,1.623
35.6800,1.579
35.7200,1.609
35.7600,1.548
35.8000,1.574
35.8400,1.613
35.8800,1.484
35.9200,1.578
35.9600,1.553
36.0000,1.529
36.0400,1.622
36.0800,1.560
36.1200,1.570
36.1600,1.538
36.2000,1.551
36.2400,1.561
36.2800,1.550
36.3200,1.616
36.3600,1.612
36.4000,1.540
36.4400,1.514
36.4800,1.524
36.5200,1.556
36.5600,1.552
36.6000,1.549
36.6400,1.537
36.6800,1.518
36.7200,1.586
36.7600,1.489
36.8000,1.555
36.8400,1.456
36.8800,1.512
36.9200,1.505
36.9600,1.569
37.0000,1.562
37.0400,1.561
37.0800,1.484
37.1200,1.588
37.1600,1.479
37.2000,1.537
37.2400,1.472
37.2800,1.470
37.3200,1.448
37.3600,1.505
37.4000,1.527
37.4400,1.428
37.4800,1.523
37.5200,1.460
37.5600,1.504
37.6000,1.502
37.6400,1.472
37.6800,1.448
37.7200,1.421
37.7600,1.409
37.8000,1.484
37.8400,1.481
37.8800,1.452
37.9200,1.554
37.9600,1.523
38.0000,1.432
38.0400,1.401
38.0800,1.509
38.1200,1.445
38.1600,1.487
38.2000,1.441
38.2400,1.426
38.2800,1.513
38.3200,1.505
38.3600,1.403
38.4000,1.626
38.4400,1.746
38.4800,1.653
38.5200,1.561
38.5600,1.601
38.6000,1.461
38.6400,1.444
38.6800,1.490
38.7200,1.385
38.7600,1.413
38.8000,1.364
38.8400,1.368
38.8800,1.368
38.9200,1.319
38.9600,1.391
39.0000,1.398
39.0400,1.406
39.0800,1.348
39.1200,1.464
39.1600,1.378
39.2000,1.337
39.2400,1.319
39.2800,1.281
39.3200,1.382
39.3600,1.290
39.4000,1.320
39.4400,1.384
39.4800,1.349
39.5200,1.268
39.5600,1.296
39.6000,1.316
39.6400,1.239
39.6800,1.326
39.7200,1.311
39.7600,1.349
39.8000,1.303
39.8400,1.342
39.8800,1.365
39.9200,1.293
39.9600,1.340
40.0000,1.315
40.0400,1.201
40.0800,1.301
40.1200,1.293
40.1600,1.294
40.2000,1.233
40.2400,1.235
40.2800,1.281
40.3200,1.276
40.3600,1.216
40.4000,1.209
40.4400,1.306
40.4800,1.207
40.5200,1.203
40.5600,1.259
40.6000,1.283
40.6400,1.236
40.6800,1.225
40.7200,1.273
40.7600,1.222
40.8000,1.259
40.8400,1.235
40.8800,1.249
40.9200,1.211
40.9600,1.306
41.0000,1.218
41.0400,1.178
41.0800,1.232
41.1200,1.201
41.1600,1.262
41.2000,1.207
41.2400,1.212
41.2800,1.199
41.3200,1.233
41.3600,1.158
41.4000,1.273
41.4400,1.206
41.4800,1.128
41.5200,1.295
41.5600,1.165
41.6000,1.185
41.6400,1.159
41.6800,1.210
41.7200,1.221
41.7600,1.186
41.8000,1.246
41.8400,1.157
41.8800,1.146
41.9200,1.186
41.9600,1.174
42.0000,1.208
42.0400,1.162
42.0800,1.251
42.1200,1.200
42.1600,1.150
42.2000,1.152
42.2400,1.135
42.2800,1.139
42.3200,1.170
42.3600,1.198
42.4000,1.178
42.4400,1.178
42.4800,1.224
42.5200,1.199
42.5600,1.155
42.6000,1.100
42.6400,1.210
42.6800,1.136
42.7200,1.223
42.7600,1.175
42.8000,1.156
42.8400,1.118
42.8800,1.163
42.9200,1.066
42.9600,1.121
43.0000,1.135
43.0400,1.146
43.0800,1.135
43.1200,1.131
43.1600,1.179
43.2000,1.160
43.2400,1.173
43.2800,1.093
43.3200,1.166
43.3600,1.154
43.4000,1.144
43.4400,1.065
43.4800,1.077
43.5200,1.085
43.5600,1.173
43.6000,1.099
43.6400,1.135
43.6800,1.131
43.7200,1.199
43.7600,1.153
43.8000,1.119
43.8400,1.145
43.8800,1.138
43.9200,1.303
43.9600,1.544
44.0000,1.471
44.0400,1.383
44.0800,1.337
44.1200,1.312
44.1600,1.216
44.2000,1.120
44.2400,1.081
44.2800,1.092
44.3200,1.070
44.3600,1.090
44.4000,1.085
44.4400,1.053
44.4800,1.077
44.5200,1.037
44.5600,1.150
44.6000,1.090
44.6400,1.029
44.6800,0.990
44.7200,1.100
44.7600,1.046
44.8000,1.060
44.8400,1.057
44.8800,1.063
44.9200,1.297
44.9600,1.697
45.0000,2.025
45.0400,1.835
45.0800,1.523
45.1200,1.651
45.1600,1.522
45.2000,1.173
45.2400,1.066
45.2800,1.039
45.3200,1.089
45.3600,1.105
45.4000,1.059
45.4400,1.109
45.4800,1.057
45.5200,1.040
45.5600,1.006
45.6000,1.080
45.6400,1.016
45.6800,1.046
45.7200,1.009
45.7600,1.048
45.8000,1.025
45.8400,1.052
45.8800,1.035
45.9200,0.996
45.9600,1.033
46.0000,0.989
46.0400,1.005
46.0800,0.971
46.1200,1.023
46.1600,0.990
46.2000,1.044
46.2400,0.969
46.2800,1.000
46.3200,1.006
46.3600,1.005
46.4000,1.021
46.4400,0.964
46.4800,0.935
46.5200,0.914
46.5600,0.924
46.6000,0.972
46.6400,0.981
46.6800,0.990
46.7200,0.940
46.7600,1.001
46.8000,1.014
46.8400,0.978
46.8800,1.002
46.9200,0.920
46.9600,0.962
47.0000,0.910
47.0400,0.888
47.0800,1.039
47.1200,0.963
47.1600,1.007
47.2000,1.014
47.2400,1.018
47.2800,0.928
47.3200,0.947
47.3600,0.934
47.4000,0.980
47.4400,1.006
47.4800,0.941
47.5200,0.992
47.5600,0.911
47.6000,0.916
47.6400,0.923
47.6800,0.984
47.7200,0.906
47.7600,0.907
47.8000,0.946
47.8400,0.913
47.8800,0.974
47.9200,1.051
47.9600,0.992
48.0000,0.978
48.0400,0.962
48.0800,1.019
48.1200,0.999
48.1600,0.981
48.2000,0.949
48.2400,0.920
48.2800,0.935
48.3200,0.936
48.3600,0.933
48.4000,0.955
48.4400,0.934
48.4800,0.924
48.5200,0.941
48.5600,0.918
48.6000,0.987
48.6400,0.922
48.6800,0.919
48.7200,0.894
48.7600,0.921
48.8000,0.916
48.8400,0.899
48.8800,0.908
48.9200,0.927
48.9600,0.858
49.0000,0.942
49.0400,0.920
49.0800,0.898
49.1200,0.960
49.1600,0.892
49.2000,0.855
49.2400,0.925
49.2800,0.868
49.3200,0.904
49.3600,0.927
49.4000,0.925
49.4400,0.869
49.4800,0.901
49.5200,0.996
49.5600,0.890
49.6000,0.958
49.6400,1.003
49.6800,0.962
49.7200,0.874
49.7600,0.938
49.8000,0.967
49.8400,0.983
49.8800,0.937
49.9200,0.980
49.9600,1.008
50.0000,0.973
50.0400,0.973
50.0800,0.955
50.1200,0.949
50.1600,1.038
50.2000,0.963
50.2400,0.936
50.2800,0.936
50.3200,0.919
50.3600,0.980
50.4000,0.943
50.4400,0.969
50.4800,0.964
50.5200,0.948
50.5600,0.979
50.6000,0.972
50.6400,1.062
50.6800,0.951
50.7200,0.990
50.7600,0.930
50.8000,1.008
50.8400,0.973
50.8800,1.050
50.9200,1.020
50.9600,1.027
51.0000,1.029
51.0400,0.989
51.0800,0.982
51.1200,0.965
51.1600,0.992
51.2000,0.958
51.2400,1.026
51.2800,1.000
51.3200,0.936
51.3600,0.946
51.4000,0.934
51.4400,0.996
51.4800,0.935
51.5200,0.985
51.5600,0.913
51.6000,0.913
51.6400,0.914
51.6800,0.962
51.7200,0.968
51.7600,0.966
51.8000,0.997
51.8400,0.984
51.8800,1.025
51.9200,0.982
51.9600,0.959
52.0000,0.945
52.0400,0.905
52.0800,0.923
52.1200,0.968
52.1600,0.919
52.2000,0.923
52.2400,0.977
52.2800,0.940
52.3200,0.978
52.3600,0.902
52.4000,0.914
52.4400,0.886
52.4800,0.928
52.5200,0.901
52.5600,0.905
52.6000,0.843
52.6400,0.856
52.6800,0.911
52.7200,0.928
52.7600,0.913
52.8000,0.884
52.8400,0.860
52.8800,0.856
52.9200,0.853
52.9600,0.826
53.0000,0.844
53.0400,0.866
53.0800,0.814
53.1200,0.878
53.1600,0.830
53.2000,0.849
53.2400,0.812
53.2800,0.859
53.3200,0.876
53.3600,0.820
53.4000,0.844
53.4400,0.856
53.4800,0.849
53.5200,0.831
53.5600,0.873
53.6000,0.785
53.6400,0.830
53.6800,0.829
53.7200,0.818
53.7600,0.848
53.8000,0.790
53.8400,0.785
53.8800,0.814
53.9200,0.791
53.9600,0.749
54.0000,0.791
54.0400,0.794
54.0800,0.732
54.1200,0.806
54.1600,0.765
54.2000,0.767
54.2400,0.805
54.2800,0.757
54.3200,0.793
54.3600,0.785
54.4000,0.810
54.4400,0.692
54.4800,0.761
54.5200,0.789
54.5600,0.757
54.6000,0.735
54.6400,0.747
54.6800,0.754
54.7200,0.727
54.7600,0.730
54.8000,0.723
54.8400,0.705
54.8800,0.729
54.9200,0.736
54.9600,0.806
55.0000,0.721
55.0400,0.715
55.0800,0.770
55.1200,0.750
55.1600,0.789
55.2000,0.752
55.2400,0.736
55.2800,0.732
55.3200,0.806
55.3600,0.789
55.4000,0.843
55.4400,0.819
55.4800,0.844
55.5200,0.765
55.5600,0.827
55.6000,0.811
55.6400,0.800
55.6800,0.755
55.7200,0.768
55.7600,0.757
55.8000,0.713
55.8400,0.738
55.8800,0.672
55.9200,0.754
55.9600,0.742
56.0000,0.691
56.0400,0.698
56.0800,0.694
56.1200,0.687
56.1600,0.687
56.2000,0.682
56.2400,0.663
56.2800,0.678
56.3200,0.690
56.3600,0.725
56.4000,0.765
56.4400,0.703
56.4800,0.729
56.5200,0.679
56.5600,0.680
56.6000,0.683
56.6400,0.687
56.6800,0.691
56.7200,0.743
56.7600,0.708
56.8000,0.699
56.8400,0.638
56.8800,0.636
56.9200,0.619
56.9600,0.655
57.0000,0.690
57.0400,0.664
57.0800,0.634
57.1200,0.658
57.1600,0.697
57.2000,0.653
57.2400,0.657
57.2800,0.716
57.3200,0.640
57.3600,0.646
57.4000,0.742
57.4400,0.667
57.4800,0.687
57.5200,0.688
57.5600,0.719
57.6000,0.722
57.6400,0.684
57.6800,0.651
57.7200,0.672
57.7600,0.600
57.8000,0.648
57.8400,0.632
57.8800,0.637
57.9200,0.674
57.9600,0.667
58.0000,0.662
58.0400,0.632
58.0800,0.720
58.1200,0.684
58.1600,0.684
58.2000,0.648
58.2400,0.656
58.2800,0.699
58.3200,0.628
58.3600,0.684
58.4000,0.626
58.4400,0.650
58.4800,0.627
58.5200,0.581
58.5600,0.661
58.6000,0.648
58.6400,0.651
58.6800,0.634
58.7200,0.666
58.7600,0.597
58.8000,0.572
58.8400,0.652
58.8800,0.661
58.9200,0.686
58.9600,0.660
59.0000,0.602
59.0400,0.633
59.0800,0.637
59.1200,0.630
59.1600,0.626
59.2000,0.637
59.2400,0.670
59.2800,0.638
59.3200,0.624
59.3600,0.626
59.4000,0.658
59.4400,0.657
59.4800,0.603
59.5200,0.645
59.5600,0.623
59.6000,0.602
59.6400,0.599
59.6800,0.676
59.7200,0.650
59.7600,0.639
59.8000,0.630
59.8400,0.584
59.8800,0.612
59.9200,0.646
59.9600,0.576
60.0000,0.597
60.0400,0.633
60.0800,0.591
60.1200,0.590
60.1600,0.631
60.2000,0.614
60.2400,0.633
60.2800,0.591
60.3200,0.555
60.3600,0.589
60.4000,0.617
60.4400,0.615
60.4800,0.604
60.5200,0.606
60.5600,0.607
60.6000,0.583
60.6400,0.608
60.6800,0.591
60.7200,0.631
60.7600,0.561
60.8000,0.591
60.8400,0.577
60.8800,0.643
60.9200,0.597
60.9600,0.579
61.0000,0.592
61.0400,0.621
61.0800,0.580
61.1200,0.636
61.1600,0.604
61.2000,0.609
61.2400,0.627
61.2800,0.578
61.3200,0.621
61.3600,0.591
61.4000,0.597
61.4400,0.598
61.4800,0.522
61.5200,0.531
61.5600,0.547
61.6000,0.573
61.6400,0.581
61.6800,0.584
61.7200,0.568
61.7600,0.561
61.8000,0.519
61.8400,0.552
61.8800,0.567
61.9200,0.578
61.9600,0.572
62.0000,0.591
62.0400,0.580
62.0800,0.546
62.1200,0.616
62.1600,0.595
62.2000,0.537
62.2400,0.517
62.2800,0.544
62.3200,0.588
62.3600,0.608
62.4000,0.554
62.4400,0.540
62.4800,0.566
62.5200,0.613
62.5600,0.665
62.6000,0.817
62.6400,0.766
62.6800,0.668
62.7200,0.633
62.7600,0.656
62.8000,0.671
62.8400,0.646
62.8800,0.588
62.9200,0.510
62.9600,0.584
63.0000,0.550
63.0400,0.503
63.0800,0.543
63.1200,0.532
63.1600,0.537
63.2000,0.563
63.2400,0.531
63.2800,0.562
63.3200,0.522
63.3600,0.511
63.4000,0.505
63.4400,0.512
63.4800,0.497
63.5200,0.547
63.5600,0.571
63.6000,0.502
63.6400,0.548
63.6800,0.482
63.7200,0.542
63.7600,0.528
63.8000,0.563
63.8400,0.525
63.8800,0.614
63.9200,0.573
63.9600,0.572
64.0000,0.559
64.0400,0.529
64.0800,0.598
64.1200,0.510
64.1600,0.535
64.2000,0.518
64.2400,0.542
64.2800,0.521
64.3200,0.528
64.3600,0.498
64.4000,0.523
64.4400,0.505
64.4800,0.515
64.5200,0.517
64.5600,0.525
64.6000,0.562
64.6400,0.617
64.6800,0.678
64.7200,0.642
64.7600,0.590
64.8000,0.555
64.8400,0.603
64.8800,0.618
64.9200,0.588
64.9600,0.495
65.0000,0.511
65.0400,0.509
65.0800,0.512
65.1200,0.517
65.1600,0.473
65.2000,0.486
65.2400,0.476
65.2800,0.474
65.3200,0.492
65.3600,0.481
65.4000,0.465
65.4400,0.465
65.4800,0.498
65.5200,0.507
65.5600,0.493
65.6000,0.474
65.6400,0.525
65.6800,0.478
65.7200,0.460
65.7600,0.460
65.8000,0.479
65.8400,0.522
65.8800,0.510
65.9200,0.477
65.9600,0.445
66.0000,0.470
66.0400,0.477
66.0800,0.486
66.1200,0.482
66.1600,0.471
66.2000,0.470
66.2400,0.462
66.2800,0.455
66.3200,0.448
66.3600,0.479
66.4000,0.456
66.4400,0.458
66.4800,0.441
66.5200,0.421
66.5600,0.409
66.6000,0.454
66.6400,0.456
66.6800,0.506
66.7200,0.442
66.7600,0.459
66.8000,0.456
66.8400,0.477
66.8800,0.461
66.9200,0.403
66.9600,0.417
67.0000,0.403
67.0400,0.424
67.0800,0.452
67.1200,0.454
67.1600,0.447
67.2000,0.449
67.2400,0.472
67.2800,0.425
67.3200,0.386
67.3600,0.410
67.4000,0.420
67.4400,0.457
67.4800,0.421
67.5200,0.418
67.5600,0.427
67.6000,0.455
67.6400,0.434
67.6800,0.459
67.7200,0.422
67.7600,0.438
67.8000,0.427
67.8400,0.430
67.8800,0.392
67.9200,0.388
67.9600,0.428
68.0000,0.380
68.0400,0.410
68.0800,0.432
68.1200,0.380
68.1600,0.394
68.2000,0.444
68.2400,0.419
68.2800,0.382
68.3200,0.437
68.3600,0.386
68.4000,0.411
68.4400,0.433
68.4800,0.378
68.5200,0.364
68.5600,0.413
68.6000,0.427
68.6400,0.394
68.6800,0.414
68.7200,0.442
68.7600,0.416
68.8000,0.397
68.8400,0.408
68.8800,0.400
68.9200,0.391
68.9600,0.404
69.0000,0.423
69.0400,0.373
69.0800,0.410
69.1200,0.387
69.1600,0.419
69.2000,0.424
69.2400,0.360
69.2800,0.403
69.3200,0.396
69.3600,0.390
69.4000,0.411
69.4400,0.379
69.4800,0.385
69.5200,0.395
69.5600,0.366
69.6000,0.428
69.6400,0.405
69.6800,0.355
69.7200,0.409
69.7600,0.390
69.8000,0.399
69.8400,0.412
69.8800,0.372
69.9200,0.417
69.9600,0.370
70.0000,0.363
70.0400,0.391
70.0800,0.426
70.1200,0.386
70.1600,0.406
70.2000,0.371
70.2400,0.383
70.2800,0.382
70.3200,0.366
70.3600,0.378
70.4000,0.360
70.4400,0.373
70.4800,0.384
70.5200,0.389
70.5600,0.364
70.6000,0.350
70.6400,0.376
70.6800,0.347
70.7200,0.344
70.7600,0.385
70.8000,0.367
70.8400,0.361
70.8800,0.360
70.9200,0.370
70.9600,0.407
71.0000,0.396
71.0400,0.361
71.0800,0.352
71.1200,0.381
71.1600,0.341
71.2000,0.391
71.2400,0.357
71.2800,0.365
71.3200,0.381
71.3600,0.359
71.4000,0.395
71.4400,0.387
71.4800,0.366
71.5200,0.367
71.5600,0.371
71.6000,0.381
71.6400,0.376
71.6800,0.389
71.7200,0.395
71.7600,0.404
71.8000,0.368
71.8400,0.385
71.8800,0.397
71.9200,0.370
71.9600,0.392
72.0000,0.368
72.0400,0.366
72.0800,0.380
72.1200,0.365
72.1600,0.408
72.2000,0.367
72.2400,0.321
72.2800,0.348
72.3200,0.381
72.3600,0.352
72.4000,0.341
72.4400,0.390
72.4800,0.382
72.5200,0.441
72.5600,0.423
72.6000,0.390
72.6400,0.380
72.6800,0.390
72.7200,0.413
72.7600,0.352
72.8000,0.359
72.8400,0.337
72.8800,0.342
72.9200,0.367
72.9600,0.349
73.0000,0.345
73.0400,0.379
73.0800,0.333
73.1200,0.353
73.1600,0.372
73.2000,0.403
73.2400,0.413
73.2800,0.454
73.3200,0.410
73.3600,0.381
73.4000,0.346
73.4400,0.357
73.4800,0.343
73.5200,0.383
73.5600,0.411
73.6000,0.344
73.6400,0.314
73.6800,0.322
73.7200,0.330
73.7600,0.306
73.8000,0.373
73.8400,0.350
73.8800,0.319
73.9200,0.338
73.9600,0.332
74.0000,0.325
74.0400,0.317
74.0800,0.313
74.1200,0.319
74.1600,0.352
74.2000,0.340
74.2400,0.333
74.2800,0.324
74.3200,0.361
74.3600,0.333
74.4000,0.327
74.4400,0.318
74.4800,0.332
74.5200,0.359
74.5600,0.303
74.6000,0.346
74.6400,0.318
74.6800,0.344
74.7200,0.341
74.7600,0.313
74.8000,0.336
74.8400,0.322
74.8800,0.344
74.9200,0.321
74.9600,0.339
75.0000,0.345
75.0400,0.305
75.0800,0.343
75.1200,0.314
75.1600,0.309
75.2000,0.320
75.2400,0.340
75.2800,0.315
75.3200,0.353
75.3600,0.330
75.4000,0.326
75.4400,0.305
75.4800,0.328
75.5200,0.350
75.5600,0.323
75.6000,0.348
75.6400,0.341
75.6800,0.382
75.7200,0.333
75.7600,0.341
75.8000,0.331
75.8400,0.326
75.8800,0.323
75.9200,0.309
75.9600,0.346
76.0000,0.354
76.0400,0.341
76.0800,0.368
76.1200,0.341
76.1600,0.341
76.2000,0.337
76.2400,0.327
76.2800,0.343
76.3200,0.326
76.3600,0.340
76.4000,0.309
76.4400,0.345
76.4800,0.304
76.5200,0.302
76.5600,0.325
76.6000,0.353
76.6400,0.310
76.6800,0.363
76.7200,0.336
76.7600,0.337
76.8000,0.333
76.8400,0.364
76.8800,0.309
76.9200,0.342
76.9600,0.332
77.0000,0.343
77.0400,0.326
77.0800,0.287
77.1200,0.315
77.1600,0.294
77.2000,0.294
77.2400,0.303
77.2800,0.326
77.3200,0.317
77.3600,0.324
77.4000,0.290
77.4400,0.335
77.4800,0.314
77.5200,0.339
77.5600,0.345
77.6000,0.321
77.6400,0.346
77.6800,0.329
77.7200,0.344
77.7600,0.316
77.8000,0.320
77.8400,0.344
77.8800,0.337
77.9200,0.339
77.9600,0.359
78.0000,0.322
78.0400,0.347
78.0800,0.332
78.1200,0.336
78.1600,0.332
78.2000,0.309
78.2400,0.330
78.2800,0.343
78.3200,0.322
78.3600,0.323
78.4000,0.320
78.4400,0.336
78.4800,0.319
78.5200,0.329
78.5600,0.306
78.6000,0.328
78.6400,0.356
78.6800,0.349
78.7200,0.301
78.7600,0.350
78.8000,0.331
78.8400,0.367
78.8800,0.297
78.9200,0.355
78.9600,0.329
79.0000,0.348
79.0400,0.341
79.0800,0.341
79.1200,0.309
79.1600,0.321
79.2000,0.335
79.2400,0.343
79.2800,0.331
79.3200,0.328
79.3600,0.350
79.4000,0.338
79.4400,0.330
79.4800,0.352
79.5200,0.353
79.5600,0.400
79.6000,0.496
79.6400,0.452
79.6800,0.405
79.7200,0.372
79.7600,0.365
79.8000,0.374
79.8400,0.415
79.8800,0.379
79.9200,0.370
79.9600,0.346
80.0000,0.328
