theta,intensity
5.0000,2.684
5.0400,2.780
5.0800,2.814
5.1200,2.819
5.1600,2.772
5.2000,2.783
5.2400,2.700
5.2800,2.708
5.3200,2.613
5.3600,2.513
5.4000,2.652
5.4400,2.545
5.4800,2.463
5.5200,2.441
5.5600,2.361
5.6000,2.532
5.6400,2.440
5.6800,2.376
5.7200,2.374
5.7600,2.364
5.8000,2.328
5.8400,2.289
5.8800,2.231
5.9200,2.162
5.9600,2.165
6.0000,2.167
6.0400,2.120
6.0800,2.072
6.1200,2.083
6.1600,2.085
6.2000,2.010
6.2400,1.982
6.2800,1.943
6.3200,1.950
6.3600,1.924
6.4000,1.961
6.4400,1.857
6.4800,1.868
6.5200,1.853
6.5600,1.833
6.6000,1.774
6.6400,1.729
6.6800,1.771
6.7200,1.718
6.7600,1.692
6.8000,1.687
6.8400,1.685
6.8800,1.646
6.9200,1.625
6.9600,1.587
7.0000,1.635
7.0400,1.516
7.0800,1.543
7.1200,1.577
7.1600,1.554
7.2000,1.604
7.2400,1.570
7.2800,1.556
7.3200,1.553
7.3600,1.538
7.4000,1.519
7.4400,1.517
7.4800,1.513
7.5200,1.527
7.5600,1.525
7.6000,1.460
7.6400,1.495
7.6800,1.520
7.7200,1.468
7.7600,1.509
7.8000,1.440
7.8400,1.462
7.8800,1.502
7.9200,1.447
7.9600,1.510
8.0000,1.446
8.0400,1.495
8.0800,1.505
8.1200,1.497
8.1600,1.434
8.2000,1.441
8.2400,1.435
8.2800,1.498
8.3200,1.494
8.3600,1.443
8.4000,1.432
8.4400,1.487
8.4800,1.470
8.5200,1.454
8.5600,1.381
8.6000,1.425
8.6400,1.483
8.6800,1.428
8.7200,1.442
8.7600,1.438
8.8000,1.464
8.8400,1.439
8.8800,1.427
8.9200,1.438
8.9600,1.427
9.0000,1.451
9.0400,1.430
9.0800,1.438
9.1200,1.461
9.1600,1.452
9.2000,1.476
9.2400,1.436
9.2800,1.403
9.3200,1.384
9.3600,1.419
9.4000,1.375
9.4400,1.373
9.4800,1.461
9.5200,1.428
9.5600,1.392
9.6000,1.432
9.6400,1.402
9.6800,1.418
9.7200,1.430
9.7600,1.411
9.8000,1.424
9.8400,1.390
9.8800,1.402
9.9200,1.434
9.9600,1.363
10.0000,1.412
10.0400,1.437
10.0800,1.405
10.1200,1.414
10.1600,1.431
10.2000,1.400
10.2400,1.429
10.2800,1.371
10.3200,1.466
10.3600,1.420
10.4000,1.354
10.4400,1.379
10.4800,1.413
10.5200,1.361
10.5600,1.388
10.6000,1.415
10.6400,1.380
10.6800,1.426
10.7200,1.339
10.7600,1.374
10.8000,1.392
10.8400,1.369
10.8800,1.371
10.9200,1.347
10.9600,1.380
11.0000,1.368
11.0400,1.372
11.0800,1.403
11.1200,1.397
11.1600,1.332
11.2000,1.377
11.2400,1.358
11.2800,1.373
11.3200,1.379
11.3600,1.377
11.4000,1.402
11.4400,1.330
11.4800,1.388
11.5200,1.433
11.5600,1.404
11.6000,1.312
11.6400,1.328
11.6800,1.360
11.7200,1.324
11.7600,1.301
11.8000,1.330
11.8400,1.365
11.8800,1.338
11.9200,1.327
11.9600,1.350
12.0000,1.343
12.0400,1.355
12.0800,1.365
12.1200,1.306
12.1600,1.339
12.2000,1.319
12.2400,1.335
12.2800,1.350
12.3200,1.352
12.3600,1.327
12.4000,1.292
12.4400,1.347
12.4800,1.332
12.5200,1.318
12.5600,1.351
12.6000,1.359
12.6400,1.329
12.6800,1.332
12.7200,1.322
12.7600,1.311
12.8000,1.296
12.8400,1.321
12.8800,1.304
12.9200,1.320
12.9600,1.341
13.0000,1.327
13.0400,1.325
13.0800,1.344
13.1200,1.282
13.1600,1.301
13.2000,1.338
13.2400,1.315
13.2800,1.305
13.3200,1.297
13.3600,1.276
13.4000,1.283
13.4400,1.279
13.4800,1.337
13.5200,1.267
13.5600,1.269
13.6000,1.201
13.6400,1.310
13.6800,1.293
13.7200,1.274
13.7600,1.268
13.8000,1.308
13.8400,1.310
13.8800,1.286
13.9200,1.303
13.9600,1.279
14.0000,1.299
14.0400,1.270
14.0800,1.252
14.1200,1.308
14.1600,1.275
14.2000,1.294
14.2400,1.242
14.2800,1.253
14.3200,1.297
14.3600,1.265
14.4000,1.256
14.4400,1.218
14.4800,1.233
14.5200,1.240
14.5600,1.262
14.6000,1.240
14.6400,1.232
14.6800,1.278
14.7200,1.259
14.7600,1.280
14.8000,1.234
14.8400,1.269
14.8800,1.230
14.9200,1.289
14.9600,1.251
15.0000,1.225
15.0400,1.207
15.0800,1.261
15.1200,1.253
15.1600,1.226
15.2000,1.261
15.2400,1.217
15.2800,1.247
15.3200,1.293
15.3600,1.282
15.4000,1.254
15.4400,1.236
15.4800,1.240
15.5200,1.228
15.5600,1.223
15.6000,1.247
15.6400,1.259
15.6800,1.258
15.7200,1.209
15.7600,1.267
15.8000,1.252
15.8400,1.196
15.8800,1.268
15.9200,1.249
15.9600,1.268
16.0000,1.281
16.0400,1.259
16.0800,1.201
16.1200,1.232
16.1600,1.234
16.2000,1.240
16.2400,1.239
16.2800,1.223
16.3200,1.262
16.3600,1.274
16.4000,1.198
16.4400,1.248
16.4800,1.219
16.5200,1.276
16.5600,1.223
16.6000,1.233
16.6400,1.216
16.6800,1.245
16.7200,1.225
16.7600,1.224
16.8000,1.218
16.8400,1.204
16.8800,1.216
16.9200,1.214
16.9600,1.209
17.0000,1.257
17.0400,1.275
17.0800,1.197
17.1200,1.226
17.1600,1.213
17.2000,1.194
17.2400,1.218
17.2800,1.244
17.3200,1.207
17.3600,1.218
17.4000,1.227
17.4400,1.244
17.4800,1.239
17.5200,1.190
17.5600,1.230
17.6000,1.265
17.6400,1.156
17.6800,1.229
17.7200,1.172
17.7600,1.222
17.8000,1.228
17.8400,1.194
17.8800,1.208
17.9200,1.225
17.9600,1.239
18.0000,1.183
18.0400,1.228
18.0800,1.182
18.1200,1.189
18.1600,1.204
18.2000,1.169
18.2400,1.140
18.2800,1.186
18.3200,1.204
18.3600,1.173
18.4000,1.228
18.4400,1.223
18.4800,1.183
18.5200,1.198
18.5600,1.224
18.6000,1.236
18.6400,1.171
18.6800,1.187
18.7200,1.191
18.7600,1.222
18.8000,1.206
18.8400,1.186
18.8800,1.191
18.9200,1.227
18.9600,1.193
19.0000,1.196
19.0400,1.174
19.0800,1.164
19.1200,1.203
19.1600,1.235
19.2000,1.149
19.2400,1.208
19.2800,1.195
19.3200,1.180
19.3600,1.218
19.4000,1.180
19.4400,1.214
19.4800,1.255
19.5200,1.196
19.5600,1.225
19.6000,1.239
19.6400,1.247
19.6800,1.246
19.7200,1.218
19.7600,1.226
19.8000,1.182
19.8400,1.175
19.8800,1.165
19.9200,1.246
19.9600,1.208
20.0000,1.212
20.0400,1.203
20.0800,1.180
20.1200,1.196
20.1600,1.226
20.2000,1.188
20.2400,1.209
20.2800,1.203
20.3200,1.217
20.3600,1.180
20.4000,1.144
20.4400,1.162
20.4800,1.169
20.5200,1.176
20.5600,1.154
20.6000,1.220
20.6400,1.151
20.6800,1.182
20.7200,1.222
20.7600,1.141
20.8000,1.125
20.8400,1.122
20.8800,1.193
20.9200,1.140
20.9600,1.201
21.0000,1.149
21.0400,1.182
21.0800,1.193
21.1200,1.159
21.1600,1.158
21.2000,1.133
21.2400,1.155
21.2800,1.165
21.3200,1.107
21.3600,1.148
21.4000,1.125
21.4400,1.159
21.4800,1.144
21.5200,1.180
21.5600,1.187
21.6000,1.131
21.6400,1.092
21.6800,1.150
21.7200,1.132
21.7600,1.126
21.8000,1.128
21.8400,1.142
21.8800,1.160
21.9200,1.118
21.9600,1.093
22.0000,1.159
22.0400,1.145
22.0800,1.185
22.1200,1.133
22.1600,1.097
22.2000,1.165
22.2400,1.144
22.2800,1.107
22.3200,1.122
22.3600,1.087
22.4000,1.092
22.4400,1.150
22.4800,1.083
22.5200,1.093
22.5600,1.118
22.6000,1.067
22.6400,1.103
22.6800,1.157
22.7200,1.158
22.7600,1.143
22.8000,1.133
22.8400,1.119
22.8800,1.126
22.9200,1.164
22.9600,1.104
23.0000,1.090
23.0400,1.070
23.0800,1.055
23.1200,1.089
23.1600,1.117
23.2000,1.092
23.2400,1.030
23.2800,1.116
23.3200,1.125
23.3600,1.074
23.4000,1.079
23.4400,1.049
23.4800,1.076
23.5200,1.085
23.5600,1.082
23.6000,1.080
23.6400,1.090
23.6800,1.082
23.7200,1.025
23.7600,1.101
23.8000,1.053
23.8400,1.068
23.8800,1.051
23.9200,1.041
23.9600,1.079
24.0000,1.105
24.0400,1.072
24.0800,1.042
24.1200,1.078
24.1600,1.059
24.2000,1.076
24.2400,1.059
24.2800,1.037
24.3200,1.056
24.3600,1.058
24.4000,1.044
24.4400,1.038
24.4800,1.040
24.5200,1.058
24.5600,1.069
24.6000,1.044
24.6400,1.068
24.6800,1.017
24.7200,1.010
24.7600,1.039
24.8000,1.014
24.8400,0.983
24.8800,1.017
24.9200,1.031
24.9600,1.016
25.0000,0.990
25.0400,1.007
25.0800,1.003
25.1200,1.027
25.1600,1.038
25.2000,1.012
25.2400,0.994
25.2800,0.976
25.3200,1.000
25.3600,1.001
25.4000,1.000
25.4400,0.986
25.4800,0.970
25.5200,0.985
25.5600,1.038
25.6000,0.978
25.6400,0.927
25.6800,0.988
25.7200,0.931
25.7600,0.992
25.8000,0.957
25.8400,0.894
25.8800,0.931
25.9200,0.969
25.9600,0.920
26.0000,0.933
26.0400,0.924
26.0800,0.935
26.1200,0.901
26.1600,0.883
26.2000,0.955
26.2400,0.940
26.2800,0.947
26.3200,0.900
26.3600,0.888
26.4000,0.908
26.4400,0.928
26.4800,0.910
26.5200,0.848
26.5600,0.861
26.6000,0.819
26.6400,0.858
26.6800,0.877
26.7200,0.865
26.7600,0.850
26.8000,0.874
26.8400,0.894
26.8800,0.872
26.9200,0.866
26.9600,0.876
27.0000,0.811
27.0400,0.848
27.0800,0.853
27.1200,0.860
27.1600,0.829
27.2000,0.853
27.2400,0.806
27.2800,0.850
27.3200,0.843
27.3600,0.802
27.4000,0.817
27.4400,0.863
27.4800,0.830
27.5200,0.823
27.5600,0.850
27.6000,0.818
27.6400,0.828
27.6800,0.782
27.7200,0.737
27.7600,0.825
27.8000,0.819
27.8400,0.828
27.8800,0.789
27.9200,0.825
27.9600,0.845
28.0000,0.794
28.0400,0.816
28.0800,0.784
28.1200,0.804
28.1600,0.817
28.2000,0.791
28.2400,0.789
28.2800,0.789
28.3200,0.764
28.3600,0.782
28.4000,0.773
28.4400,0.745
28.4800,0.794
28.5200,0.769
28.5600,0.783
28.6000,0.783
28.6400,0.758
28.6800,0.759
28.7200,0.749
28.7600,0.788
28.8000,0.740
28.8400,0.791
28.8800,0.747
28.9200,0.770
28.9600,0.764
29.0000,0.756
29.0400,0.787
29.0800,0.763
29.1200,0.780
29.1600,0.775
29.2000,0.744
29.2400,0.758
29.2800,0.719
29.3200,0.767
29.3600,0.754
29.4000,0.682
29.4400,0.763
29.4800,0.729
29.5200,0.723
29.5600,0.710
29.6000,0.772
29.6400,0.729
29.6800,0.721
29.7200,0.759
29.7600,0.721
29.8000,0.743
29.8400,0.727
29.8800,0.712
29.9200,0.731
29.9600,0.774
30.0000,0.768
30.0400,0.782
30.0800,0.789
30.1200,0.824
30.1600,0.854
30.2000,0.876
30.2400,0.864
30.2800,0.823
30.3200,0.877
30.3600,0.826
30.4000,0.761
30.4400,0.721
30.4800,0.742
30.5200,0.697
30.5600,0.732
30.6000,0.717
30.6400,0.700
30.6800,0.717
30.7200,0.644
30.7600,0.672
30.8000,0.669
30.8400,0.711
30.8800,0.709
30.9200,0.683
30.9600,0.667
31.0000,0.658
31.0400,0.690
31.0800,0.655
31.1200,0.665
31.1600,0.681
31.2000,0.674
31.2400,0.654
31.2800,0.677
31.3200,0.683
31.3600,0.637
31.4000,0.666
31.4400,0.690
31.4800,0.697
31.5200,0.654
31.5600,0.715
31.6000,0.644
31.6400,0.659
31.6800,0.655
31.7200,0.683
31.7600,0.635
31.8000,0.683
31.8400,0.645
31.8800,0.675
31.9200,0.691
31.9600,0.662
32.0000,0.654
32.0400,0.659
32.0800,0.673
32.1200,0.657
32.1600,0.645
32.2000,0.678
32.2400,0.677
32.2800,0.662
32.3200,0.621
32.3600,0.649
32.4000,0.634
32.4400,0.641
32.4800,0.664
32.5200,0.666
32.5600,0.627
32.6000,0.608
32.6400,0.653
32.6800,0.622
32.7200,0.667
32.7600,0.623
32.8000,0.642
32.8400,0.599
32.8800,0.635
32.9200,0.653
32.9600,0.609
33.0000,0.626
33.0400,0.620
33.0800,0.610
33.1200,0.607
33.1600,0.601
33.2000,0.612
33.2400,0.639
33.2800,0.615
33.3200,0.643
33.3600,0.624
33.4000,0.616
33.4400,0.600
33.4800,0.580
33.5200,0.612
33.5600,0.630
33.6000,0.637
33.6400,0.626
33.6800,0.560
33.7200,0.619
33.7600,0.655
33.8000,0.596
33.8400,0.604
33.8800,0.577
33.9200,0.623
33.9600,0.590
34.0000,0.600
34.0400,0.612
34.0800,0.577
34.1200,0.616
34.1600,0.634
34.2000,0.616
34.2400,0.642
34.2800,0.609
34.3200,0.605
34.3600,0.594
34.4000,0.595
34.4400,0.594
34.4800,0.564
34.5200,0.623
34.5600,0.607
34.6000,0.622
34.6400,0.575
34.6800,0.577
34.7200,0.567
34.7600,0.624
34.8000,0.562
34.8400,0.559
34.8800,0.550
34.9200,0.587
34.9600,0.588
35.0000,0.601
35.0400,0.587
35.0800,0.617
35.1200,0.649
35.1600,0.639
35.2000,0.571
35.2400,0.594
35.2800,0.594
35.3200,0.573
35.3600,0.582
35.4000,0.551
35.4400,0.584
35.4800,0.597
35.5200,0.593
35.5600,0.548
35.6000,0.533
35.6400,0.556
35.6800,0.560
35.7200,0.562
35.7600,0.574
35.8000,0.562
35.8400,0.567
35.8800,0.555
35.9200,0.555
35.9600,0.563
36.0000,0.570
36.0400,0.559
36.0800,0.550
36.1200,0.553
36.1600,0.530
36.2000,0.551
36.2400,0.529
36.2800,0.536
36.3200,0.547
36.3600,0.573
36.4000,0.510
36.4400,0.551
36.4800,0.545
36.5200,0.543
36.5600,0.539
36.6000,0.534
36.6400,0.556
36.6800,0.552
36.7200,0.529
36.7600,0.543
36.8000,0.534
36.8400,0.557
36.8800,0.569
36.9200,0.541
36.9600,0.553
37.0000,0.549
37.0400,0.513
37.0800,0.513
37.1200,0.521
37.1600,0.532
37.2000,0.546
37.2400,0.494
37.2800,0.534
37.3200,0.555
37.3600,0.534
37.4000,0.514
37.4400,0.526
37.4800,0.505
37.5200,0.487
37.5600,0.522
37.6000,0.516
37.6400,0.494
37.6800,0.481
37.7200,0.487
37.7600,0.494
37.8000,0.516
37.8400,0.512
37.8800,0.539
37.9200,0.499
37.9600,0.525
38.0000,0.525
38.0400,0.518
38.0800,0.493
38.1200,0.507
38.1600,0.521
38.2000,0.526
38.2400,0.494
38.2800,0.533
38.3200,0.485
38.3600,0.511
38.4000,0.507
38.4400,0.480
38.4800,0.500
38.5200,0.515
38.5600,0.509
38.6000,0.502
38.6400,0.518
38.6800,0.491
38.7200,0.496
38.7600,0.506
38.8000,0.503
38.8400,0.473
38.8800,0.499
38.9200,0.529
38.9600,0.529
39.0000,0.511
39.0400,0.513
39.0800,0.503
39.1200,0.508
39.1600,0.495
39.2000,0.502
39.2400,0.474
39.2800,0.512
39.3200,0.518
39.3600,0.500
39.4000,0.537
39.4400,0.493
39.4800,0.523
39.5200,0.514
39.5600,0.496
39.6000,0.488
39.6400,0.531
39.6800,0.498
39.7200,0.505
39.7600,0.518
39.8000,0.532
39.8400,0.516
39.8800,0.514
39.9200,0.542
39.9600,0.500
40.0000,0.484
40.0400,0.483
40.0800,0.515
40.1200,0.518
40.1600,0.535
40.2000,0.519
40.2400,0.533
40.2800,0.485
40.3200,0.503
40.3600,0.509
40.4000,0.519
40.4400,0.523
40.4800,0.505
40.5200,0.504
40.5600,0.531
40.6000,0.527
40.6400,0.501
40.6800,0.554
40.7200,0.526
40.7600,0.526
40.8000,0.544
40.8400,0.544
40.8800,0.552
40.9200,0.528
40.9600,0.562
41.0000,0.530
41.0400,0.537
41.0800,0.573
41.1200,0.548
41.1600,0.581
41.2000,0.582
41.2400,0.637
41.2800,0.604
41.3200,0.617
41.3600,0.626
41.4000,0.667
41.4400,0.687
41.4800,0.673
41.5200,0.700
41.5600,0.749
41.6000,0.763
41.6400,0.809
41.6800,0.837
41.7200,0.858
41.7600,0.935
41.8000,0.976
41.8400,1.068
41.8800,1.120
41.9200,1.273
41.9600,1.498
42.0000,1.593
42.0400,1.793
42.0800,2.223
42.1200,2.753
42.1600,3.405
42.2000,4.162
42.2400,5.002
42.2800,5.793
42.3200,6.464
42.3600,6.902
42.4000,7.026
42.4400,7.151
42.4800,6.963
42.5200,6.607
42.5600,6.202
42.6000,5.888
42.6400,5.406
42.6800,4.987
42.7200,4.627
42.7600,4.192
42.8000,3.820
42.8400,3.532
42.8800,3.322
42.9200,3.058
42.9600,2.953
43.0000,2.795
43.0400,2.752
43.0800,2.757
43.1200,2.779
43.1600,2.866
43.2000,3.067
43.2400,3.267
43.2800,3.449
43.3200,3.349
43.3600,3.076
43.4000,2.688
43.4400,2.138
43.4800,1.818
43.5200,1.434
43.5600,1.227
43.6000,1.024
43.6400,0.878
43.6800,0.828
43.7200,0.805
43.7600,0.738
43.8000,0.664
43.8400,0.653
43.8800,0.659
43.9200,0.599
43.9600,0.606
44.0000,0.608
44.0400,0.585
44.0800,0.552
44.1200,0.513
44.1600,0.502
44.2000,0.546
44.2400,0.507
44.2800,0.501
44.3200,0.487
44.3600,0.486
44.4000,0.494
44.4400,0.473
44.4800,0.481
44.5200,0.450
44.5600,0.448
44.6000,0.467
44.6400,0.462
44.6800,0.490
44.7200,0.442
44.7600,0.432
44.8000,0.458
44.8400,0.450
44.8800,0.453
44.9200,0.436
44.9600,0.428
45.0000,0.431
45.0400,0.474
45.0800,0.437
45.1200,0.436
45.1600,0.415
45.2000,0.443
45.2400,0.408
45.2800,0.405
45.3200,0.420
45.3600,0.421
45.4000,0.418
45.4400,0.409
45.4800,0.419
45.5200,0.436
45.5600,0.426
45.6000,0.461
45.6400,0.402
45.6800,0.424
45.7200,0.402
45.7600,0.402
45.8000,0.393
45.8400,0.389
45.8800,0.400
45.9200,0.388
45.9600,0.407
46.0000,0.404
46.0400,0.411
46.0800,0.404
46.1200,0.374
46.1600,0.397
46.2000,0.389
46.2400,0.408
46.2800,0.377
46.3200,0.392
46.3600,0.418
46.4000,0.413
46.4400,0.395
46.4800,0.384
46.5200,0.401
46.5600,0.380
46.6000,0.390
46.6400,0.409
46.6800,0.417
46.7200,0.408
46.7600,0.379
46.8000,0.394
46.8400,0.401
46.8800,0.394
46.9200,0.408
46.9600,0.406
47.0000,0.384
47.0400,0.383
47.0800,0.353
47.1200,0.370
47.1600,0.403
47.2000,0.421
47.2400,0.385
47.2800,0.397
47.3200,0.408
47.3600,0.432
47.4000,0.420
47.4400,0.419
47.4800,0.411
47.5200,0.409
47.5600,0.427
47.6000,0.413
47.6400,0.440
47.6800,0.424
47.7200,0.436
47.7600,0.422
47.8000,0.420
47.8400,0.408
47.8800,0.426
47.9200,0.436
47.9600,0.442
48.0000,0.453
48.0400,0.467
48.0800,0.435
48.1200,0.442
48.1600,0.468
48.2000,0.455
48.2400,0.498
48.2800,0.470
48.3200,0.479
48.3600,0.487
48.4000,0.531
48.4400,0.531
48.4800,0.529
48.5200,0.570
48.5600,0.586
48.6000,0.626
48.6400,0.638
48.6800,0.668
48.7200,0.696
48.7600,0.752
48.8000,0.783
48.8400,0.823
48.8800,0.850
48.9200,0.982
48.9600,1.033
49.0000,1.162
49.0400,1.261
49.0800,1.421
49.1200,1.587
49.1600,1.788
49.2000,1.853
49.2400,1.997
49.2800,2.096
49.3200,2.192
49.3600,2.156
49.4000,2.202
49.4400,2.265
49.4800,2.225
49.5200,2.168
49.5600,2.136
49.6000,2.011
49.6400,1.964
49.6800,1.837
49.7200,1.738
49.7600,1.660
49.8000,1.540
49.8400,1.435
49.8800,1.364
49.9200,1.310
49.9600,1.233
50.0000,1.174
50.0400,1.079
50.0800,1.039
50.1200,1.001
50.1600,0.962
50.2000,0.931
50.2400,0.832
50.2800,0.751
50.3200,0.699
50.3600,0.650
50.4000,0.596
50.4400,0.570
50.4800,0.547
50.5200,0.486
50.5600,0.498
50.6000,0.459
50.6400,0.464
50.6800,0.435
50.7200,0.415
50.7600,0.398
50.8000,0.378
50.8400,0.385
50.8800,0.387
50.9200,0.381
50.9600,0.372
51.0000,0.379
51.0400,0.374
51.0800,0.372
51.1200,0.343
51.1600,0.337
51.2000,0.323
51.2400,0.318
51.2800,0.350
51.3200,0.340
51.3600,0.329
51.4000,0.313
51.4400,0.299
51.4800,0.325
51.5200,0.314
51.5600,0.304
51.6000,0.310
51.6400,0.339
51.6800,0.338
51.7200,0.293
51.7600,0.290
51.8000,0.326
51.8400,0.314
51.8800,0.318
51.9200,0.318
51.9600,0.331
52.0000,0.307
52.0400,0.305
52.0800,0.295
52.1200,0.305
52.1600,0.281
52.2000,0.286
52.2400,0.293
52.2800,0.296
52.3200,0.277
52.3600,0.297
52.4000,0.296
52.4400,0.288
52.4800,0.293
52.5200,0.285
52.5600,0.294
52.6000,0.267
52.6400,0.284
52.6800,0.269
52.7200,0.281
52.7600,0.283
52.8000,0.288
52.8400,0.292
52.8800,0.315
52.9200,0.281
52.9600,0.282
53.0000,0.292
53.0400,0.285
53.0800,0.286
53.1200,0.281
53.1600,0.280
53.2000,0.277
53.2400,0.277
53.2800,0.295
53.3200,0.264
53.3600,0.262
53.4000,0.291
53.4400,0.293
53.4800,0.316
53.5200,0.282
53.5600,0.297
53.6000,0.301
53.6400,0.285
53.6800,0.298
53.7200,0.303
53.7600,0.285
53.8000,0.292
53.8400,0.307
53.8800,0.332
53.9200,0.289
53.9600,0.297
54.0000,0.284
54.0400,0.267
54.0800,0.277
54.1200,0.264
54.1600,0.274
54.2000,0.264
54.2400,0.255
54.2800,0.261
54.3200,0.266
54.3600,0.235
54.4000,0.247
54.4400,0.274
54.4800,0.269
54.5200,0.231
54.5600,0.253
54.6000,0.262
54.6400,0.261
54.6800,0.260
54.7200,0.254
54.7600,0.251
54.8000,0.251
54.8400,0.261
54.8800,0.253
54.9200,0.273
54.9600,0.283
55.0000,0.281
55.0400,0.286
55.0800,0.269
55.1200,0.262
55.1600,0.249
55.2000,0.262
55.2400,0.255
55.2800,0.241
55.3200,0.263
55.3600,0.243
55.4000,0.278
55.4400,0.264
55.4800,0.260
55.5200,0.264
55.5600,0.269
55.6000,0.281
55.6400,0.266
55.6800,0.277
55.7200,0.278
55.7600,0.265
55.8000,0.276
55.8400,0.252
55.8800,0.258
55.9200,0.270
55.9600,0.261
56.0000,0.274
56.0400,0.263
56.0800,0.265
56.1200,0.281
56.1600,0.266
56.2000,0.261
56.2400,0.263
56.2800,0.267
56.3200,0.250
56.3600,0.273
56.4000,0.249
56.4400,0.259
56.4800,0.263
56.5200,0.239
56.5600,0.254
56.6000,0.264
56.6400,0.253
56.6800,0.263
56.7200,0.262
56.7600,0.261
56.8000,0.259
56.8400,0.249
56.8800,0.232
56.9200,0.240
56.9600,0.271
57.0000,0.223
57.0400,0.222
57.0800,0.258
57.1200,0.254
57.1600,0.247
57.2000,0.248
57.2400,0.224
57.2800,0.249
57.3200,0.228
57.3600,0.221
57.4000,0.241
57.4400,0.243
57.4800,0.274
57.5200,0.250
57.5600,0.250
57.6000,0.228
57.6400,0.249
57.6800,0.239
57.7200,0.258
57.7600,0.255
57.8000,0.236
57.8400,0.249
57.8800,0.261
57.9200,0.253
57.9600,0.259
58.0000,0.228
58.0400,0.245
58.0800,0.244
58.1200,0.239
58.1600,0.232
58.2000,0.246
58.2400,0.223
58.2800,0.263
58.3200,0.235
58.3600,0.238
58.4000,0.239
58.4400,0.227
58.4800,0.255
58.5200,0.252
58.5600,0.249
58.6000,0.246
58.6400,0.232
58.6800,0.224
58.7200,0.217
58.7600,0.230
58.8000,0.257
58.8400,0.237
58.8800,0.252
58.9200,0.240
58.9600,0.235
59.0000,0.232
59.0400,0.270
59.0800,0.244
59.1200,0.220
59.1600,0.255
59.2000,0.234
59.2400,0.227
59.2800,0.222
59.3200,0.240
59.3600,0.247
59.4000,0.232
59.4400,0.258
59.4800,0.228
59.5200,0.218
59.5600,0.242
59.6000,0.229
59.6400,0.248
59.6800,0.237
59.7200,0.246
59.7600,0.227
59.8000,0.247
59.8400,0.232
59.8800,0.229
59.9200,0.225
59.9600,0.215
60.0000,0.235
60.0400,0.225
60.0800,0.233
60.1200,0.214
60.1600,0.243
60.2000,0.222
60.2400,0.232
60.2800,0.221
60.3200,0.239
60.3600,0.227
60.4000,0.228
60.4400,0.213
60.4800,0.236
60.5200,0.235
60.5600,0.241
60.6000,0.227
60.6400,0.214
60.6800,0.232
60.7200,0.219
60.7600,0.256
60.8000,0.230
60.8400,0.237
60.8800,0.239
60.9200,0.245
60.9600,0.232
61.0000,0.237
61.0400,0.231
61.0800,0.218
61.1200,0.236
61.1600,0.247
61.2000,0.247
61.2400,0.233
61.2800,0.249
61.3200,0.232
61.3600,0.241
61.4000,0.235
61.4400,0.219
61.4800,0.249
61.5200,0.244
61.5600,0.242
61.6000,0.251
61.6400,0.215
61.6800,0.238
61.7200,0.247
61.7600,0.231
61.8000,0.251
61.8400,0.232
61.8800,0.247
61.9200,0.240
61.9600,0.248
62.0000,0.255
62.0400,0.251
62.0800,0.221
62.1200,0.260
62.1600,0.249
62.2000,0.245
62.2400,0.233
62.2800,0.239
62.3200,0.269
62.3600,0.237
62.4000,0.233
62.4400,0.252
62.4800,0.266
62.5200,0.277
62.5600,0.282
62.6000,0.267
62.6400,0.320
62.6800,0.306
62.7200,0.333
62.7600,0.345
62.8000,0.352
62.8400,0.374
62.8800,0.391
62.9200,0.371
62.9600,0.397
63.0000,0.378
63.0400,0.370
63.0800,0.367
63.1200,0.351
63.1600,0.316
63.2000,0.305
63.2400,0.298
63.2800,0.282
63.3200,0.274
63.3600,0.277
63.4000,0.274
63.4400,0.276
63.4800,0.257
63.5200,0.257
63.5600,0.266
63.6000,0.242
63.6400,0.257
63.6800,0.243
63.7200,0.246
63.7600,0.262
63.8000,0.221
63.8400,0.235
63.8800,0.243
63.9200,0.240
63.9600,0.249
64.0000,0.245
64.0400,0.243
64.0800,0.240
64.1200,0.257
64.1600,0.229
64.2000,0.259
64.2400,0.261
64.2800,0.262
64.3200,0.236
64.3600,0.258
64.4000,0.266
64.4400,0.239
64.4800,0.245
64.5200,0.240
64.5600,0.247
64.6000,0.253
64.6400,0.252
64.6800,0.257
64.7200,0.252
64.7600,0.267
64.8000,0.259
64.8400,0.249
64.8800,0.264
64.9200,0.261
64.9600,0.270
65.0000,0.270
65.0400,0.266
65.0800,0.285
65.1200,0.280
65.1600,0.266
65.2000,0.240
65.2400,0.280
65.2800,0.262
65.3200,0.271
65.3600,0.248
65.4000,0.256
65.4400,0.279
65.4800,0.267
65.5200,0.285
65.5600,0.306
65.6000,0.292
65.6400,0.269
65.6800,0.275
65.7200,0.283
65.7600,0.289
65.8000,0.294
65.8400,0.264
65.8800,0.281
65.9200,0.276
65.9600,0.279
66.0000,0.288
66.0400,0.303
66.0800,0.305
66.1200,0.303
66.1600,0.323
66.2000,0.313
66.2400,0.324
66.2800,0.320
66.3200,0.301
66.3600,0.321
66.4000,0.319
66.4400,0.283
66.4800,0.320
66.5200,0.350
66.5600,0.317
66.6000,0.343
66.6400,0.323
66.6800,0.353
66.7200,0.336
66.7600,0.351
66.8000,0.356
66.8400,0.358
66.8800,0.377
66.9200,0.357
66.9600,0.380
67.0000,0.370
67.0400,0.387
67.0800,0.382
67.1200,0.400
67.1600,0.400
67.2000,0.389
67.2400,0.369
67.2800,0.379
67.3200,0.404
67.3600,0.399
67.4000,0.432
67.4400,0.408
67.4800,0.437
67.5200,0.412
67.5600,0.454
67.6000,0.462
67.6400,0.441
67.6800,0.444
67.7200,0.483
67.7600,0.438
67.8000,0.445
67.8400,0.477
67.8800,0.482
67.9200,0.530
67.9600,0.531
68.0000,0.488
68.0400,0.515
68.0800,0.534
68.1200,0.532
68.1600,0.559
68.2000,0.573
68.2400,0.570
68.2800,0.633
68.3200,0.606
68.3600,0.630
68.4000,0.672
68.4400,0.683
68.4800,0.681
68.5200,0.733
68.5600,0.758
68.6000,0.826
68.6400,0.937
68.6800,1.066
68.7200,1.338
68.7600,1.529
68.8000,1.743
68.8400,1.841
68.8800,2.051
68.9200,2.530
68.9600,3.894
69.0000,8.081
69.0400,24.715
69.0800,58.254
69.1200,73.781
69.1600,65.150
69.2000,42.377
69.2400,25.321
69.2800,33.924
69.3200,39.871
69.3600,34.445
69.4000,20.640
69.4400,7.562
69.4800,3.550
69.5200,2.282
69.5600,1.755
69.6000,1.486
69.6400,1.237
69.6800,1.118
69.7200,1.047
69.7600,0.951
69.8000,0.864
69.8400,0.829
69.8800,0.819
69.9200,0.777
69.9600,0.750
70.0000,0.735
70.0400,0.741
70.0800,0.669
70.1200,0.679
70.1600,0.620
70.2000,0.618
70.2400,0.583
70.2800,0.590
70.3200,0.584
70.3600,0.636
70.4000,0.569
70.4400,0.551
70.4800,0.512
70.5200,0.495
70.5600,0.507
70.6000,0.531
70.6400,0.495
70.6800,0.513
70.7200,0.464
70.7600,0.503
70.8000,0.486
70.8400,0.460
70.8800,0.489
70.9200,0.475
70.9600,0.454
71.0000,0.469
71.0400,0.427
71.0800,0.433
71.1200,0.442
71.1600,0.451
71.2000,0.438
71.2400,0.424
71.2800,0.459
71.3200,0.447
71.3600,0.434
71.4000,0.453
71.4400,0.460
71.4800,0.434
71.5200,0.445
71.5600,0.433
71.6000,0.455
71.6400,0.472
71.6800,0.446
71.7200,0.473
71.7600,0.475
71.8000,0.514
71.8400,0.517
71.8800,0.525
71.9200,0.543
71.9600,0.598
72.0000,0.621
72.0400,0.672
72.0800,0.717
72.1200,0.758
72.1600,0.807
72.2000,0.871
72.2400,0.862
72.2800,0.902
72.3200,0.975
72.3600,0.967
72.4000,0.950
72.4400,0.962
72.4800,0.920
72.5200,0.946
72.5600,0.955
72.6000,0.914
72.6400,0.892
72.6800,0.870
72.7200,0.863
72.7600,0.796
72.8000,0.740
72.8400,0.756
72.8800,0.748
72.9200,0.697
72.9600,0.687
73.0000,0.660
73.0400,0.633
73.0800,0.617
73.1200,0.575
73.1600,0.562
73.2000,0.556
73.2400,0.529
73.2800,0.524
73.3200,0.523
73.3600,0.529
73.4000,0.507
73.4400,0.475
73.4800,0.458
73.5200,0.427
73.5600,0.432
73.6000,0.419
73.6400,0.439
73.6800,0.406
73.7200,0.389
73.7600,0.402
73.8000,0.361
73.8400,0.338
73.8800,0.322
73.9200,0.345
73.9600,0.344
74.0000,0.323
74.0400,0.329
74.0800,0.311
74.1200,0.294
74.1600,0.285
74.2000,0.268
74.2400,0.264
74.2800,0.256
74.3200,0.268
74.3600,0.277
74.4000,0.242
74.4400,0.253
74.4800,0.236
74.5200,0.236
74.5600,0.256
74.6000,0.227
74.6400,0.218
74.6800,0.248
74.7200,0.250
74.7600,0.229
74.8000,0.205
74.8400,0.229
74.8800,0.214
74.9200,0.211
74.9600,0.228
75.0000,0.211
75.0400,0.243
75.0800,0.240
75.1200,0.222
75.1600,0.222
75.2000,0.222
75.2400,0.235
75.2800,0.225
75.3200,0.212
75.3600,0.218
75.4000,0.228
75.4400,0.210
75.4800,0.206
75.5200,0.211
75.5600,0.226
75.6000,0.206
75.6400,0.234
75.6800,0.226
75.7200,0.234
75.7600,0.214
75.8000,0.223
75.8400,0.202
75.8800,0.215
75.9200,0.205
75.9600,0.194
76.0000,0.215
76.0400,0.211
76.0800,0.201
76.1200,0.189
76.1600,0.198
76.2000,0.188
76.2400,0.205
76.2800,0.205
76.3200,0.194
76.3600,0.193
76.4000,0.185
76.4400,0.205
76.4800,0.213
76.5200,0.194
76.5600,0.196
76.6000,0.196
76.6400,0.191
76.6800,0.199
76.7200,0.197
76.7600,0.199
76.8000,0.209
76.8400,0.209
76.8800,0.199
76.9200,0.188
76.9600,0.194
77.0000,0.205
77.0400,0.192
77.0800,0.183
77.1200,0.217
77.1600,0.186
77.2000,0.174
77.2400,0.185
77.2800,0.181
77.3200,0.186
77.3600,0.188
77.4000,0.205
77.4400,0.207
77.4800,0.185
77.5200,0.211
77.5600,0.184
77.6000,0.189
77.6400,0.189
77.6800,0.171
77.7200,0.203
77.7600,0.204
77.8000,0.219
77.8400,0.196
77.8800,0.210
77.9200,0.194
77.9600,0.185
78.0000,0.201
78.0400,0.199
78.0800,0.199
78.1200,0.191
78.1600,0.193
78.2000,0.208
78.2400,0.218
78.2800,0.206
78.3200,0.198
78.3600,0.178
78.4000,0.169
78.4400,0.192
78.4800,0.187
78.5200,0.205
78.5600,0.191
78.6000,0.195
78.6400,0.198
78.6800,0.193
78.7200,0.205
78.7600,0.211
78.8000,0.203
78.8400,0.195
78.8800,0.177
78.9200,0.215
78.9600,0.216
79.0000,0.211
79.0400,0.220
79.0800,0.243
79.1200,0.222
79.1600,0.274
79.2000,0.295
79.2400,0.289
79.2800,0.304
79.3200,0.358
79.3600,0.395
79.4000,0.389
79.4400,0.421
79.4800,0.426
79.5200,0.402
79.5600,0.377
79.6000,0.372
79.6400,0.360
79.6800,0.358
79.7200,0.316
79.7600,0.315
79.8000,0.281
79.8400,0.247
79.8800,0.278
79.9200,0.224
79.9600,0.210
80.0000,0.217
