theta,intensity
5.0000,4.184
5.0400,4.160
5.0800,4.119
5.1200,4.139
5.1600,4.183
5.2000,4.198
5.2400,4.118
5.2800,4.083
5.3200,4.161
5.3600,4.095
5.4000,4.098
5.4400,4.049
5.4800,4.118
5.5200,3.937
5.5600,4.129
5.6000,4.000
5.6400,4.094
5.6800,3.989
5.7200,4.032
5.7600,4.091
5.8000,4.109
5.8400,4.006
5.8800,3.996
5.9200,4.038
5.9600,4.002
6.0000,3.937
6.0400,3.996
6.0800,4.086
6.1200,3.985
6.1600,3.958
6.2000,3.991
6.2400,3.923
6.2800,4.027
6.3200,3.952
6.3600,3.980
6.4000,4.030
6.4400,4.074
6.4800,3.935
6.5200,3.848
6.5600,3.870
6.6000,3.989
6.6400,3.792
6.6800,4.008
6.7200,3.940
6.7600,3.913
6.8000,3.908
6.8400,3.918
6.8800,3.777
6.9200,3.902
6.9600,3.675
7.0000,3.914
7.0400,4.023
7.0800,3.903
7.1200,3.810
7.1600,3.859
7.2000,3.796
7.2400,3.783
7.2800,3.849
7.3200,3.734
7.3600,3.779
7.4000,3.854
7.4400,3.939
7.4800,3.822
7.5200,3.808
7.5600,3.751
7.6000,3.791
7.6400,3.794
7.6800,3.894
7.7200,3.814
7.7600,3.760
7.8000,3.730
7.8400,3.711
7.8800,3.854
7.9200,3.683
7.9600,3.842
8.0000,3.773
8.0400,3.902
8.0800,3.848
8.1200,3.794
8.1600,3.724
8.2000,3.777
8.2400,3.849
8.2800,3.779
8.3200,3.778
8.3600,3.775
8.4000,3.730
8.4400,3.639
8.4800,3.609
8.5200,3.718
8.5600,3.794
8.6000,3.753
8.6400,3.757
8.6800,3.678
8.7200,3.717
8.7600,3.665
8.8000,3.709
8.8400,3.767
8.8800,3.685
8.9200,3.715
8.9600,3.609
9.0000,3.659
9.0400,3.668
9.0800,3.680
9.1200,3.617
9.1600,3.637
9.2000,3.633
9.2400,3.615
9.2800,3.744
9.3200,3.628
9.3600,3.606
9.4000,3.681
9.4400,3.727
9.4800,3.704
9.5200,3.699
9.5600,3.621
9.6000,3.555
9.6400,3.527
9.6800,3.741
9.7200,3.711
9.7600,3.581
9.8000,3.634
9.8400,3.673
9.8800,3.628
9.9200,3.744
9.9600,3.550
10.0000,3.558
10.0400,3.576
10.0800,3.639
10.1200,3.398
10.1600,3.541
10.2000,3.548
10.2400,3.471
10.2800,3.684
10.3200,3.514
10.3600,3.577
10.4000,3.577
10.4400,3.627
10.4800,3.632
10.5200,3.569
10.5600,3.430
10.6000,3.556
10.6400,3.460
10.6800,3.580
10.7200,3.497
10.7600,3.410
10.8000,3.486
10.8400,3.514
10.8800,3.630
10.9200,3.529
10.9600,3.603
11.0000,3.545
11.0400,3.400
11.0800,3.448
11.1200,3.451
11.1600,3.484
11.2000,3.485
11.2400,3.455
11.2800,3.482
11.3200,3.406
11.3600,3.525
11.4000,3.414
11.4400,3.408
11.4800,3.441
11.5200,3.507
11.5600,3.487
11.6000,3.444
11.6400,3.421
11.6800,3.493
11.7200,3.379
11.7600,3.496
11.8000,3.460
11.8400,3.495
11.8800,3.400
11.9200,3.325
11.9600,3.414
12.0000,3.454
12.0400,3.439
12.0800,3.483
12.1200,3.456
12.1600,3.372
12.2000,3.443
12.2400,3.430
12.2800,3.485
12.3200,3.362
12.3600,3.398
12.4000,3.415
12.4400,3.358
12.4800,3.360
12.5200,3.456
12.5600,3.288
12.6000,3.468
12.6400,3.413
12.6800,3.357
12.7200,3.377
12.7600,3.380
12.8000,3.300
12.8400,3.359
12.8800,3.399
12.9200,3.429
12.9600,3.387
13.0000,3.280
13.0400,3.330
13.0800,3.202
13.1200,3.220
13.1600,3.255
13.2000,3.330
13.2400,3.375
13.2800,3.312
13.3200,3.310
13.3600,3.250
13.4000,3.315
13.4400,3.283
13.4800,3.228
13.5200,3.311
13.5600,3.230
13.6000,3.358
13.6400,3.325
13.6800,3.316
13.7200,3.321
13.7600,3.190
13.8000,3.222
13.8400,3.253
13.8800,3.151
13.9200,3.361
13.9600,3.248
14.0000,3.179
14.0400,3.274
14.0800,3.280
14.1200,3.241
14.1600,3.335
14.2000,3.209
14.2400,3.237
14.2800,3.137
14.3200,3.115
14.3600,3.275
14.4000,3.294
14.4400,3.228
14.4800,3.305
14.5200,3.170
14.5600,3.189
14.6000,3.180
14.6400,3.161
14.6800,3.179
14.7200,3.225
14.7600,3.200
14.8000,3.174
14.8400,3.210
14.8800,3.153
14.9200,3.268
14.9600,3.203
15.0000,3.204
15.0400,3.089
15.0800,3.196
15.1200,3.163
15.1600,3.175
15.2000,3.140
15.2400,3.042
15.2800,3.060
15.3200,3.222
15.3600,3.121
15.4000,3.203
15.4400,3.086
15.4800,3.131
15.5200,3.090
15.5600,3.096
15.6000,3.061
15.6400,3.134
15.6800,2.984
15.7200,3.166
15.7600,3.167
15.8000,3.137
15.8400,3.011
15.8800,3.146
15.9200,3.066
15.9600,2.974
16.0000,3.169
16.0400,2.937
16.0800,3.116
16.1200,3.114
16.1600,2.980
16.2000,3.128
16.2400,3.061
16.2800,3.144
16.3200,3.009
16.3600,3.047
16.4000,3.165
16.4400,3.035
16.4800,3.125
16.5200,3.031
16.5600,2.937
16.6000,2.962
16.6400,3.054
16.6800,3.043
16.7200,2.990
16.7600,2.987
16.8000,3.062
16.8400,3.078
16.8800,3.052
16.9200,3.056
16.9600,2.949
17.0000,3.059
17.0400,2.968
17.0800,2.841
17.1200,3.017
17.1600,2.921
17.2000,2.967
17.2400,2.916
17.2800,3.011
17.3200,2.925
17.3600,3.007
17.4000,3.033
17.4400,2.991
17.4800,2.945
17.5200,2.979
17.5600,2.939
17.6000,2.992
17.6400,3.001
17.6800,2.954
17.7200,2.983
17.7600,2.792
17.8000,3.012
17.8400,2.995
17.8800,2.846
17.9200,2.870
17.9600,2.936
18.0000,2.844
18.0400,2.954
18.0800,3.014
18.1200,2.889
18.1600,2.924
18.2000,2.908
18.2400,2.859
18.2800,2.874
18.3200,2.803
18.3600,2.976
18.4000,2.918
18.4400,2.884
18.4800,2.825
18.5200,2.889
18.5600,2.810
18.6000,2.833
18.6400,2.847
18.6800,2.928
18.7200,2.896
18.7600,2.750
18.8000,2.780
18.8400,2.773
18.8800,2.748
18.9200,2.741
18.9600,2.783
19.0000,2.792
19.0400,2.756
19.0800,2.750
19.1200,2.907
19.1600,2.748
19.2000,2.849
19.2400,2.699
19.2800,2.813
19.3200,2.843
19.3600,2.785
19.4000,2.739
19.4400,2.823
19.4800,2.829
19.5200,2.798
19.5600,2.804
19.6000,2.791
19.6400,2.764
19.6800,2.841
19.7200,2.792
19.7600,2.617
19.8000,2.839
19.8400,2.706
19.8800,2.654
19.9200,2.819
19.9600,2.707
20.0000,2.787
20.0400,2.661
20.0800,2.702
20.1200,2.761
20.1600,2.749
20.2000,2.714
20.2400,2.724
20.2800,2.756
20.3200,2.597
20.3600,2.693
20.4000,2.675
20.4400,2.738
20.4800,2.678
20.5200,2.747
20.5600,2.813
20.6000,2.760
20.6400,2.579
20.6800,2.666
20.7200,2.650
20.7600,2.710
20.8000,2.657
20.8400,2.620
20.8800,2.729
20.9200,2.623
20.9600,2.667
21.0000,2.638
21.0400,2.593
21.0800,2.718
21.1200,2.663
21.1600,2.688
21.2000,2.608
21.2400,2.673
21.2800,2.641
21.3200,2.710
21.3600,2.587
21.4000,2.708
21.4400,2.611
21.4800,2.673
21.5200,2.609
21.5600,2.636
21.6000,2.590
21.6400,2.636
21.6800,2.650
21.7200,2.610
21.7600,2.567
21.8000,2.662
21.8400,2.560
21.8800,2.604
21.9200,2.577
21.9600,2.714
22.0000,2.618
22.0400,2.600
22.0800,2.698
22.1200,2.641
22.1600,2.590
22.2000,2.692
22.2400,2.589
22.2800,2.628
22.3200,2.523
22.3600,2.583
22.4000,2.621
22.4400,2.523
22.4800,2.534
22.5200,2.565
22.5600,2.649
22.6000,2.573
22.6400,2.509
22.6800,2.473
22.7200,2.536
22.7600,2.511
22.8000,2.548
22.8400,2.569
22.8800,2.586
22.9200,2.468
22.9600,2.561
23.0000,2.527
23.0400,2.499
23.0800,2.521
23.1200,2.534
23.1600,2.560
23.2000,2.549
23.2400,2.610
23.2800,2.518
23.3200,2.499
23.3600,2.533
23.4000,2.522
23.4400,2.548
23.4800,2.540
23.5200,2.586
23.5600,2.551
23.6000,2.454
23.6400,2.481
23.6800,2.558
23.7200,2.466
23.7600,2.411
23.8000,2.491
23.8400,2.416
23.8800,2.535
23.9200,2.469
23.9600,2.442
24.0000,2.490
24.0400,2.469
24.0800,2.482
24.1200,2.450
24.1600,2.389
24.2000,2.388
24.2400,2.470
24.2800,2.464
24.3200,2.498
24.3600,2.395
24.4000,2.468
24.4400,2.458
24.4800,2.447
24.5200,2.455
24.5600,2.453
24.6000,2.431
24.6400,2.410
24.6800,2.455
24.7200,2.405
24.7600,2.376
24.8000,2.449
24.8400,2.400
24.8800,2.321
24.9200,2.406
24.9600,2.433
25.0000,2.355
25.0400,2.436
25.0800,2.392
25.1200,2.438
25.1600,2.400
25.2000,2.423
25.2400,2.447
25.2800,2.473
25.3200,2.480
25.3600,2.458
25.4000,2.339
25.4400,2.424
25.4800,2.478
25.5200,2.428
25.5600,2.276
25.6000,2.367
25.6400,2.385
25.6800,2.429
25.7200,2.380
25.7600,2.368
25.8000,2.410
25.8400,2.398
25.8800,2.415
25.9200,2.305
25.9600,2.352
26.0000,2.399
26.0400,2.371
26.0800,2.348
26.1200,2.308
26.1600,2.307
26.2000,2.265
26.2400,2.292
26.2800,2.279
26.3200,2.349
26.3600,2.281
26.4000,2.314
26.4400,2.396
26.4800,2.353
26.5200,2.328
26.5600,2.269
26.6000,2.291
26.6400,2.223
26.6800,2.284
26.7200,2.353
26.7600,2.209
26.8000,2.251
26.8400,2.288
26.8800,2.290
26.9200,2.264
26.9600,2.244
27.0000,2.258
27.0400,2.203
27.0800,2.253
27.1200,2.213
27.1600,2.296
27.2000,2.219
27.2400,2.324
27.2800,2.236
27.3200,2.215
27.3600,2.164
27.4000,2.267
27.4400,2.272
27.4800,2.205
27.5200,2.248
27.5600,2.332
27.6000,2.244
27.6400,2.236
27.6800,2.303
27.7200,2.189
27.7600,2.304
27.8000,2.277
27.8400,2.274
27.8800,2.338
27.9200,2.330
27.9600,2.404
28.0000,2.260
28.0400,2.257
28.0800,2.377
28.1200,2.251
28.1600,2.369
28.2000,2.415
28.2400,2.363
28.2800,2.444
28.3200,2.433
28.3600,2.502
28.4000,2.466
28.4400,2.389
28.4800,2.394
28.5200,2.488
28.5600,2.387
28.6000,2.420
28.6400,2.451
28.6800,2.442
28.7200,2.347
28.7600,2.323
28.8000,2.473
28.8400,2.511
28.8800,2.353
28.9200,2.343
28.9600,2.334
29.0000,2.391
29.0400,2.354
29.0800,2.353
29.1200,2.267
29.1600,2.313
29.2000,2.199
29.2400,2.247
29.2800,2.271
29.3200,2.280
29.3600,2.278
29.4000,2.232
29.4400,2.292
29.4800,2.347
29.5200,2.334
29.5600,2.239
29.6000,2.180
29.6400,2.119
29.6800,2.183
29.7200,2.102
29.7600,2.136
29.8000,2.146
29.8400,2.106
29.8800,2.079
29.9200,2.104
29.9600,2.048
30.0000,2.074
30.0400,2.032
30.0800,2.022
30.1200,2.094
30.1600,2.070
30.2000,2.090
30.2400,2.150
30.2800,2.108
30.3200,2.309
30.3600,2.294
30.4000,2.239
30.4400,2.274
30.4800,2.156
30.5200,2.086
30.5600,2.102
30.6000,1.992
30.6400,1.979
30.6800,1.946
30.7200,1.929
30.7600,2.006
30.8000,1.890
30.8400,1.900
30.8800,1.906
30.9200,1.908
30.9600,1.844
31.0000,1.941
31.0400,1.902
31.0800,1.908
31.1200,1.871
31.1600,1.973
31.2000,1.968
31.2400,1.906
31.2800,1.950
31.3200,1.880
31.3600,1.884
31.4000,1.896
31.4400,1.930
31.4800,1.881
31.5200,1.813
31.5600,1.864
31.6000,1.860
31.6400,1.868
31.6800,1.765
31.7200,1.917
31.7600,1.765
31.8000,1.828
31.8400,1.834
31.8800,1.860
31.9200,1.783
31.9600,1.823
32.0000,1.839
32.0400,1.814
32.0800,1.800
32.1200,1.769
32.1600,1.830
32.2000,1.820
32.2400,1.950
32.2800,1.879
32.3200,2.035
32.3600,1.994
32.4000,1.962
32.4400,1.940
32.4800,1.919
32.5200,1.872
32.5600,1.898
32.6000,1.887
32.6400,1.858
32.6800,1.898
32.7200,1.998
32.7600,2.034
32.8000,2.181
32.8400,2.336
32.8800,2.572
32.9200,2.975
32.9600,3.394
33.0000,4.058
33.0400,4.708
33.0800,5.101
33.1200,5.127
33.1600,4.850
33.2000,4.497
33.2400,3.845
33.2800,3.427
33.3200,2.865
33.3600,2.548
33.4000,2.388
33.4400,2.172
33.4800,2.073
33.5200,1.952
33.5600,1.905
33.6000,1.883
33.6400,1.853
33.6800,1.712
33.7200,1.688
33.7600,1.749
33.8000,1.792
33.8400,1.668
33.8800,1.648
33.9200,1.686
33.9600,1.692
34.0000,1.679
34.0400,1.682
34.0800,1.655
34.1200,1.636
34.1600,1.747
34.2000,1.652
34.2400,1.627
34.2800,1.591
34.3200,1.629
34.3600,1.617
34.4000,1.608
34.4400,1.682
34.4800,1.592
34.5200,1.601
34.5600,1.616
34.6000,1.545
34.6400,1.571
34.6800,1.553
34.7200,1.528
34.7600,1.635
34.8000,1.534
34.8400,1.587
34.8800,1.567
34.9200,1.617
34.9600,1.771
35.0000,1.793
35.0400,1.875
35.0800,1.817
35.1200,1.676
35.1600,1.632
35.2000,1.607
35.2400,1.593
35.2800,1.611
35.3200,1.589
35.3600,1.590
35.4000,1.528
35.4400,1.504
35.4800,1.580
35.5200,1.485
35.5600,1.576
35.6000,1.574
35.6400,1.522
35.6800,1.541
35.7200,1.579
35.7600,1.602
35.8000,1.664
35.8400,1.959
35.8800,2.673
35.9200,3.736
35.9600,3.721
36.0000,3.246
36.0400,2.944
36.0800,2.161
36.1200,1.859
36.1600,1.693
36.2000,1.549
36.2400,1.542
36.2800,1.531
36.3200,1.503
36.3600,1.433
36.4000,1.472
36.4400,1.595
36.4800,1.483
36.5200,1.542
36.5600,1.492
36.6000,1.496
36.6400,1.494
36.6800,1.400
36.7200,1.444
36.7600,1.535
36.8000,1.468
36.8400,1.452
36.8800,1.439
36.9200,1.439
36.9600,1.499
37.0000,1.407
37.0400,1.432
37.0800,1.420
37.1200,1.434
37.1600,1.491
37.2000,1.371
37.2400,1.391
37.2800,1.396
37.3200,1.491
37.3600,1.448
37.4000,1.430
37.4400,1.372
37.4800,1.411
37.5200,1.484
37.5600,1.462
37.6000,1.460
37.6400,1.503
37.6800,1.451
37.7200,1.392
37.7600,1.437
37.8000,1.542
37.8400,1.516
37.8800,1.522
37.9200,1.571
37.9600,1.645
38.0000,1.614
38.0400,1.715
38.0800,1.777
38.1200,1.945
38.1600,2.109
38.2000,2.338
38.2400,2.598
38.2800,3.076
38.3200,3.373
38.3600,3.662
38.4000,3.806
38.4400,3.830
38.4800,3.560
38.5200,3.413
38.5600,2.877
38.6000,2.548
38.6400,2.159
38.6800,2.010
38.7200,1.846
38.7600,1.754
38.8000,1.610
38.8400,1.604
38.8800,1.509
38.9200,1.483
38.9600,1.540
39.0000,1.409
39.0400,1.453
39.0800,1.453
39.1200,1.406
39.1600,1.419
39.2000,1.377
39.2400,1.429
39.2800,1.460
39.3200,1.504
39.3600,1.570
39.4000,1.769
39.4400,2.255
39.4800,3.448
39.5200,4.629
39.5600,4.364
39.6000,3.767
39.6400,3.391
39.6800,2.586
39.7200,1.999
39.7600,1.903
39.8000,2.285
39.8400,3.398
39.8800,3.485
39.9200,3.032
39.9600,2.714
40.0000,2.250
40.0400,1.733
40.0800,1.471
40.1200,1.464
40.1600,1.343
40.2000,1.283
40.2400,1.307
40.2800,1.287
40.3200,1.322
40.3600,1.300
40.4000,1.329
40.4400,1.229
40.4800,1.215
40.5200,1.229
40.5600,1.188
40.6000,1.207
40.6400,1.250
40.6800,1.273
40.7200,1.229
40.7600,1.287
40.8000,1.268
40.8400,1.259
40.8800,1.186
40.9200,1.238
40.9600,1.251
41.0000,1.237
41.0400,1.261
41.0800,1.306
41.1200,1.252
41.1600,1.263
41.2000,1.224
41.2400,1.220
41.2800,1.227
41.3200,1.230
41.3600,1.254
41.4000,1.262
41.4400,1.238
41.4800,1.272
41.5200,1.250
41.5600,1.253
41.6000,1.246
41.6400,1.331
41.6800,1.638
41.7200,1.712
41.7600,1.633
41.8000,1.572
41.8400,1.568
41.8800,1.408
41.9200,1.336
41.9600,1.257
42.0000,1.213
42.0400,1.189
42.0800,1.200
42.1200,1.241
42.1600,1.257
42.2000,1.243
42.2400,1.283
42.2800,1.256
42.3200,1.270
42.3600,1.288
42.4000,1.385
42.4400,1.530
42.4800,1.888
42.5200,3.619
42.5600,5.378
42.6000,4.891
42.6400,3.988
42.6800,3.808
42.7200,2.936
42.7600,2.047
42.8000,1.573
42.8400,1.340
42.8800,1.370
42.9200,1.276
42.9600,1.251
43.0000,1.234
43.0400,1.290
43.0800,1.304
43.1200,1.366
43.1600,1.580
43.2000,2.152
43.2400,3.384
43.2800,3.818
43.3200,3.307
43.3600,3.004
43.4000,2.690
43.4400,2.092
43.4800,1.507
43.5200,1.380
43.5600,1.217
43.6000,1.233
43.6400,1.185
43.6800,1.196
43.7200,1.141
43.7600,1.160
43.8000,1.141
43.8400,1.082
43.8800,1.096
43.9200,1.065
43.9600,1.140
44.0000,1.188
44.0400,1.071
44.0800,1.165
44.1200,1.146
44.1600,1.081
44.2000,1.247
44.2400,1.255
44.2800,1.369
44.3200,1.375
44.3600,1.190
44.4000,1.193
44.4400,1.165
44.4800,1.091
44.5200,1.091
44.5600,1.079
44.6000,1.103
44.6400,1.039
44.6800,1.057
44.7200,1.030
44.7600,1.078
44.8000,1.016
44.8400,1.136
44.8800,1.065
44.9200,1.037
44.9600,1.108
45.0000,1.194
45.0400,1.402
45.0800,1.409
45.1200,1.347
45.1600,1.298
45.2000,1.238
45.2400,1.084
45.2800,1.020
45.3200,1.046
45.3600,1.006
45.4000,1.032
45.4400,1.049
45.4800,1.006
45.5200,0.963
45.5600,1.007
45.6000,0.997
45.6400,0.963
45.6800,0.937
45.7200,1.016
45.7600,1.027
45.8000,0.967
45.8400,1.006
45.8800,0.972
45.9200,1.021
45.9600,0.974
46.0000,0.995
46.0400,1.028
46.0800,0.995
46.1200,0.959
46.1600,0.996
46.2000,0.983
46.2400,0.974
46.2800,1.023
46.3200,1.045
46.3600,1.034
46.4000,1.089
46.4400,1.047
46.4800,1.053
46.5200,1.054
46.5600,0.950
46.6000,0.956
46.6400,0.976
46.6800,0.986
46.7200,0.957
46.7600,0.965
46.8000,0.954
46.8400,0.901
46.8800,0.953
46.9200,0.972
46.9600,0.925
47.0000,0.877
47.0400,0.976
47.0800,0.945
47.1200,0.924
47.1600,0.914
47.2000,0.906
47.2400,0.902
47.2800,0.902
47.3200,0.992
47.3600,0.946
47.4000,0.945
47.4400,0.895
47.4800,0.827
47.5200,0.922
47.5600,0.934
47.6000,0.951
47.6400,1.052
47.6800,1.078
47.7200,0.998
47.7600,1.018
47.8000,0.977
47.8400,0.992
47.8800,0.920
47.9200,0.924
47.9600,0.900
48.0000,0.898
48.0400,0.915
48.0800,0.946
48.1200,0.883
48.1600,0.901
48.2000,0.839
48.2400,0.921
48.2800,0.852
48.3200,0.913
48.3600,0.969
48.4000,0.952
48.4400,0.917
48.4800,0.882
48.5200,0.892
48.5600,0.940
48.6000,0.876
48.6400,0.915
48.6800,0.891
48.7200,0.915
48.7600,0.857
48.8000,0.826
48.8400,0.880
48.8800,0.858
48.9200,0.834
48.9600,0.844
49.0000,0.834
49.0400,0.873
49.0800,0.843
49.1200,0.816
49.1600,0.826
49.2000,0.799
49.2400,0.889
49.2800,0.861
49.3200,0.850
49.3600,0.887
49.4000,0.853
49.4400,0.885
49.4800,0.899
49.5200,0.883
49.5600,0.857
49.6000,0.868
49.6400,0.820
49.6800,0.824
49.7200,0.887
49.7600,0.877
49.8000,0.896
49.8400,0.888
49.8800,0.893
49.9200,0.939
49.9600,0.972
50.0000,0.975
50.0400,0.928
50.0800,0.941
50.1200,0.925
50.1600,0.850
50.2000,0.844
50.2400,0.859
50.2800,0.850
50.3200,0.844
50.3600,0.822
50.4000,0.868
50.4400,0.828
50.4800,0.872
50.5200,0.837
50.5600,0.808
50.6000,0.885
50.6400,0.831
50.6800,0.836
50.7200,0.862
50.7600,0.854
50.8000,0.820
50.8400,0.788
50.8800,0.834
50.9200,0.752
50.9600,0.733
51.0000,0.796
51.0400,0.814
51.0800,0.823
51.1200,0.795
51.1600,0.766
51.2000,0.845
51.2400,0.834
51.2800,0.821
51.3200,0.748
51.3600,0.861
51.4000,0.784
51.4400,0.830
51.4800,0.770
51.5200,0.817
51.5600,0.800
51.6000,0.875
51.6400,0.748
51.6800,0.768
51.7200,0.773
51.7600,0.765
51.8000,0.773
51.8400,0.753
51.8800,0.741
51.9200,0.787
51.9600,0.812
52.0000,0.761
52.0400,0.759
52.0800,0.760
52.1200,0.763
52.1600,0.807
52.2000,0.808
52.2400,0.791
52.2800,0.748
52.3200,0.738
52.3600,0.762
52.4000,0.758
52.4400,0.773
52.4800,0.737
52.5200,0.736
52.5600,0.805
52.6000,0.803
52.6400,0.833
52.6800,0.731
52.7200,0.753
52.7600,0.805
52.8000,0.721
52.8400,0.783
52.8800,0.752
52.9200,0.725
52.9600,0.718
53.0000,0.673
53.0400,0.786
53.0800,0.733
53.1200,0.722
53.1600,0.727
53.2000,0.681
53.2400,0.745
53.2800,0.705
53.3200,0.694
53.3600,0.746
53.4000,0.759
53.4400,0.753
53.4800,0.817
53.5200,0.722
53.5600,0.743
53.6000,0.706
53.6400,0.696
53.6800,0.727
53.7200,0.715
53.7600,0.748
53.8000,0.686
53.8400,0.761
53.8800,0.724
53.9200,0.764
53.9600,0.777
54.0000,0.714
54.0400,0.771
54.0800,0.780
54.1200,0.716
54.1600,0.747
54.2000,0.748
54.2400,0.707
54.2800,0.756
54.3200,0.730
54.3600,0.705
54.4000,0.751
54.4400,0.747
54.4800,0.729
54.5200,0.761
54.5600,0.749
54.6000,0.730
54.6400,0.777
54.6800,0.743
54.7200,0.744
54.7600,0.728
54.8000,0.757
54.8400,0.761
54.8800,0.813
54.9200,0.804
54.9600,0.845
55.0000,0.879
55.0400,0.936
55.0800,1.019
55.1200,1.088
55.1600,1.244
55.2000,1.314
55.2400,1.447
55.2800,1.584
55.3200,1.661
55.3600,1.826
55.4000,1.846
55.4400,1.745
55.4800,1.635
55.5200,1.584
55.5600,1.458
55.6000,1.340
55.6400,1.111
55.6800,1.122
55.7200,1.079
55.7600,1.021
55.8000,0.921
55.8400,0.901
55.8800,0.883
55.9200,0.830
55.9600,0.844
56.0000,0.782
56.0400,0.735
56.0800,0.717
56.1200,0.707
56.1600,0.708
56.2000,0.687
56.2400,0.693
56.2800,0.699
56.3200,0.735
56.3600,0.674
56.4000,0.695
56.4400,0.665
56.4800,0.643
56.5200,0.620
56.5600,0.707
56.6000,0.679
56.6400,0.646
56.6800,0.673
56.7200,0.683
56.7600,0.701
56.8000,0.654
56.8400,0.673
56.8800,0.641
56.9200,0.641
56.9600,0.659
57.0000,0.669
57.0400,0.621
57.0800,0.639
57.1200,0.636
57.1600,0.614
57.2000,0.624
57.2400,0.693
57.2800,0.650
57.3200,0.646
57.3600,0.620
57.4000,0.709
57.4400,0.648
57.4800,0.595
57.5200,0.653
57.5600,0.670
57.6000,0.645
57.6400,0.656
57.6800,0.664
57.7200,0.708
57.7600,0.660
57.8000,0.676
57.8400,0.632
57.8800,0.622
57.9200,0.625
57.9600,0.616
58.0000,0.621
58.0400,0.659
58.0800,0.616
58.1200,0.588
58.1600,0.688
58.2000,0.647
58.2400,0.615
58.2800,0.567
58.3200,0.574
58.3600,0.628
58.4000,0.631
58.4400,0.617
58.4800,0.606
58.5200,0.558
58.5600,0.622
58.6000,0.603
58.6400,0.643
58.6800,0.619
58.7200,0.591
58.7600,0.579
58.8000,0.609
58.8400,0.618
58.8800,0.584
58.9200,0.594
58.9600,0.618
59.0000,0.599
59.0400,0.593
59.0800,0.606
59.1200,0.551
59.1600,0.594
59.2000,0.567
59.2400,0.599
59.2800,0.654
59.3200,0.613
59.3600,0.620
59.4000,0.641
59.4400,0.587
59.4800,0.602
59.5200,0.598
59.5600,0.552
59.6000,0.608
59.6400,0.611
59.6800,0.610
59.7200,0.561
59.7600,0.558
59.8000,0.570
59.8400,0.583
59.8800,0.601
59.9200,0.544
59.9600,0.571
60.0000,0.581
60.0400,0.591
60.0800,0.550
60.1200,0.538
60.1600,0.562
60.2000,0.549
60.2400,0.569
60.2800,0.495
60.3200,0.549
60.3600,0.554
60.4000,0.634
60.4400,0.588
60.4800,0.600
60.5200,0.522
60.5600,0.532
60.6000,0.578
60.6400,0.559
60.6800,0.575
60.7200,0.551
60.7600,0.546
60.8000,0.566
60.8400,0.565
60.8800,0.547
60.9200,0.584
60.9600,0.570
61.0000,0.602
61.0400,0.606
61.0800,0.597
61.1200,0.638
61.1600,0.543
61.2000,0.579
61.2400,0.617
61.2800,0.566
61.3200,0.606
61.3600,0.664
61.4000,0.707
61.4400,0.688
61.4800,0.662
61.5200,0.648
61.5600,0.639
61.6000,0.586
61.6400,0.633
61.6800,0.533
61.7200,0.568
61.7600,0.539
61.8000,0.531
61.8400,0.540
61.8800,0.503
61.9200,0.529
61.9600,0.520
62.0000,0.511
62.0400,0.544
62.0800,0.541
62.1200,0.547
62.1600,0.535
62.2000,0.509
62.2400,0.507
62.2800,0.543
62.3200,0.537
62.3600,0.551
62.4000,0.489
62.4400,0.488
62.4800,0.519
62.5200,0.531
62.5600,0.534
62.6000,0.534
62.6400,0.540
62.6800,0.552
62.7200,0.549
62.7600,0.537
62.8000,0.496
62.8400,0.540
62.8800,0.514
62.9200,0.510
62.9600,0.536
63.0000,0.509
63.0400,0.500
63.0800,0.522
63.1200,0.462
63.1600,0.499
63.2000,0.517
63.2400,0.520
63.2800,0.509
63.3200,0.436
63.3600,0.486
63.4000,0.489
63.4400,0.499
63.4800,0.461
63.5200,0.443
63.5600,0.487
63.6000,0.461
63.6400,0.441
63.6800,0.488
63.7200,0.481
63.7600,0.484
63.8000,0.526
63.8400,0.475
63.8800,0.479
63.9200,0.468
63.9600,0.504
64.0000,0.454
64.0400,0.489
64.0800,0.420
64.1200,0.447
64.1600,0.487
64.2000,0.480
64.2400,0.472
64.2800,0.466
64.3200,0.543
64.3600,0.543
64.4000,0.523
64.4400,0.613
64.4800,0.647
64.5200,0.659
64.5600,0.580
64.6000,0.546
64.6400,0.582
64.6800,0.593
64.7200,0.561
64.7600,0.534
64.8000,0.467
64.8400,0.474
64.8800,0.491
64.9200,0.517
64.9600,0.496
65.0000,0.530
65.0400,0.503
65.0800,0.496
65.1200,0.509
65.1600,0.482
65.2000,0.474
65.2400,0.477
65.2800,0.516
65.3200,0.484
65.3600,0.528
65.4000,0.542
65.4400,0.559
65.4800,0.521
65.5200,0.540
65.5600,0.523
65.6000,0.563
65.6400,0.586
65.6800,0.650
65.7200,0.659
65.7600,0.747
65.8000,0.811
65.8400,0.832
65.8800,0.928
65.9200,1.030
65.9600,1.035
66.0000,1.098
66.0400,1.051
66.0800,1.056
66.1200,0.981
66.1600,0.960
66.2000,0.874
66.2400,0.819
66.2800,0.777
66.3200,0.753
66.3600,0.672
66.4000,0.660
66.4400,0.609
66.4800,0.547
66.5200,0.546
66.5600,0.550
66.6000,0.549
66.6400,0.539
66.6800,0.534
66.7200,0.578
66.7600,0.565
66.8000,0.650
66.8400,0.842
66.8800,1.127
66.9200,1.058
66.9600,0.879
67.0000,0.783
67.0400,0.783
67.0800,0.849
67.1200,0.782
67.1600,0.626
67.2000,0.552
67.2400,0.495
67.2800,0.461
67.3200,0.450
67.3600,0.453
67.4000,0.450
67.4400,0.442
67.4800,0.475
67.5200,0.446
67.5600,0.519
67.6000,0.453
67.6400,0.477
67.6800,0.464
67.7200,0.419
67.7600,0.472
67.8000,0.481
67.8400,0.473
67.8800,0.395
67.9200,0.440
67.9600,0.420
68.0000,0.412
68.0400,0.398
68.0800,0.416
68.1200,0.423
68.1600,0.419
68.2000,0.394
68.2400,0.426
68.2800,0.464
68.3200,0.385
68.3600,0.390
68.4000,0.393
68.4400,0.409
68.4800,0.434
68.5200,0.459
68.5600,0.427
68.6000,0.429
68.6400,0.442
68.6800,0.417
68.7200,0.425
68.7600,0.466
68.8000,0.456
68.8400,0.481
68.8800,0.478
68.9200,0.511
68.9600,0.562
69.0000,0.831
69.0400,0.952
69.0800,0.940
69.1200,0.839
69.1600,0.855
69.2000,0.864
69.2400,0.848
69.2800,0.861
69.3200,0.775
69.3600,0.800
69.4000,0.719
69.4400,0.638
69.4800,0.637
69.5200,0.596
69.5600,0.591
69.6000,0.551
69.6400,0.500
69.6800,0.437
69.7200,0.440
69.7600,0.444
69.8000,0.445
69.8400,0.430
69.8800,0.411
69.9200,0.460
69.9600,0.468
70.0000,0.431
70.0400,0.437
70.0800,0.492
70.1200,0.456
70.1600,0.406
70.2000,0.418
70.2400,0.423
70.2800,0.405
70.3200,0.400
70.3600,0.386
70.4000,0.402
70.4400,0.388
70.4800,0.368
70.5200,0.360
70.5600,0.382
70.6000,0.350
70.6400,0.375
70.6800,0.408
70.7200,0.374
70.7600,0.365
70.8000,0.416
70.8400,0.407
70.8800,0.371
70.9200,0.359
70.9600,0.400
71.0000,0.328
71.0400,0.359
71.0800,0.367
71.1200,0.364
71.1600,0.369
71.2000,0.349
71.2400,0.339
71.2800,0.397
71.3200,0.372
71.3600,0.353
71.4000,0.393
71.4400,0.371
71.4800,0.366
71.5200,0.371
71.5600,0.355
71.6000,0.390
71.6400,0.381
71.6800,0.361
71.7200,0.349
71.7600,0.335
71.8000,0.385
71.8400,0.350
71.8800,0.371
71.9200,0.327
71.9600,0.340
72.0000,0.356
72.0400,0.387
72.0800,0.360
72.1200,0.369
72.1600,0.386
72.2000,0.458
72.2400,0.499
72.2800,0.560
72.3200,0.476
72.3600,0.456
72.4000,0.416
72.4400,0.421
72.4800,0.459
72.5200,0.438
72.5600,0.436
72.6000,0.391
72.6400,0.379
72.6800,0.367
72.7200,0.347
72.7600,0.363
72.8000,0.377
72.8400,0.374
72.8800,0.366
72.9200,0.392
72.9600,0.376
73.0000,0.412
73.0400,0.426
73.0800,0.454
73.1200,0.597
73.1600,0.732
73.2000,0.725
73.2400,0.672
73.2800,0.540
73.3200,0.511
73.3600,0.558
73.4000,0.580
73.4400,0.575
73.4800,0.536
73.5200,0.420
73.5600,0.381
73.6000,0.358
73.6400,0.344
73.6800,0.355
73.7200,0.394
73.7600,0.401
73.8000,0.400
73.8400,0.386
73.8800,0.428
73.9200,0.426
73.9600,0.373
74.0000,0.411
74.0400,0.356
74.0800,0.391
74.1200,0.367
74.1600,0.364
74.2000,0.349
74.2400,0.363
74.2800,0.364
74.3200,0.381
74.3600,0.375
74.4000,0.355
74.4400,0.342
74.4800,0.382
74.5200,0.347
74.5600,0.368
74.6000,0.367
74.6400,0.335
74.6800,0.358
74.7200,0.389
74.7600,0.361
74.8000,0.375
74.8400,0.377
74.8800,0.384
74.9200,0.401
74.9600,0.335
75.0000,0.338
75.0400,0.328
75.0800,0.349
75.1200,0.343
75.1600,0.369
75.2000,0.354
75.2400,0.314
75.2800,0.332
75.3200,0.326
75.3600,0.317
75.4000,0.331
75.4400,0.334
75.4800,0.318
75.5200,0.385
75.5600,0.317
75.6000,0.312
75.6400,0.335
75.6800,0.370
75.7200,0.328
75.7600,0.330
75.8000,0.368
75.8400,0.360
75.8800,0.348
75.9200,0.396
75.9600,0.494
76.0000,0.661
76.0400,0.742
76.0800,0.588
76.1200,0.506
76.1600,0.475
76.2000,0.482
76.2400,0.517
76.2800,0.560
76.3200,0.461
76.3600,0.386
76.4000,0.359
76.4400,0.352
76.4800,0.330
76.5200,0.317
76.5600,0.294
76.6000,0.292
76.6400,0.312
76.6800,0.298
76.7200,0.292
76.7600,0.349
76.8000,0.275
76.8400,0.322
76.8800,0.317
76.9200,0.303
76.9600,0.303
77.0000,0.303
77.0400,0.303
77.0800,0.329
77.1200,0.282
77.1600,0.316
77.2000,0.326
77.2400,0.327
77.2800,0.310
77.3200,0.335
77.3600,0.326
77.4000,0.305
77.4400,0.324
77.4800,0.288
77.5200,0.307
77.5600,0.307
77.6000,0.313
77.6400,0.316
77.6800,0.296
77.7200,0.298
77.7600,0.334
77.8000,0.317
77.8400,0.322
77.8800,0.309
77.9200,0.301
77.9600,0.306
78.0000,0.309
78.0400,0.306
78.0800,0.314
78.1200,0.283
78.1600,0.308
78.2000,0.291
78.2400,0.313
78.2800,0.365
78.3200,0.329
78.3600,0.339
78.4000,0.358
78.4400,0.324
78.4800,0.326
78.5200,0.293
78.5600,0.310
78.6000,0.316
78.6400,0.318
78.6800,0.309
78.7200,0.331
78.7600,0.302
78.8000,0.285
78.8400,0.273
78.8800,0.298
78.9200,0.300
78.9600,0.291
79.0000,0.295
79.0400,0.299
79.0800,0.346
79.1200,0.301
79.1600,0.320
79.2000,0.317
79.2400,0.312
79.2800,0.289
79.3200,0.321
79.3600,0.298
79.4000,0.322
79.4400,0.297
79.4800,0.303
79.5200,0.298
79.5600,0.294
79.6000,0.304
79.6400,0.316
79.6800,0.284
79.7200,0.316
79.7600,0.302
79.8000,0.318
79.8400,0.300
79.8800,0.295
79.9200,0.305
79.9600,0.319
80.0000,0.294
