theta,intensity
5.0000,2.875
5.0400,2.858
5.0800,2.946
5.1200,2.740
5.1600,2.774
5.2000,2.716
5.2400,2.868
5.2800,2.627
5.3200,2.599
5.3600,2.674
5.4000,2.691
5.4400,2.570
5.4800,2.636
5.5200,2.666
5.5600,2.623
5.6000,2.608
5.6400,2.599
5.6800,2.530
5.7200,2.491
5.7600,2.519
5.8000,2.472
5.8400,2.489
5.8800,2.408
5.9200,2.434
5.9600,2.356
6.0000,2.398
6.0400,2.341
6.0800,2.392
6.1200,2.375
6.1600,2.365
6.2000,2.378
6.2400,2.335
6.2800,2.242
6.3200,2.270
6.3600,2.223
6.4000,2.190
6.4400,2.248
6.4800,2.184
6.5200,2.112
6.5600,2.150
6.6000,2.061
6.6400,2.040
6.6800,2.002
6.7200,1.941
6.7600,2.027
6.8000,1.884
6.8400,1.902
6.8800,1.879
6.9200,1.854
6.9600,1.876
7.0000,1.849
7.0400,1.731
7.0800,1.773
7.1200,1.786
7.1600,1.713
7.2000,1.762
7.2400,1.669
7.2800,1.672
7.3200,1.696
7.3600,1.693
7.4000,1.597
7.4400,1.596
7.4800,1.596
7.5200,1.569
7.5600,1.613
7.6000,1.635
7.6400,1.595
7.6800,1.612
7.7200,1.575
7.7600,1.568
7.8000,1.566
7.8400,1.501
7.8800,1.505
7.9200,1.546
7.9600,1.562
8.0000,1.505
8.0400,1.536
8.0800,1.491
8.1200,1.506
8.1600,1.468
8.2000,1.505
8.2400,1.474
8.2800,1.460
8.3200,1.441
8.3600,1.495
8.4000,1.423
8.4400,1.446
8.4800,1.443
8.5200,1.457
8.5600,1.420
8.6000,1.520
8.6400,1.490
8.6800,1.478
8.7200,1.437
8.7600,1.452
8.8000,1.431
8.8400,1.471
8.8800,1.432
8.9200,1.478
8.9600,1.476
9.0000,1.453
9.0400,1.405
9.0800,1.394
9.1200,1.456
9.1600,1.484
9.2000,1.481
9.2400,1.388
9.2800,1.412
9.3200,1.415
9.3600,1.477
9.4000,1.457
9.4400,1.414
9.4800,1.336
9.5200,1.370
9.5600,1.405
9.6000,1.424
9.6400,1.455
9.6800,1.434
9.7200,1.372
9.7600,1.421
9.8000,1.382
9.8400,1.466
9.8800,1.422
9.9200,1.361
9.9600,1.374
10.0000,1.433
10.0400,1.466
10.0800,1.444
10.1200,1.399
10.1600,1.355
10.2000,1.351
10.2400,1.368
10.2800,1.425
10.3200,1.402
10.3600,1.338
10.4000,1.379
10.4400,1.358
10.4800,1.347
10.5200,1.316
10.5600,1.371
10.6000,1.373
10.6400,1.378
10.6800,1.361
10.7200,1.422
10.7600,1.393
10.8000,1.422
10.8400,1.421
10.8800,1.394
10.9200,1.369
10.9600,1.322
11.0000,1.338
11.0400,1.412
11.0800,1.315
11.1200,1.388
11.1600,1.408
11.2000,1.400
11.2400,1.400
11.2800,1.368
11.3200,1.346
11.3600,1.357
11.4000,1.386
11.4400,1.312
11.4800,1.396
11.5200,1.374
11.5600,1.307
11.6000,1.324
11.6400,1.377
11.6800,1.312
11.7200,1.316
11.7600,1.362
11.8000,1.285
11.8400,1.336
11.8800,1.391
11.9200,1.360
11.9600,1.338
12.0000,1.375
12.0400,1.326
12.0800,1.306
12.1200,1.332
12.1600,1.365
12.2000,1.398
12.2400,1.362
12.2800,1.351
12.3200,1.271
12.3600,1.313
12.4000,1.326
12.4400,1.277
12.4800,1.251
12.5200,1.343
12.5600,1.313
12.6000,1.348
12.6400,1.292
12.6800,1.265
12.7200,1.313
12.7600,1.305
12.8000,1.313
12.8400,1.253
12.8800,1.236
12.9200,1.310
12.9600,1.303
13.0000,1.298
13.0400,1.335
13.0800,1.265
13.1200,1.344
13.1600,1.272
13.2000,1.277
13.2400,1.293
13.2800,1.274
13.3200,1.280
13.3600,1.294
13.4000,1.344
13.4400,1.280
13.4800,1.274
13.5200,1.258
13.5600,1.289
13.6000,1.298
13.6400,1.222
13.6800,1.292
13.7200,1.260
13.7600,1.349
13.8000,1.310
13.8400,1.277
13.8800,1.246
13.9200,1.285
13.9600,1.241
14.0000,1.311
14.0400,1.280
14.0800,1.243
14.1200,1.280
14.1600,1.278
14.2000,1.232
14.2400,1.276
14.2800,1.256
14.3200,1.253
14.3600,1.294
14.4000,1.256
14.4400,1.297
14.4800,1.311
14.5200,1.295
14.5600,1.265
14.6000,1.278
14.6400,1.248
14.6800,1.281
14.7200,1.242
14.7600,1.231
14.8000,1.300
14.8400,1.215
14.8800,1.244
14.9200,1.244
14.9600,1.234
15.0000,1.204
15.0400,1.303
15.0800,1.259
15.1200,1.248
15.1600,1.235
15.2000,1.272
15.2400,1.270
15.2800,1.288
15.3200,1.238
15.3600,1.245
15.4000,1.257
15.4400,1.191
15.4800,1.231
15.5200,1.235
15.5600,1.232
15.6000,1.246
15.6400,1.213
15.6800,1.230
15.7200,1.232
15.7600,1.222
15.8000,1.243
15.8400,1.228
15.8800,1.189
15.9200,1.279
15.9600,1.249
16.0000,1.211
16.0400,1.256
16.0800,1.240
16.1200,1.214
16.1600,1.248
16.2000,1.270
16.2400,1.222
16.2800,1.209
16.3200,1.252
16.3600,1.226
16.4000,1.257
16.4400,1.215
16.4800,1.250
16.5200,1.240
16.5600,1.272
16.6000,1.273
16.6400,1.242
16.6800,1.264
16.7200,1.262
16.7600,1.263
16.8000,1.241
16.8400,1.207
16.8800,1.223
16.9200,1.237
16.9600,1.238
17.0000,1.207
17.0400,1.213
17.0800,1.208
17.1200,1.231
17.1600,1.203
17.2000,1.228
17.2400,1.237
17.2800,1.251
17.3200,1.220
17.3600,1.274
17.4000,1.215
17.4400,1.211
17.4800,1.222
17.5200,1.225
17.5600,1.210
17.6000,1.285
17.6400,1.249
17.6800,1.246
17.7200,1.182
17.7600,1.219
17.8000,1.187
17.8400,1.173
17.8800,1.264
17.9200,1.205
17.9600,1.250
18.0000,1.241
18.0400,1.246
18.0800,1.267
18.1200,1.249
18.1600,1.227
18.2000,1.249
18.2400,1.254
18.2800,1.197
18.3200,1.278
18.3600,1.211
18.4000,1.189
18.4400,1.262
18.4800,1.237
18.5200,1.197
18.5600,1.205
18.6000,1.223
18.6400,1.214
18.6800,1.159
18.7200,1.204
18.7600,1.200
18.8000,1.210
18.8400,1.199
18.8800,1.270
18.9200,1.247
18.9600,1.222
19.0000,1.234
19.0400,1.215
19.0800,1.243
19.1200,1.216
19.1600,1.203
19.2000,1.187
19.2400,1.199
19.2800,1.174
19.3200,1.262
19.3600,1.213
19.4000,1.195
19.4400,1.191
19.4800,1.242
19.5200,1.207
19.5600,1.202
19.6000,1.247
19.6400,1.252
19.6800,1.229
19.7200,1.238
19.7600,1.216
19.8000,1.179
19.8400,1.247
19.8800,1.237
19.9200,1.219
19.9600,1.230
20.0000,1.227
20.0400,1.267
20.0800,1.238
20.1200,1.235
20.1600,1.244
20.2000,1.203
20.2400,1.218
20.2800,1.220
20.3200,1.165
20.3600,1.201
20.4000,1.213
20.4400,1.201
20.4800,1.248
20.5200,1.223
20.5600,1.207
20.6000,1.206
20.6400,1.197
20.6800,1.234
20.7200,1.187
20.7600,1.185
20.8000,1.252
20.8400,1.210
20.8800,1.193
20.9200,1.200
20.9600,1.242
21.0000,1.261
21.0400,1.185
21.0800,1.242
21.1200,1.215
21.1600,1.247
21.2000,1.218
21.2400,1.203
21.2800,1.278
21.3200,1.277
21.3600,1.277
21.4000,1.239
21.4400,1.256
21.4800,1.289
21.5200,1.257
21.5600,1.322
21.6000,1.275
21.6400,1.243
21.6800,1.272
21.7200,1.247
21.7600,1.236
21.8000,1.250
21.8400,1.188
21.8800,1.242
21.9200,1.219
21.9600,1.186
22.0000,1.254
22.0400,1.259
22.0800,1.277
22.1200,1.308
22.1600,1.257
22.2000,1.239
22.2400,1.267
22.2800,1.278
22.3200,1.211
22.3600,1.285
22.4000,1.243
22.4400,1.247
22.4800,1.219
22.5200,1.250
22.5600,1.214
22.6000,1.227
22.6400,1.165
22.6800,1.152
22.7200,1.249
22.7600,1.202
22.8000,1.188
22.8400,1.158
22.8800,1.206
22.9200,1.164
22.9600,1.170
23.0000,1.130
23.0400,1.132
23.0800,1.107
23.1200,1.135
23.1600,1.141
23.2000,1.164
23.2400,1.153
23.2800,1.150
23.3200,1.132
23.3600,1.125
23.4000,1.113
23.4400,1.097
23.4800,1.082
23.5200,1.049
23.5600,1.097
23.6000,1.109
23.6400,1.113
23.6800,1.072
23.7200,1.078
23.7600,1.137
23.8000,1.069
23.8400,1.138
23.8800,1.136
23.9200,1.065
23.9600,1.131
24.0000,1.113
24.0400,1.075
24.0800,1.086
24.1200,1.064
24.1600,1.090
24.2000,1.070
24.2400,1.051
24.2800,1.085
24.3200,1.069
24.3600,1.053
24.4000,1.038
24.4400,1.033
24.4800,1.028
24.5200,1.038
24.5600,1.041
24.6000,1.047
24.6400,1.069
24.6800,1.057
24.7200,1.024
24.7600,1.041
24.8000,1.047
24.8400,1.001
24.8800,1.034
24.9200,0.990
24.9600,0.994
25.0000,0.997
25.0400,0.998
25.0800,1.032
25.1200,0.979
25.1600,1.071
25.2000,0.987
25.2400,1.021
25.2800,1.005
25.3200,0.978
25.3600,0.977
25.4000,0.944
25.4400,0.947
25.4800,0.984
25.5200,1.006
25.5600,0.965
25.6000,0.959
25.6400,1.002
25.6800,0.948
25.7200,0.984
25.7600,0.944
25.8000,0.967
25.8400,0.965
25.8800,0.947
25.9200,0.986
25.9600,0.957
26.0000,0.949
26.0400,0.948
26.0800,0.906
26.1200,0.969
26.1600,0.922
26.2000,0.969
26.2400,0.923
26.2800,0.914
26.3200,0.902
26.3600,0.868
26.4000,0.914
26.4400,0.901
26.4800,0.895
26.5200,0.920
26.5600,0.900
26.6000,0.888
26.6400,0.862
26.6800,0.843
26.7200,0.883
26.7600,0.877
26.8000,0.900
26.8400,0.847
26.8800,0.906
26.9200,0.866
26.9600,0.881
27.0000,0.830
27.0400,0.874
27.0800,0.862
27.1200,0.851
27.1600,0.865
27.2000,0.884
27.2400,0.867
27.2800,0.862
27.3200,0.862
27.3600,0.855
27.4000,0.811
27.4400,0.854
27.4800,0.821
27.5200,0.805
27.5600,0.850
27.6000,0.775
27.6400,0.805
27.6800,0.804
27.7200,0.782
27.7600,0.828
27.8000,0.826
27.8400,0.830
27.8800,0.786
27.9200,0.774
27.9600,0.773
28.0000,0.759
28.0400,0.781
28.0800,0.776
28.1200,0.791
28.1600,0.781
28.2000,0.822
28.2400,0.801
28.2800,0.744
28.3200,0.798
28.3600,0.805
28.4000,0.742
28.4400,0.782
28.4800,0.770
28.5200,0.789
28.5600,0.760
28.6000,0.799
28.6400,0.777
28.6800,0.767
28.7200,0.766
28.7600,0.801
28.8000,0.746
28.8400,0.801
28.8800,0.771
28.9200,0.736
28.9600,0.741
29.0000,0.741
29.0400,0.773
29.0800,0.735
29.1200,0.772
29.1600,0.799
29.2000,0.725
29.2400,0.730
29.2800,0.707
29.3200,0.726
29.3600,0.729
29.4000,0.741
29.4400,0.731
29.4800,0.753
29.5200,0.754
29.5600,0.809
29.6000,0.752
29.6400,0.741
29.6800,0.756
29.7200,0.741
29.7600,0.793
29.8000,0.743
29.8400,0.778
29.8800,0.769
29.9200,0.720
29.9600,0.789
30.0000,0.796
30.0400,0.793
30.0800,0.821
30.1200,0.791
30.1600,0.790
30.2000,0.803
30.2400,0.855
30.2800,0.872
30.3200,0.937
30.3600,1.021
30.4000,1.077
30.4400,1.155
30.4800,1.274
30.5200,1.332
30.5600,1.470
30.6000,1.471
30.6400,1.455
30.6800,1.378
30.7200,1.299
30.7600,1.316
30.8000,1.347
30.8400,1.335
30.8800,1.335
30.9200,1.347
30.9600,1.436
31.0000,1.481
31.0400,1.464
31.0800,1.529
31.1200,1.495
31.1600,1.456
31.2000,1.458
31.2400,1.413
31.2800,1.416
31.3200,1.351
31.3600,1.397
31.4000,1.314
31.4400,1.258
31.4800,1.249
31.5200,1.204
31.5600,1.146
31.6000,1.135
31.6400,1.132
31.6800,1.095
31.7200,1.168
31.7600,1.278
31.8000,1.208
31.8400,1.312
31.8800,1.237
31.9200,1.204
31.9600,1.143
32.0000,1.115
32.0400,1.170
32.0800,1.192
32.1200,1.230
32.1600,1.285
32.2000,1.308
32.2400,1.414
32.2800,1.463
32.3200,1.550
32.3600,1.603
32.4000,1.761
32.4400,1.826
32.4800,1.834
32.5200,1.825
32.5600,1.832
32.6000,1.804
32.6400,1.642
32.6800,1.469
32.7200,1.426
32.7600,1.283
32.8000,1.196
32.8400,1.128
32.8800,1.059
32.9200,0.978
32.9600,1.044
33.0000,0.995
33.0400,0.972
33.0800,0.909
33.1200,0.845
33.1600,0.730
33.2000,0.754
33.2400,0.689
33.2800,0.682
33.3200,0.672
33.3600,0.641
33.4000,0.678
33.4400,0.645
33.4800,0.628
33.5200,0.620
33.5600,0.645
33.6000,0.589
33.6400,0.633
33.6800,0.628
33.7200,0.585
33.7600,0.617
33.8000,0.590
33.8400,0.575
33.8800,0.599
33.9200,0.557
33.9600,0.587
34.0000,0.602
34.0400,0.579
34.0800,0.548
34.1200,0.557
34.1600,0.581
34.2000,0.609
34.2400,0.578
34.2800,0.558
34.3200,0.578
34.3600,0.548
34.4000,0.585
34.4400,0.540
34.4800,0.563
34.5200,0.562
34.5600,0.571
34.6000,0.544
34.6400,0.587
34.6800,0.654
34.7200,0.688
34.7600,0.691
34.8000,0.683
34.8400,0.613
34.8800,0.629
34.9200,0.570
34.9600,0.538
35.0000,0.581
35.0400,0.534
35.0800,0.547
35.1200,0.565
35.1600,0.557
35.2000,0.593
35.2400,0.610
35.2800,0.588
35.3200,0.586
35.3600,0.643
35.4000,0.663
35.4400,0.663
35.4800,0.704
35.5200,0.655
35.5600,0.621
35.6000,0.603
35.6400,0.585
35.6800,0.540
35.7200,0.545
35.7600,0.543
35.8000,0.547
35.8400,0.488
35.8800,0.516
35.9200,0.532
35.9600,0.504
36.0000,0.509
36.0400,0.519
36.0800,0.523
36.1200,0.517
36.1600,0.509
36.2000,0.511
36.2400,0.530
36.2800,0.493
36.3200,0.507
36.3600,0.527
36.4000,0.491
36.4400,0.498
36.4800,0.544
36.5200,0.502
36.5600,0.531
36.6000,0.534
36.6400,0.530
36.6800,0.535
36.7200,0.504
36.7600,0.510
36.8000,0.506
36.8400,0.489
36.8800,0.492
36.9200,0.484
36.9600,0.499
37.0000,0.500
37.0400,0.498
37.0800,0.495
37.1200,0.517
37.1600,0.518
37.2000,0.558
37.2400,0.560
37.2800,0.538
37.3200,0.510
37.3600,0.532
37.4000,0.538
37.4400,0.531
37.4800,0.548
37.5200,0.552
37.5600,0.551
37.6000,0.565
37.6400,0.502
37.6800,0.553
37.7200,0.544
37.7600,0.508
37.8000,0.463
37.8400,0.497
37.8800,0.476
37.9200,0.503
37.9600,0.499
38.0000,0.479
38.0400,0.496
38.0800,0.479
38.1200,0.492
38.1600,0.481
38.2000,0.513
38.2400,0.588
38.2800,0.777
38.3200,0.960
38.3600,0.985
38.4000,1.023
38.4400,0.851
38.4800,0.729
38.5200,0.643
38.5600,0.577
38.6000,0.464
38.6400,0.470
38.6800,0.481
38.7200,0.461
38.7600,0.449
38.8000,0.456
38.8400,0.440
38.8800,0.427
38.9200,0.482
38.9600,0.467
39.0000,0.465
39.0400,0.443
39.0800,0.451
39.1200,0.449
39.1600,0.436
39.2000,0.451
39.2400,0.444
39.2800,0.450
39.3200,0.430
39.3600,0.444
39.4000,0.427
39.4400,0.457
39.4800,0.425
39.5200,0.420
39.5600,0.420
39.6000,0.411
39.6400,0.438
39.6800,0.428
39.7200,0.400
39.7600,0.416
39.8000,0.415
39.8400,0.444
39.8800,0.416
39.9200,0.402
39.9600,0.431
40.0000,0.419
40.0400,0.418
40.0800,0.445
40.1200,0.392
40.1600,0.396
40.2000,0.396
40.2400,0.416
40.2800,0.426
40.3200,0.448
40.3600,0.425
40.4000,0.408
40.4400,0.389
40.4800,0.407
40.5200,0.384
40.5600,0.398
40.6000,0.413
40.6400,0.425
40.6800,0.398
40.7200,0.410
40.7600,0.424
40.8000,0.439
40.8400,0.405
40.8800,0.365
40.9200,0.374
40.9600,0.395
41.0000,0.393
41.0400,0.421
41.0800,0.358
41.1200,0.376
41.1600,0.400
41.2000,0.360
41.2400,0.414
41.2800,0.402
41.3200,0.384
41.3600,0.384
41.4000,0.408
41.4400,0.391
41.4800,0.416
41.5200,0.376
41.5600,0.375
41.6000,0.417
41.6400,0.403
41.6800,0.398
41.7200,0.427
41.7600,0.451
41.8000,0.400
41.8400,0.396
41.8800,0.408
41.9200,0.408
41.9600,0.378
42.0000,0.406
42.0400,0.417
42.0800,0.424
42.1200,0.391
42.1600,0.401
42.2000,0.400
42.2400,0.395
42.2800,0.386
42.3200,0.392
42.3600,0.369
42.4000,0.402
42.4400,0.360
42.4800,0.379
42.5200,0.396
42.5600,0.376
42.6000,0.367
42.6400,0.386
42.6800,0.424
42.7200,0.400
42.7600,0.372
42.8000,0.391
42.8400,0.390
42.8800,0.376
42.9200,0.375
42.9600,0.379
43.0000,0.390
43.0400,0.359
43.0800,0.374
43.1200,0.384
43.1600,0.397
43.2000,0.355
43.2400,0.346
43.2800,0.372
43.3200,0.348
43.3600,0.361
43.4000,0.359
43.4400,0.383
43.4800,0.397
43.5200,0.353
43.5600,0.364
43.6000,0.415
43.6400,0.357
43.6800,0.361
43.7200,0.366
43.7600,0.364
43.8000,0.400
43.8400,0.354
43.8800,0.383
43.9200,0.362
43.9600,0.400
44.0000,0.381
44.0400,0.377
44.0800,0.375
44.1200,0.385
44.1600,0.389
44.2000,0.334
44.2400,0.370
44.2800,0.338
44.3200,0.381
44.3600,0.379
44.4000,0.352
44.4400,0.374
44.4800,0.377
44.5200,0.366
44.5600,0.372
44.6000,0.363
44.6400,0.349
44.6800,0.375
44.7200,0.364
44.7600,0.385
44.8000,0.400
44.8400,0.383
44.8800,0.389
44.9200,0.389
44.9600,0.387
45.0000,0.406
45.0400,0.412
45.0800,0.413
45.1200,0.405
45.1600,0.412
45.2000,0.462
45.2400,0.462
45.2800,0.474
45.3200,0.490
45.3600,0.484
45.4000,0.479
45.4400,0.509
45.4800,0.487
45.5200,0.586
45.5600,0.558
45.6000,0.586
45.6400,0.575
45.6800,0.607
45.7200,0.590
45.7600,0.576
45.8000,0.577
45.8400,0.586
45.8800,0.535
45.9200,0.493
45.9600,0.474
46.0000,0.494
46.0400,0.458
46.0800,0.476
46.1200,0.437
46.1600,0.431
46.2000,0.423
46.2400,0.390
46.2800,0.395
46.3200,0.387
46.3600,0.391
46.4000,0.381
46.4400,0.344
46.4800,0.363
46.5200,0.356
46.5600,0.379
46.6000,0.347
46.6400,0.351
46.6800,0.339
46.7200,0.359
46.7600,0.346
46.8000,0.321
46.8400,0.336
46.8800,0.331
46.9200,0.314
46.9600,0.331
47.0000,0.329
47.0400,0.329
47.0800,0.303
47.1200,0.311
47.1600,0.326
47.2000,0.326
47.2400,0.297
47.2800,0.311
47.3200,0.322
47.3600,0.287
47.4000,0.335
47.4400,0.318
47.4800,0.304
47.5200,0.343
47.5600,0.334
47.6000,0.316
47.6400,0.314
47.6800,0.307
47.7200,0.334
47.7600,0.327
47.8000,0.366
47.8400,0.366
47.8800,0.374
47.9200,0.338
47.9600,0.331
48.0000,0.365
48.0400,0.301
48.0800,0.321
48.1200,0.329
48.1600,0.314
48.2000,0.339
48.2400,0.305
48.2800,0.312
48.3200,0.305
48.3600,0.316
48.4000,0.332
48.4400,0.314
48.4800,0.314
48.5200,0.306
48.5600,0.307
48.6000,0.317
48.6400,0.343
48.6800,0.288
48.7200,0.335
48.7600,0.306
48.8000,0.307
48.8400,0.312
48.8800,0.305
48.9200,0.303
48.9600,0.324
49.0000,0.316
49.0400,0.298
49.0800,0.313
49.1200,0.330
49.1600,0.304
49.2000,0.337
49.2400,0.340
49.2800,0.328
49.3200,0.355
49.3600,0.341
49.4000,0.357
49.4400,0.325
49.4800,0.334
49.5200,0.351
49.5600,0.318
49.6000,0.345
49.6400,0.366
49.6800,0.342
49.7200,0.343
49.7600,0.352
49.8000,0.407
49.8400,0.351
49.8800,0.395
49.9200,0.414
49.9600,0.378
50.0000,0.393
50.0400,0.425
50.0800,0.403
50.1200,0.408
50.1600,0.409
50.2000,0.402
50.2400,0.368
50.2800,0.355
50.3200,0.380
50.3600,0.356
50.4000,0.404
50.4400,0.378
50.4800,0.338
50.5200,0.381
50.5600,0.354
50.6000,0.359
50.6400,0.342
50.6800,0.357
50.7200,0.391
50.7600,0.377
50.8000,0.377
50.8400,0.371
50.8800,0.380
50.9200,0.385
50.9600,0.412
51.0000,0.392
51.0400,0.391
51.0800,0.408
51.1200,0.367
51.1600,0.370
51.2000,0.329
51.2400,0.331
51.2800,0.331
51.3200,0.320
51.3600,0.305
51.4000,0.288
51.4400,0.286
51.4800,0.297
51.5200,0.311
51.5600,0.275
51.6000,0.306
51.6400,0.257
51.6800,0.292
51.7200,0.257
51.7600,0.275
51.8000,0.265
51.8400,0.258
51.8800,0.276
51.9200,0.274
51.9600,0.268
52.0000,0.285
52.0400,0.270
52.0800,0.291
52.1200,0.308
52.1600,0.286
52.2000,0.288
52.2400,0.280
52.2800,0.282
52.3200,0.256
52.3600,0.289
52.4000,0.267
52.4400,0.293
52.4800,0.251
52.5200,0.265
52.5600,0.235
52.6000,0.270
52.6400,0.285
52.6800,0.266
52.7200,0.279
52.7600,0.280
52.8000,0.269
52.8400,0.263
52.8800,0.275
52.9200,0.291
52.9600,0.256
53.0000,0.251
53.0400,0.251
53.0800,0.290
53.1200,0.242
53.1600,0.261
53.2000,0.257
53.2400,0.264
53.2800,0.255
53.3200,0.264
53.3600,0.265
53.4000,0.268
53.4400,0.233
53.4800,0.269
53.5200,0.255
53.5600,0.256
53.6000,0.235
53.6400,0.248
53.6800,0.249
53.7200,0.254
53.7600,0.268
53.8000,0.260
53.8400,0.275
53.8800,0.269
53.9200,0.265
53.9600,0.267
54.0000,0.281
54.0400,0.275
54.0800,0.280
54.1200,0.281
54.1600,0.258
54.2000,0.277
54.2400,0.274
54.2800,0.278
54.3200,0.271
54.3600,0.271
54.4000,0.305
54.4400,0.279
54.4800,0.272
54.5200,0.259
54.5600,0.255
54.6000,0.296
54.6400,0.258
54.6800,0.240
54.7200,0.267
54.7600,0.254
54.8000,0.266
54.8400,0.267
54.8800,0.273
54.9200,0.256
54.9600,0.261
55.0000,0.278
55.0400,0.256
55.0800,0.273
55.1200,0.253
55.1600,0.291
55.2000,0.286
55.2400,0.287
55.2800,0.241
55.3200,0.285
55.3600,0.262
55.4000,0.278
55.4400,0.268
55.4800,0.271
55.5200,0.275
55.5600,0.256
55.6000,0.253
55.6400,0.288
55.6800,0.257
55.7200,0.257
55.7600,0.263
55.8000,0.252
55.8400,0.243
55.8800,0.274
55.9200,0.268
55.9600,0.285
56.0000,0.245
56.0400,0.254
56.0800,0.270
56.1200,0.272
56.1600,0.275
56.2000,0.261
56.2400,0.284
56.2800,0.269
56.3200,0.254
56.3600,0.302
56.4000,0.270
56.4400,0.290
56.4800,0.270
56.5200,0.277
56.5600,0.285
56.6000,0.299
56.6400,0.283
56.6800,0.299
56.7200,0.281
56.7600,0.274
56.8000,0.316
56.8400,0.314
56.8800,0.341
56.9200,0.351
56.9600,0.358
57.0000,0.357
57.0400,0.396
57.0800,0.385
57.1200,0.370
57.1600,0.398
57.2000,0.378
57.2400,0.394
57.2800,0.399
57.3200,0.392
57.3600,0.385
57.4000,0.395
57.4400,0.378
57.4800,0.367
57.5200,0.384
57.5600,0.397
57.6000,0.359
57.6400,0.347
57.6800,0.390
57.7200,0.367
57.7600,0.388
57.8000,0.380
57.8400,0.363
57.8800,0.386
57.9200,0.378
57.9600,0.377
58.0000,0.356
58.0400,0.357
58.0800,0.364
58.1200,0.382
58.1600,0.350
58.2000,0.333
58.2400,0.360
58.2800,0.354
58.3200,0.343
58.3600,0.296
58.4000,0.298
58.4400,0.286
58.4800,0.300
58.5200,0.275
58.5600,0.260
58.6000,0.261
58.6400,0.258
58.6800,0.257
58.7200,0.249
58.7600,0.248
58.8000,0.241
58.8400,0.221
58.8800,0.247
58.9200,0.236
58.9600,0.249
59.0000,0.228
59.0400,0.238
59.0800,0.227
59.1200,0.249
59.1600,0.227
59.2000,0.235
59.2400,0.240
59.2800,0.229
59.3200,0.215
59.3600,0.244
59.4000,0.230
59.4400,0.228
59.4800,0.238
59.5200,0.248
59.5600,0.217
59.6000,0.232
59.6400,0.238
59.6800,0.226
59.7200,0.210
59.7600,0.223
59.8000,0.214
59.8400,0.225
59.8800,0.202
59.9200,0.223
59.9600,0.219
60.0000,0.220
60.0400,0.228
60.0800,0.214
60.1200,0.239
60.1600,0.208
60.2000,0.220
60.2400,0.216
60.2800,0.230
60.3200,0.242
60.3600,0.228
60.4000,0.214
60.4400,0.250
60.4800,0.243
60.5200,0.279
60.5600,0.271
60.6000,0.287
60.6400,0.255
60.6800,0.281
60.7200,0.261
60.7600,0.243
60.8000,0.239
60.8400,0.273
60.8800,0.238
60.9200,0.244
60.9600,0.226
61.0000,0.266
61.0400,0.278
61.0800,0.277
61.1200,0.240
61.1600,0.268
61.2000,0.270
61.2400,0.232
61.2800,0.236
61.3200,0.231
61.3600,0.240
61.4000,0.222
61.4400,0.216
61.4800,0.214
61.5200,0.213
61.5600,0.252
61.6000,0.232
61.6400,0.227
61.6800,0.229
61.7200,0.226
61.7600,0.209
61.8000,0.230
61.8400,0.226
61.8800,0.215
61.9200,0.218
61.9600,0.254
62.0000,0.222
62.0400,0.253
62.0800,0.236
62.1200,0.227
62.1600,0.235
62.2000,0.250
62.2400,0.265
62.2800,0.281
62.3200,0.238
62.3600,0.263
62.4000,0.269
62.4400,0.233
62.4800,0.239
62.5200,0.245
62.5600,0.226
62.6000,0.244
62.6400,0.232
62.6800,0.223
62.7200,0.211
62.7600,0.223
62.8000,0.214
62.8400,0.238
62.8800,0.235
62.9200,0.237
62.9600,0.231
63.0000,0.230
63.0400,0.241
63.0800,0.215
63.1200,0.246
63.1600,0.218
63.2000,0.235
63.2400,0.232
63.2800,0.239
63.3200,0.235
63.3600,0.248
63.4000,0.224
63.4400,0.262
63.4800,0.238
63.5200,0.234
63.5600,0.248
63.6000,0.234
63.6400,0.250
63.6800,0.252
63.7200,0.256
63.7600,0.259
63.8000,0.252
63.8400,0.262
63.8800,0.226
63.9200,0.248
63.9600,0.255
64.0000,0.249
64.0400,0.279
64.0800,0.253
64.1200,0.244
64.1600,0.279
64.2000,0.248
64.2400,0.273
64.2800,0.253
64.3200,0.265
64.3600,0.260
64.4000,0.263
64.4400,0.266
64.4800,0.282
64.5200,0.286
64.5600,0.248
64.6000,0.252
64.6400,0.238
64.6800,0.271
64.7200,0.274
64.7600,0.279
64.8000,0.266
64.8400,0.285
64.8800,0.275
64.9200,0.269
64.9600,0.270
65.0000,0.270
65.0400,0.280
65.0800,0.289
65.1200,0.292
65.1600,0.295
65.2000,0.284
65.2400,0.303
65.2800,0.303
65.3200,0.286
65.3600,0.276
65.4000,0.268
65.4400,0.318
65.4800,0.297
65.5200,0.298
65.5600,0.311
65.6000,0.321
65.6400,0.331
65.6800,0.319
65.7200,0.329
65.7600,0.318
65.8000,0.328
65.8400,0.354
65.8800,0.337
65.9200,0.344
65.9600,0.334
66.0000,0.327
66.0400,0.332
66.0800,0.336
66.1200,0.328
66.1600,0.386
66.2000,0.352
66.2400,0.357
66.2800,0.377
66.3200,0.347
66.3600,0.381
66.4000,0.383
66.4400,0.396
66.4800,0.391
66.5200,0.377
66.5600,0.409
66.6000,0.383
66.6400,0.403
66.6800,0.435
66.7200,0.430
66.7600,0.434
66.8000,0.418
66.8400,0.452
66.8800,0.420
66.9200,0.414
66.9600,0.462
67.0000,0.448
67.0400,0.489
67.0800,0.475
67.1200,0.472
67.1600,0.483
67.2000,0.515
67.2400,0.517
67.2800,0.555
67.3200,0.515
67.3600,0.506
67.4000,0.567
67.4400,0.552
67.4800,0.536
67.5200,0.572
67.5600,0.601
67.6000,0.605
67.6400,0.609
67.6800,0.636
67.7200,0.619
67.7600,0.606
67.8000,0.589
67.8400,0.646
67.8800,0.671
67.9200,0.664
67.9600,0.694
68.0000,0.715
68.0400,0.678
68.0800,0.720
68.1200,0.711
68.1600,0.767
68.2000,0.852
68.2400,0.840
68.2800,0.807
68.3200,0.843
68.3600,0.870
68.4000,0.850
68.4400,0.926
68.4800,0.960
68.5200,1.014
68.5600,1.003
68.6000,1.129
68.6400,1.208
68.6800,1.451
68.7200,1.779
68.7600,2.252
68.8000,2.514
68.8400,2.651
68.8800,2.837
68.9200,3.199
68.9600,4.346
69.0000,7.558
69.0400,23.629
69.0800,80.194
69.1200,131.598
69.1600,123.762
69.2000,83.417
69.2400,37.390
69.2800,48.318
69.3200,70.247
69.3600,65.856
69.4000,42.403
69.4400,14.340
69.4800,5.490
69.5200,3.554
69.5600,2.662
69.6000,2.236
69.6400,1.896
69.6800,1.702
69.7200,1.553
69.7600,1.394
69.8000,1.275
69.8400,1.211
69.8800,1.144
69.9200,1.098
69.9600,1.020
70.0000,0.966
70.0400,0.962
70.0800,0.919
70.1200,0.912
70.1600,0.846
70.2000,0.876
70.2400,0.840
70.2800,0.795
70.3200,0.804
70.3600,0.772
70.4000,0.727
70.4400,0.744
70.4800,0.662
70.5200,0.681
70.5600,0.628
70.6000,0.680
70.6400,0.623
70.6800,0.615
70.7200,0.581
70.7600,0.590
70.8000,0.637
70.8400,0.572
70.8800,0.558
70.9200,0.549
70.9600,0.589
71.0000,0.544
71.0400,0.519
71.0800,0.500
71.1200,0.530
71.1600,0.446
71.2000,0.467
71.2400,0.478
71.2800,0.476
71.3200,0.444
71.3600,0.448
71.4000,0.453
71.4400,0.461
71.4800,0.449
71.5200,0.410
71.5600,0.424
71.6000,0.434
71.6400,0.452
71.6800,0.425
71.7200,0.396
71.7600,0.386
71.8000,0.400
71.8400,0.403
71.8800,0.353
71.9200,0.395
71.9600,0.366
72.0000,0.357
72.0400,0.331
72.0800,0.330
72.1200,0.365
72.1600,0.355
72.2000,0.326
72.2400,0.349
72.2800,0.334
72.3200,0.315
72.3600,0.348
72.4000,0.308
72.4400,0.305
72.4800,0.301
72.5200,0.327
72.5600,0.310
72.6000,0.297
72.6400,0.293
72.6800,0.301
72.7200,0.296
72.7600,0.287
72.8000,0.279
72.8400,0.287
72.8800,0.236
72.9200,0.283
72.9600,0.256
73.0000,0.296
73.0400,0.256
73.0800,0.276
73.1200,0.277
73.1600,0.246
73.2000,0.286
73.2400,0.273
73.2800,0.247
73.3200,0.262
73.3600,0.247
73.4000,0.255
73.4400,0.251
73.4800,0.264
73.5200,0.236
73.5600,0.251
73.6000,0.250
73.6400,0.247
73.6800,0.224
73.7200,0.256
73.7600,0.239
73.8000,0.233
73.8400,0.251
73.8800,0.246
73.9200,0.240
73.9600,0.227
74.0000,0.224
74.0400,0.242
74.0800,0.231
74.1200,0.238
74.1600,0.245
74.2000,0.222
74.2400,0.235
74.2800,0.239
74.3200,0.229
74.3600,0.226
74.4000,0.244
74.4400,0.226
74.4800,0.229
74.5200,0.225
74.5600,0.236
74.6000,0.225
74.6400,0.236
74.6800,0.223
74.7200,0.229
74.7600,0.219
74.8000,0.216
74.8400,0.220
74.8800,0.206
74.9200,0.227
74.9600,0.215
75.0000,0.207
75.0400,0.204
75.0800,0.206
75.1200,0.216
75.1600,0.184
75.2000,0.201
75.2400,0.222
75.2800,0.195
75.3200,0.236
75.3600,0.240
75.4000,0.210
75.4400,0.231
75.4800,0.221
75.5200,0.211
75.5600,0.222
75.6000,0.208
75.6400,0.189
75.6800,0.202
75.7200,0.203
75.7600,0.191
75.8000,0.216
75.8400,0.203
75.8800,0.208
75.9200,0.182
75.9600,0.208
76.0000,0.200
76.0400,0.188
76.0800,0.193
76.1200,0.208
76.1600,0.205
76.2000,0.222
76.2400,0.192
76.2800,0.221
76.3200,0.219
76.3600,0.191
76.4000,0.201
76.4400,0.194
76.4800,0.197
76.5200,0.220
76.5600,0.206
76.6000,0.204
76.6400,0.181
76.6800,0.224
76.7200,0.226
76.7600,0.215
76.8000,0.249
76.8400,0.201
76.8800,0.214
76.9200,0.222
76.9600,0.211
77.0000,0.201
77.0400,0.200
77.0800,0.195
77.1200,0.210
77.1600,0.218
77.2000,0.199
77.2400,0.205
77.2800,0.221
77.3200,0.203
77.3600,0.187
77.4000,0.211
77.4400,0.192
77.4800,0.191
77.5200,0.206
77.5600,0.184
77.6000,0.208
77.6400,0.191
77.6800,0.208
77.7200,0.183
77.7600,0.161
77.8000,0.163
77.8400,0.171
77.8800,0.189
77.9200,0.169
77.9600,0.188
78.0000,0.183
78.0400,0.177
78.0800,0.173
78.1200,0.179
78.1600,0.181
78.2000,0.172
78.2400,0.165
78.2800,0.175
78.3200,0.149
78.3600,0.168
78.4000,0.173
78.4400,0.175
78.4800,0.170
78.5200,0.175
78.5600,0.179
78.6000,0.160
78.6400,0.171
78.6800,0.159
78.7200,0.149
78.7600,0.177
78.8000,0.196
78.8400,0.168
78.8800,0.185
78.9200,0.183
78.9600,0.162
79.0000,0.154
79.0400,0.159
79.0800,0.167
79.1200,0.173
79.1600,0.168
79.2000,0.164
79.2400,0.155
79.2800,0.159
79.3200,0.182
79.3600,0.179
79.4000,0.166
79.4400,0.176
79.4800,0.172
79.5200,0.166
79.5600,0.170
79.6000,0.170
79.6400,0.159
79.6800,0.155
79.7200,0.181
79.7600,0.170
79.8000,0.157
79.8400,0.180
79.8800,0.170
79.9200,0.168
79.9600,0.180
80.0000,0.171
