theta,intensity
5.0000,3.012
5.0400,2.852
5.0800,2.870
5.1200,2.949
5.1600,2.805
5.2000,2.734
5.2400,2.747
5.2800,2.749
5.3200,2.526
5.3600,2.702
5.4000,2.595
5.4400,2.586
5.4800,2.596
5.5200,2.669
5.5600,2.592
5.6000,2.504
5.6400,2.482
5.6800,2.504
5.7200,2.408
5.7600,2.378
5.8000,2.462
5.8400,2.346
5.8800,2.340
5.9200,2.265
5.9600,2.281
6.0000,2.295
6.0400,2.281
6.0800,2.221
6.1200,2.195
6.1600,2.179
6.2000,2.101
6.2400,2.081
6.2800,2.060
6.3200,2.073
6.3600,2.069
6.4000,1.917
6.4400,2.006
6.4800,1.950
6.5200,1.947
6.5600,1.899
6.6000,1.904
6.6400,1.830
6.6800,1.882
6.7200,1.848
6.7600,1.799
6.8000,1.751
6.8400,1.766
6.8800,1.730
6.9200,1.748
6.9600,1.692
7.0000,1.694
7.0400,1.660
7.0800,1.660
7.1200,1.653
7.1600,1.689
7.2000,1.620
7.2400,1.590
7.2800,1.666
7.3200,1.652
7.3600,1.554
7.4000,1.626
7.4400,1.571
7.4800,1.581
7.5200,1.546
7.5600,1.542
7.6000,1.550
7.6400,1.542
7.6800,1.521
7.7200,1.513
7.7600,1.548
7.8000,1.521
7.8400,1.504
7.8800,1.560
7.9200,1.534
7.9600,1.525
8.0000,1.449
8.0400,1.467
8.0800,1.494
8.1200,1.493
8.1600,1.545
8.2000,1.449
8.2400,1.481
8.2800,1.508
8.3200,1.539
8.3600,1.492
8.4000,1.514
8.4400,1.451
8.4800,1.432
8.5200,1.490
8.5600,1.497
8.6000,1.461
8.6400,1.478
8.6800,1.483
8.7200,1.502
8.7600,1.451
8.8000,1.481
8.8400,1.419
8.8800,1.469
8.9200,1.390
8.9600,1.475
9.0000,1.491
9.0400,1.441
9.0800,1.438
9.1200,1.432
9.1600,1.464
9.2000,1.447
9.2400,1.453
9.2800,1.495
9.3200,1.437
9.3600,1.401
9.4000,1.473
9.4400,1.464
9.4800,1.424
9.5200,1.445
9.5600,1.437
9.6000,1.441
9.6400,1.446
9.6800,1.418
9.7200,1.456
9.7600,1.427
9.8000,1.468
9.8400,1.465
9.8800,1.437
9.9200,1.452
9.9600,1.463
10.0000,1.410
10.0400,1.415
10.0800,1.467
10.1200,1.440
10.1600,1.430
10.2000,1.417
10.2400,1.439
10.2800,1.402
10.3200,1.419
10.3600,1.363
10.4000,1.415
10.4400,1.462
10.4800,1.446
10.5200,1.388
10.5600,1.394
10.6000,1.511
10.6400,1.424
10.6800,1.445
10.7200,1.384
10.7600,1.421
10.8000,1.407
10.8400,1.334
10.8800,1.396
10.9200,1.405
10.9600,1.386
11.0000,1.346
11.0400,1.418
11.0800,1.409
11.1200,1.391
11.1600,1.362
11.2000,1.428
11.2400,1.464
11.2800,1.407
11.3200,1.445
11.3600,1.375
11.4000,1.362
11.4400,1.338
11.4800,1.397
11.5200,1.438
11.5600,1.401
11.6000,1.384
11.6400,1.409
11.6800,1.385
11.7200,1.405
11.7600,1.326
11.8000,1.359
11.8400,1.325
11.8800,1.412
11.9200,1.380
11.9600,1.382
12.0000,1.425
12.0400,1.379
12.0800,1.370
12.1200,1.347
12.1600,1.402
12.2000,1.393
12.2400,1.386
12.2800,1.364
12.3200,1.330
12.3600,1.363
12.4000,1.357
12.4400,1.329
12.4800,1.407
12.5200,1.343
12.5600,1.367
12.6000,1.331
12.6400,1.364
12.6800,1.408
12.7200,1.346
12.7600,1.302
12.8000,1.341
12.8400,1.334
12.8800,1.308
12.9200,1.301
12.9600,1.311
13.0000,1.323
13.0400,1.339
13.0800,1.359
13.1200,1.327
13.1600,1.238
13.2000,1.359
13.2400,1.294
13.2800,1.310
13.3200,1.334
13.3600,1.320
13.4000,1.335
13.4400,1.315
13.4800,1.358
13.5200,1.346
13.5600,1.325
13.6000,1.328
13.6400,1.309
13.6800,1.287
13.7200,1.312
13.7600,1.356
13.8000,1.302
13.8400,1.340
13.8800,1.330
13.9200,1.290
13.9600,1.312
14.0000,1.279
14.0400,1.301
14.0800,1.371
14.1200,1.346
14.1600,1.307
14.2000,1.280
14.2400,1.343
14.2800,1.323
14.3200,1.325
14.3600,1.303
14.4000,1.310
14.4400,1.330
14.4800,1.335
14.5200,1.300
14.5600,1.310
14.6000,1.310
14.6400,1.253
14.6800,1.257
14.7200,1.347
14.7600,1.268
14.8000,1.274
14.8400,1.261
14.8800,1.265
14.9200,1.289
14.9600,1.288
15.0000,1.295
15.0400,1.260
15.0800,1.299
15.1200,1.236
15.1600,1.284
15.2000,1.263
15.2400,1.276
15.2800,1.273
15.3200,1.291
15.3600,1.277
15.4000,1.285
15.4400,1.259
15.4800,1.286
15.5200,1.300
15.5600,1.323
15.6000,1.295
15.6400,1.288
15.6800,1.281
15.7200,1.261
15.7600,1.263
15.8000,1.296
15.8400,1.289
15.8800,1.289
15.9200,1.259
15.9600,1.233
16.0000,1.302
16.0400,1.227
16.0800,1.278
16.1200,1.274
16.1600,1.259
16.2000,1.292
16.2400,1.250
16.2800,1.233
16.3200,1.295
16.3600,1.311
16.4000,1.240
16.4400,1.290
16.4800,1.287
16.5200,1.243
16.5600,1.259
16.6000,1.307
16.6400,1.303
16.6800,1.214
16.7200,1.255
16.7600,1.230
16.8000,1.265
16.8400,1.281
16.8800,1.256
16.9200,1.262
16.9600,1.248
17.0000,1.272
17.0400,1.292
17.0800,1.226
17.1200,1.251
17.1600,1.277
17.2000,1.268
17.2400,1.289
17.2800,1.233
17.3200,1.288
17.3600,1.269
17.4000,1.264
17.4400,1.245
17.4800,1.258
17.5200,1.269
17.5600,1.255
17.6000,1.239
17.6400,1.298
17.6800,1.236
17.7200,1.286
17.7600,1.289
17.8000,1.271
17.8400,1.239
17.8800,1.267
17.9200,1.284
17.9600,1.331
18.0000,1.266
18.0400,1.263
18.0800,1.259
18.1200,1.276
18.1600,1.266
18.2000,1.240
18.2400,1.293
18.2800,1.265
18.3200,1.284
18.3600,1.276
18.4000,1.258
18.4400,1.277
18.4800,1.279
18.5200,1.302
18.5600,1.229
18.6000,1.301
18.6400,1.283
18.6800,1.301
18.7200,1.258
18.7600,1.256
18.8000,1.287
18.8400,1.317
18.8800,1.285
18.9200,1.313
18.9600,1.314
19.0000,1.262
19.0400,1.279
19.0800,1.265
19.1200,1.315
19.1600,1.259
19.2000,1.273
19.2400,1.286
19.2800,1.285
19.3200,1.273
19.3600,1.273
19.4000,1.267
19.4400,1.203
19.4800,1.317
19.5200,1.253
19.5600,1.308
19.6000,1.301
19.6400,1.295
19.6800,1.292
19.7200,1.252
19.7600,1.283
19.8000,1.314
19.8400,1.343
19.8800,1.309
19.9200,1.260
19.9600,1.294
20.0000,1.261
20.0400,1.284
20.0800,1.279
20.1200,1.236
20.1600,1.244
20.2000,1.248
20.2400,1.294
20.2800,1.238
20.3200,1.279
20.3600,1.317
20.4000,1.263
20.4400,1.288
20.4800,1.260
20.5200,1.293
20.5600,1.295
20.6000,1.271
20.6400,1.326
20.6800,1.318
20.7200,1.277
20.7600,1.318
20.8000,1.246
20.8400,1.269
20.8800,1.297
20.9200,1.335
20.9600,1.246
21.0000,1.201
21.0400,1.235
21.0800,1.262
21.1200,1.313
21.1600,1.253
21.2000,1.281
21.2400,1.265
21.2800,1.197
21.3200,1.240
21.3600,1.276
21.4000,1.294
21.4400,1.265
21.4800,1.229
21.5200,1.291
21.5600,1.255
21.6000,1.213
21.6400,1.252
21.6800,1.269
21.7200,1.215
21.7600,1.231
21.8000,1.174
21.8400,1.220
21.8800,1.235
21.9200,1.206
21.9600,1.201
22.0000,1.242
22.0400,1.248
22.0800,1.215
22.1200,1.167
22.1600,1.195
22.2000,1.244
22.2400,1.239
22.2800,1.201
22.3200,1.153
22.3600,1.198
22.4000,1.192
22.4400,1.183
22.4800,1.185
22.5200,1.189
22.5600,1.209
22.6000,1.175
22.6400,1.223
22.6800,1.137
22.7200,1.165
22.7600,1.190
22.8000,1.185
22.8400,1.135
22.8800,1.169
22.9200,1.119
22.9600,1.157
23.0000,1.117
23.0400,1.298
23.0800,1.937
23.1200,2.639
23.1600,2.196
23.2000,1.642
23.2400,1.261
23.2800,1.163
23.3200,1.138
23.3600,1.152
23.4000,1.047
23.4400,1.102
23.4800,1.092
23.5200,1.102
23.5600,1.110
23.6000,1.085
23.6400,1.089
23.6800,1.084
23.7200,1.050
23.7600,1.087
23.8000,1.103
23.8400,1.093
23.8800,1.072
23.9200,1.093
23.9600,1.059
24.0000,1.052
24.0400,1.046
24.0800,1.043
24.1200,1.066
24.1600,1.028
24.2000,1.066
24.2400,1.001
24.2800,1.035
24.3200,0.998
24.3600,1.094
24.4000,1.033
24.4400,0.959
24.4800,1.004
24.5200,1.009
24.5600,1.037
24.6000,0.962
24.6400,1.049
24.6800,0.977
24.7200,0.995
24.7600,0.960
24.8000,0.942
24.8400,0.974
24.8800,0.947
24.9200,0.974
24.9600,0.966
25.0000,0.996
25.0400,1.033
25.0800,1.012
25.1200,0.991
25.1600,1.004
25.2000,0.993
25.2400,0.990
25.2800,0.941
25.3200,0.948
25.3600,0.951
25.4000,0.929
25.4400,0.968
25.4800,1.024
25.5200,0.960
25.5600,0.977
25.6000,0.931
25.6400,0.871
25.6800,0.905
25.7200,0.951
25.7600,0.963
25.8000,0.925
25.8400,0.887
25.8800,0.923
25.9200,0.896
25.9600,0.907
26.0000,0.975
26.0400,0.930
26.0800,0.902
26.1200,0.887
26.1600,0.913
26.2000,0.890
26.2400,0.852
26.2800,0.883
26.3200,0.882
26.3600,0.872
26.4000,0.897
26.4400,0.880
26.4800,0.867
26.5200,0.882
26.5600,0.874
26.6000,0.856
26.6400,0.863
26.6800,0.854
26.7200,0.845
26.7600,0.862
26.8000,0.873
26.8400,0.860
26.8800,0.812
26.9200,0.860
26.9600,0.837
27.0000,0.863
27.0400,0.830
27.0800,0.841
27.1200,0.862
27.1600,0.860
27.2000,0.851
27.2400,0.809
27.2800,0.849
27.3200,0.838
27.3600,0.782
27.4000,0.796
27.4400,0.812
27.4800,0.775
27.5200,0.824
27.5600,0.804
27.6000,0.839
27.6400,0.803
27.6800,0.808
27.7200,0.835
27.7600,0.796
27.8000,0.794
27.8400,0.790
27.8800,0.820
27.9200,0.798
27.9600,0.785
28.0000,0.808
28.0400,0.753
28.0800,0.769
28.1200,0.784
28.1600,0.804
28.2000,0.787
28.2400,0.797
28.2800,0.772
28.3200,0.770
28.3600,0.782
28.4000,0.759
28.4400,0.740
28.4800,0.736
28.5200,0.752
28.5600,0.744
28.6000,0.765
28.6400,0.801
28.6800,0.743
28.7200,0.752
28.7600,0.786
28.8000,0.745
28.8400,0.749
28.8800,0.771
28.9200,0.739
28.9600,0.736
29.0000,0.728
29.0400,0.712
29.0800,0.740
29.1200,0.746
29.1600,0.756
29.2000,0.724
29.2400,0.752
29.2800,0.735
29.3200,0.770
29.3600,0.727
29.4000,0.771
29.4400,0.734
29.4800,0.684
29.5200,0.696
29.5600,0.727
29.6000,0.692
29.6400,0.732
29.6800,0.741
29.7200,0.735
29.7600,0.730
29.8000,0.701
29.8400,0.730
29.8800,0.718
29.9200,0.686
29.9600,0.716
30.0000,0.725
30.0400,0.694
30.0800,0.708
30.1200,0.676
30.1600,0.700
30.2000,0.677
30.2400,0.692
30.2800,0.681
30.3200,0.697
30.3600,0.678
30.4000,0.695
30.4400,0.658
30.4800,0.687
30.5200,0.694
30.5600,0.671
30.6000,0.699
30.6400,0.676
30.6800,0.658
30.7200,0.701
30.7600,0.673
30.8000,0.679
30.8400,0.666
30.8800,0.648
30.9200,0.621
30.9600,0.676
31.0000,0.686
31.0400,0.641
31.0800,0.678
31.1200,0.667
31.1600,0.686
31.2000,0.687
31.2400,0.659
31.2800,0.639
31.3200,0.650
31.3600,0.651
31.4000,0.622
31.4400,0.632
31.4800,0.675
31.5200,0.651
31.5600,0.626
31.6000,0.641
31.6400,0.652
31.6800,0.658
31.7200,0.632
31.7600,0.599
31.8000,0.620
31.8400,0.618
31.8800,0.631
31.9200,0.605
31.9600,0.588
32.0000,0.619
32.0400,0.605
32.0800,0.606
32.1200,0.628
32.1600,0.630
32.2000,0.615
32.2400,0.598
32.2800,0.594
32.3200,0.642
32.3600,0.640
32.4000,0.634
32.4400,0.607
32.4800,0.603
32.5200,0.595
32.5600,0.636
32.6000,0.611
32.6400,0.614
32.6800,0.589
32.7200,0.625
32.7600,0.649
32.8000,0.678
32.8400,0.737
32.8800,0.987
32.9200,1.215
32.9600,1.146
33.0000,0.993
33.0400,0.820
33.0800,0.717
33.1200,0.606
33.1600,0.600
33.2000,0.578
33.2400,0.578
33.2800,0.603
33.3200,0.599
33.3600,0.573
33.4000,0.617
33.4400,0.602
33.4800,0.551
33.5200,0.549
33.5600,0.579
33.6000,0.592
33.6400,0.610
33.6800,0.597
33.7200,0.540
33.7600,0.581
33.8000,0.573
33.8400,0.582
33.8800,0.545
33.9200,0.568
33.9600,0.564
34.0000,0.576
34.0400,0.563
34.0800,0.583
34.1200,0.547
34.1600,0.558
34.2000,0.575
34.2400,0.567
34.2800,0.573
34.3200,0.545
34.3600,0.556
34.4000,0.516
34.4400,0.564
34.4800,0.584
34.5200,0.559
34.5600,0.562
34.6000,0.540
34.6400,0.526
34.6800,0.541
34.7200,0.557
34.7600,0.586
34.8000,0.535
34.8400,0.575
34.8800,0.564
34.9200,0.532
34.9600,0.511
35.0000,0.537
35.0400,0.539
35.0800,0.537
35.1200,0.513
35.1600,0.521
35.2000,0.528
35.2400,0.542
35.2800,0.535
35.3200,0.543
35.3600,0.508
35.4000,0.548
35.4400,0.568
35.4800,0.552
35.5200,0.517
35.5600,0.483
35.6000,0.515
35.6400,0.507
35.6800,0.488
35.7200,0.507
35.7600,0.508
35.8000,0.524
35.8400,0.519
35.8800,0.543
35.9200,0.512
35.9600,0.493
36.0000,0.487
36.0400,0.502
36.0800,0.507
36.1200,0.513
36.1600,0.518
36.2000,0.486
36.2400,0.511
36.2800,0.533
36.3200,0.521
36.3600,0.519
36.4000,0.502
36.4400,0.509
36.4800,0.527
36.5200,0.496
36.5600,0.494
36.6000,0.512
36.6400,0.521
36.6800,0.490
36.7200,0.509
36.7600,0.484
36.8000,0.502
36.8400,0.495
36.8800,0.467
36.9200,0.462
36.9600,0.505
37.0000,0.493
37.0400,0.476
37.0800,0.513
37.1200,0.508
37.1600,0.484
37.2000,0.465
37.2400,0.497
37.2800,0.505
37.3200,0.485
37.3600,0.483
37.4000,0.484
37.4400,0.536
37.4800,0.490
37.5200,0.481
37.5600,0.495
37.6000,0.487
37.6400,0.497
37.6800,0.490
37.7200,0.510
37.7600,0.502
37.8000,0.500
37.8400,0.525
37.8800,0.547
37.9200,0.605
37.9600,0.672
38.0000,0.787
38.0400,0.974
38.0800,1.515
38.1200,2.864
38.1600,4.239
38.2000,3.885
38.2400,3.313
38.2800,2.657
38.3200,1.629
38.3600,0.991
38.4000,0.700
38.4400,0.530
38.4800,0.538
38.5200,0.487
38.5600,0.520
38.6000,0.513
38.6400,0.461
38.6800,0.473
38.7200,0.482
38.7600,0.437
38.8000,0.464
38.8400,0.487
38.8800,0.457
38.9200,0.467
38.9600,0.450
39.0000,0.426
39.0400,0.459
39.0800,0.432
39.1200,0.447
39.1600,0.443
39.2000,0.447
39.2400,0.417
39.2800,0.435
39.3200,0.482
39.3600,0.432
39.4000,0.460
39.4400,0.428
39.4800,0.408
39.5200,0.417
39.5600,0.418
39.6000,0.442
39.6400,0.418
39.6800,0.436
39.7200,0.436
39.7600,0.443
39.8000,0.425
39.8400,0.396
39.8800,0.406
39.9200,0.450
39.9600,0.410
40.0000,0.413
40.0400,0.413
40.0800,0.446
40.1200,0.404
40.1600,0.424
40.2000,0.440
40.2400,0.397
40.2800,0.391
40.3200,0.377
40.3600,0.388
40.4000,0.421
40.4400,0.395
40.4800,0.423
40.5200,0.455
40.5600,0.555
40.6000,0.623
40.6400,0.665
40.6800,0.600
40.7200,0.540
40.7600,0.478
40.8000,0.423
40.8400,0.397
40.8800,0.411
40.9200,0.410
40.9600,0.403
41.0000,0.416
41.0400,0.425
41.0800,0.399
41.1200,0.406
41.1600,0.375
41.2000,0.397
41.2400,0.386
41.2800,0.368
41.3200,0.398
41.3600,0.402
41.4000,0.363
41.4400,0.364
41.4800,0.388
41.5200,0.404
41.5600,0.412
41.6000,0.384
41.6400,0.368
41.6800,0.383
41.7200,0.390
41.7600,0.394
41.8000,0.377
41.8400,0.375
41.8800,0.394
41.9200,0.397
41.9600,0.382
42.0000,0.362
42.0400,0.382
42.0800,0.354
42.1200,0.367
42.1600,0.398
42.2000,0.382
42.2400,0.376
42.2800,0.388
42.3200,0.367
42.3600,0.355
42.4000,0.359
42.4400,0.356
42.4800,0.383
42.5200,0.369
42.5600,0.363
42.6000,0.376
42.6400,0.356
42.6800,0.354
42.7200,0.351
42.7600,0.388
42.8000,0.399
42.8400,0.361
42.8800,0.376
42.9200,0.359
42.9600,0.356
43.0000,0.364
43.0400,0.355
43.0800,0.375
43.1200,0.372
43.1600,0.348
43.2000,0.360
43.2400,0.366
43.2800,0.366
43.3200,0.361
43.3600,0.357
43.4000,0.370
43.4400,0.369
43.4800,0.349
43.5200,0.338
43.5600,0.390
43.6000,0.341
43.6400,0.338
43.6800,0.352
43.7200,0.380
43.7600,0.374
43.8000,0.345
43.8400,0.340
43.8800,0.347
43.9200,0.367
43.9600,0.369
44.0000,0.364
44.0400,0.392
44.0800,0.388
44.1200,0.380
44.1600,0.409
44.2000,0.416
44.2400,0.475
44.2800,0.496
44.3200,0.586
44.3600,0.697
44.4000,0.645
44.4400,0.611
44.4800,0.587
44.5200,0.559
44.5600,0.488
44.6000,0.424
44.6400,0.381
44.6800,0.354
44.7200,0.362
44.7600,0.364
44.8000,0.342
44.8400,0.359
44.8800,0.350
44.9200,0.361
44.9600,0.353
45.0000,0.353
45.0400,0.325
45.0800,0.355
45.1200,0.355
45.1600,0.318
45.2000,0.313
45.2400,0.320
45.2800,0.332
45.3200,0.300
45.3600,0.331
45.4000,0.304
45.4400,0.325
45.4800,0.357
45.5200,0.320
45.5600,0.324
45.6000,0.304
45.6400,0.325
45.6800,0.333
45.7200,0.338
45.7600,0.347
45.8000,0.321
45.8400,0.310
45.8800,0.324
45.9200,0.309
45.9600,0.330
46.0000,0.324
46.0400,0.307
46.0800,0.313
46.1200,0.327
46.1600,0.316
46.2000,0.302
46.2400,0.313
46.2800,0.285
46.3200,0.355
46.3600,0.295
46.4000,0.351
46.4400,0.322
46.4800,0.319
46.5200,0.289
46.5600,0.319
46.6000,0.326
46.6400,0.325
46.6800,0.327
46.7200,0.330
46.7600,0.289
46.8000,0.340
46.8400,0.313
46.8800,0.300
46.9200,0.335
46.9600,0.307
47.0000,0.303
47.0400,0.320
47.0800,0.305
47.1200,0.339
47.1600,0.330
47.2000,0.326
47.2400,0.396
47.2800,0.439
47.3200,0.377
47.3600,0.362
47.4000,0.377
47.4400,0.332
47.4800,0.314
47.5200,0.290
47.5600,0.304
47.6000,0.285
47.6400,0.297
47.6800,0.307
47.7200,0.302
47.7600,0.278
47.8000,0.288
47.8400,0.325
47.8800,0.289
47.9200,0.309
47.9600,0.301
48.0000,0.295
48.0400,0.285
48.0800,0.290
48.1200,0.278
48.1600,0.286
48.2000,0.276
48.2400,0.305
48.2800,0.281
48.3200,0.284
48.3600,0.282
48.4000,0.283
48.4400,0.300
48.4800,0.263
48.5200,0.274
48.5600,0.274
48.6000,0.267
48.6400,0.299
48.6800,0.294
48.7200,0.307
48.7600,0.295
48.8000,0.298
48.8400,0.264
48.8800,0.294
48.9200,0.317
48.9600,0.297
49.0000,0.278
49.0400,0.271
49.0800,0.271
49.1200,0.314
49.1600,0.299
49.2000,0.257
49.2400,0.286
49.2800,0.273
49.3200,0.278
49.3600,0.288
49.4000,0.256
49.4400,0.277
49.4800,0.279
49.5200,0.281
49.5600,0.285
49.6000,0.292
49.6400,0.299
49.6800,0.291
49.7200,0.275
49.7600,0.287
49.8000,0.259
49.8400,0.278
49.8800,0.282
49.9200,0.284
49.9600,0.272
50.0000,0.274
50.0400,0.274
50.0800,0.281
50.1200,0.249
50.1600,0.275
50.2000,0.264
50.2400,0.265
50.2800,0.281
50.3200,0.281
50.3600,0.266
50.4000,0.269
50.4400,0.269
50.4800,0.275
50.5200,0.276
50.5600,0.279
50.6000,0.280
50.6400,0.279
50.6800,0.273
50.7200,0.273
50.7600,0.273
50.8000,0.246
50.8400,0.266
50.8800,0.266
50.9200,0.278
50.9600,0.281
51.0000,0.257
51.0400,0.277
51.0800,0.283
51.1200,0.270
51.1600,0.260
51.2000,0.245
51.2400,0.269
51.2800,0.267
51.3200,0.262
51.3600,0.265
51.4000,0.264
51.4400,0.250
51.4800,0.245
51.5200,0.241
51.5600,0.231
51.6000,0.266
51.6400,0.269
51.6800,0.255
51.7200,0.247
51.7600,0.254
51.8000,0.263
51.8400,0.247
51.8800,0.250
51.9200,0.247
51.9600,0.256
52.0000,0.279
52.0400,0.244
52.0800,0.265
52.1200,0.282
52.1600,0.250
52.2000,0.249
52.2400,0.276
52.2800,0.250
52.3200,0.264
52.3600,0.275
52.4000,0.246
52.4400,0.266
52.4800,0.257
52.5200,0.234
52.5600,0.260
52.6000,0.245
52.6400,0.264
52.6800,0.253
52.7200,0.257
52.7600,0.257
52.8000,0.238
52.8400,0.273
52.8800,0.246
52.9200,0.227
52.9600,0.242
53.0000,0.261
53.0400,0.252
53.0800,0.255
53.1200,0.264
53.1600,0.282
53.2000,0.279
53.2400,0.377
53.2800,0.352
53.3200,0.288
53.3600,0.299
53.4000,0.286
53.4400,0.308
53.4800,0.256
53.5200,0.258
53.5600,0.268
53.6000,0.260
53.6400,0.248
53.6800,0.235
53.7200,0.213
53.7600,0.256
53.8000,0.258
53.8400,0.238
53.8800,0.245
53.9200,0.233
53.9600,0.248
54.0000,0.233
54.0400,0.247
54.0800,0.216
54.1200,0.217
54.1600,0.249
54.2000,0.252
54.2400,0.237
54.2800,0.244
54.3200,0.245
54.3600,0.243
54.4000,0.227
54.4400,0.255
54.4800,0.238
54.5200,0.265
54.5600,0.251
54.6000,0.243
54.6400,0.242
54.6800,0.238
54.7200,0.254
54.7600,0.217
54.8000,0.238
54.8400,0.261
54.8800,0.248
54.9200,0.252
54.9600,0.249
55.0000,0.223
55.0400,0.236
55.0800,0.236
55.1200,0.236
55.1600,0.237
55.2000,0.241
55.2400,0.232
55.2800,0.236
55.3200,0.219
55.3600,0.218
55.4000,0.248
55.4400,0.232
55.4800,0.220
55.5200,0.233
55.5600,0.230
55.6000,0.254
55.6400,0.233
55.6800,0.229
55.7200,0.229
55.7600,0.238
55.8000,0.230
55.8400,0.238
55.8800,0.234
55.9200,0.224
55.9600,0.218
56.0000,0.251
56.0400,0.212
56.0800,0.207
56.1200,0.246
56.1600,0.242
56.2000,0.222
56.2400,0.236
56.2800,0.211
56.3200,0.230
56.3600,0.226
56.4000,0.217
56.4400,0.240
56.4800,0.225
56.5200,0.215
56.5600,0.231
56.6000,0.238
56.6400,0.228
56.6800,0.225
56.7200,0.235
56.7600,0.241
56.8000,0.236
56.8400,0.229
56.8800,0.209
56.9200,0.231
56.9600,0.213
57.0000,0.231
57.0400,0.222
57.0800,0.225
57.1200,0.229
57.1600,0.230
57.2000,0.219
57.2400,0.222
57.2800,0.226
57.3200,0.221
57.3600,0.234
57.4000,0.237
57.4400,0.233
57.4800,0.233
57.5200,0.224
57.5600,0.228
57.6000,0.248
57.6400,0.224
57.6800,0.237
57.7200,0.202
57.7600,0.225
57.8000,0.213
57.8400,0.223
57.8800,0.239
57.9200,0.219
57.9600,0.234
58.0000,0.218
58.0400,0.227
58.0800,0.220
58.1200,0.228
58.1600,0.215
58.2000,0.232
58.2400,0.227
58.2800,0.222
58.3200,0.220
58.3600,0.233
58.4000,0.231
58.4400,0.249
58.4800,0.233
58.5200,0.227
58.5600,0.250
58.6000,0.256
58.6400,0.270
58.6800,0.278
58.7200,0.456
58.7600,0.853
58.8000,1.071
58.8400,0.679
58.8800,0.483
58.9200,0.580
58.9600,0.675
59.0000,0.462
59.0400,0.301
59.0800,0.238
59.1200,0.234
59.1600,0.245
59.2000,0.230
59.2400,0.224
59.2800,0.237
59.3200,0.232
59.3600,0.243
59.4000,0.234
59.4400,0.214
59.4800,0.221
59.5200,0.208
59.5600,0.191
59.6000,0.226
59.6400,0.212
59.6800,0.240
59.7200,0.255
59.7600,0.237
59.8000,0.212
59.8400,0.214
59.8800,0.232
59.9200,0.264
59.9600,0.207
60.0000,0.215
60.0400,0.199
60.0800,0.222
60.1200,0.220
60.1600,0.227
60.2000,0.216
60.2400,0.245
60.2800,0.216
60.3200,0.226
60.3600,0.223
60.4000,0.236
60.4400,0.226
60.4800,0.211
60.5200,0.224
60.5600,0.202
60.6000,0.222
60.6400,0.215
60.6800,0.224
60.7200,0.216
60.7600,0.229
60.8000,0.224
60.8400,0.235
60.8800,0.202
60.9200,0.224
60.9600,0.233
61.0000,0.218
61.0400,0.225
61.0800,0.210
61.1200,0.222
61.1600,0.222
61.2000,0.232
61.2400,0.224
61.2800,0.231
61.3200,0.228
61.3600,0.226
61.4000,0.230
61.4400,0.215
61.4800,0.215
61.5200,0.213
61.5600,0.209
61.6000,0.206
61.6400,0.246
61.6800,0.233
61.7200,0.222
61.7600,0.223
61.8000,0.226
61.8400,0.211
61.8800,0.200
61.9200,0.220
61.9600,0.239
62.0000,0.223
62.0400,0.204
62.0800,0.232
62.1200,0.205
62.1600,0.228
62.2000,0.242
62.2400,0.207
62.2800,0.244
62.3200,0.206
62.3600,0.215
62.4000,0.215
62.4400,0.225
62.4800,0.213
62.5200,0.222
62.5600,0.229
62.6000,0.225
62.6400,0.223
62.6800,0.223
62.7200,0.225
62.7600,0.222
62.8000,0.242
62.8400,0.235
62.8800,0.238
62.9200,0.237
62.9600,0.234
63.0000,0.237
63.0400,0.259
63.0800,0.226
63.1200,0.225
63.1600,0.243
63.2000,0.215
63.2400,0.235
63.2800,0.255
63.3200,0.270
63.3600,0.248
63.4000,0.253
63.4400,0.238
63.4800,0.244
63.5200,0.224
63.5600,0.238
63.6000,0.267
63.6400,0.246
63.6800,0.241
63.7200,0.242
63.7600,0.258
63.8000,0.255
63.8400,0.248
63.8800,0.254
63.9200,0.238
63.9600,0.235
64.0000,0.262
64.0400,0.236
64.0800,0.257
64.1200,0.271
64.1600,0.263
64.2000,0.260
64.2400,0.259
64.2800,0.285
64.3200,0.290
64.3600,0.289
64.4000,0.280
64.4400,0.303
64.4800,0.342
64.5200,0.385
64.5600,0.442
64.6000,0.402
64.6400,0.356
64.6800,0.345
64.7200,0.350
64.7600,0.339
64.8000,0.323
64.8400,0.277
64.8800,0.286
64.9200,0.294
64.9600,0.297
65.0000,0.269
65.0400,0.252
65.0800,0.293
65.1200,0.281
65.1600,0.297
65.2000,0.280
65.2400,0.281
65.2800,0.287
65.3200,0.282
65.3600,0.320
65.4000,0.283
65.4400,0.302
65.4800,0.304
65.5200,0.287
65.5600,0.306
65.6000,0.304
65.6400,0.299
65.6800,0.297
65.7200,0.287
65.7600,0.311
65.8000,0.319
65.8400,0.320
65.8800,0.323
65.9200,0.328
65.9600,0.320
66.0000,0.329
66.0400,0.322
66.0800,0.365
66.1200,0.347
66.1600,0.344
66.2000,0.358
66.2400,0.364
66.2800,0.355
66.3200,0.336
66.3600,0.341
66.4000,0.360
66.4400,0.343
66.4800,0.372
66.5200,0.363
66.5600,0.371
66.6000,0.400
66.6400,0.404
66.6800,0.398
66.7200,0.398
66.7600,0.381
66.8000,0.426
66.8400,0.425
66.8800,0.402
66.9200,0.431
66.9600,0.441
67.0000,0.427
67.0400,0.462
67.0800,0.463
67.1200,0.438
67.1600,0.459
67.2000,0.461
67.2400,0.498
67.2800,0.505
67.3200,0.519
67.3600,0.502
67.4000,0.520
67.4400,0.506
67.4800,0.501
67.5200,0.511
67.5600,0.537
67.6000,0.568
67.6400,0.541
67.6800,0.577
67.7200,0.584
67.7600,0.584
67.8000,0.603
67.8400,0.612
67.8800,0.631
67.9200,0.653
67.9600,0.646
68.0000,0.662
68.0400,0.700
68.0800,0.692
68.1200,0.664
68.1600,0.706
68.2000,0.745
68.2400,0.760
68.2800,0.766
68.3200,0.763
68.3600,0.827
68.4000,0.864
68.4400,0.882
68.4800,0.904
68.5200,0.983
68.5600,0.974
68.6000,1.080
68.6400,1.142
68.6800,1.380
68.7200,1.665
68.7600,2.028
68.8000,2.260
68.8400,2.437
68.8800,2.566
68.9200,3.021
68.9600,4.011
69.0000,7.454
69.0400,24.838
69.0800,77.338
69.1200,111.685
69.1600,101.177
69.2000,69.127
69.2400,32.634
69.2800,44.723
69.3200,59.724
69.3600,54.111
69.4000,34.795
69.4400,11.420
69.4800,4.403
69.5200,2.960
69.5600,2.325
69.6000,1.958
69.6400,1.618
69.6800,1.481
69.7200,1.403
69.7600,1.260
69.8000,1.191
69.8400,1.116
69.8800,1.064
69.9200,1.011
69.9600,0.987
70.0000,0.952
70.0400,0.900
70.0800,0.909
70.1200,0.836
70.1600,0.848
70.2000,0.861
70.2400,0.808
70.2800,0.757
70.3200,0.762
70.3600,0.745
70.4000,0.711
70.4400,0.724
70.4800,0.713
70.5200,0.652
70.5600,0.670
70.6000,0.633
70.6400,0.648
70.6800,0.585
70.7200,0.607
70.7600,0.588
70.8000,0.579
70.8400,0.539
70.8800,0.537
70.9200,0.544
70.9600,0.536
71.0000,0.514
71.0400,0.546
71.0800,0.522
71.1200,0.462
71.1600,0.492
71.2000,0.476
71.2400,0.481
71.2800,0.421
71.3200,0.469
71.3600,0.426
71.4000,0.413
71.4400,0.406
71.4800,0.424
71.5200,0.410
71.5600,0.412
71.6000,0.385
71.6400,0.384
71.6800,0.388
71.7200,0.364
71.7600,0.388
71.8000,0.387
71.8400,0.367
71.8800,0.375
71.9200,0.373
71.9600,0.358
72.0000,0.339
72.0400,0.368
72.0800,0.331
72.1200,0.306
72.1600,0.330
72.2000,0.334
72.2400,0.313
72.2800,0.311
72.3200,0.317
72.3600,0.305
72.4000,0.306
72.4400,0.317
72.4800,0.320
72.5200,0.303
72.5600,0.315
72.6000,0.317
72.6400,0.286
72.6800,0.301
72.7200,0.289
72.7600,0.279
72.8000,0.286
72.8400,0.314
72.8800,0.275
72.9200,0.255
72.9600,0.264
73.0000,0.263
73.0400,0.263
73.0800,0.283
73.1200,0.263
73.1600,0.271
73.2000,0.282
73.2400,0.251
73.2800,0.268
73.3200,0.272
73.3600,0.262
73.4000,0.263
73.4400,0.242
73.4800,0.252
73.5200,0.259
73.5600,0.249
73.6000,0.244
73.6400,0.242
73.6800,0.236
73.7200,0.238
73.7600,0.245
73.8000,0.248
73.8400,0.243
73.8800,0.252
73.9200,0.258
73.9600,0.278
74.0000,0.238
74.0400,0.240
74.0800,0.244
74.1200,0.245
74.1600,0.240
74.2000,0.233
74.2400,0.237
74.2800,0.217
74.3200,0.212
74.3600,0.227
74.4000,0.216
74.4400,0.207
74.4800,0.216
74.5200,0.200
74.5600,0.206
74.6000,0.200
74.6400,0.199
74.6800,0.219
74.7200,0.198
74.7600,0.210
74.8000,0.226
74.8400,0.226
74.8800,0.201
74.9200,0.206
74.9600,0.227
75.0000,0.228
75.0400,0.189
75.0800,0.214
75.1200,0.197
75.1600,0.202
75.2000,0.200
75.2400,0.212
75.2800,0.209
75.3200,0.192
75.3600,0.205
75.4000,0.192
75.4400,0.190
75.4800,0.188
75.5200,0.206
75.5600,0.197
75.6000,0.191
75.6400,0.206
75.6800,0.198
75.7200,0.204
75.7600,0.176
75.8000,0.200
75.8400,0.196
75.8800,0.191
75.9200,0.204
75.9600,0.186
76.0000,0.195
76.0400,0.197
76.0800,0.201
76.1200,0.152
76.1600,0.174
76.2000,0.180
76.2400,0.197
76.2800,0.200
76.3200,0.184
76.3600,0.166
76.4000,0.187
76.4400,0.192
76.4800,0.178
76.5200,0.212
76.5600,0.188
76.6000,0.188
76.6400,0.190
76.6800,0.213
76.7200,0.196
76.7600,0.194
76.8000,0.207
76.8400,0.178
76.8800,0.193
76.9200,0.181
76.9600,0.205
77.0000,0.193
77.0400,0.200
77.0800,0.170
77.1200,0.185
77.1600,0.182
77.2000,0.182
77.2400,0.213
77.2800,0.180
77.3200,0.205
77.3600,0.195
77.4000,0.246
77.4400,0.260
77.4800,0.266
77.5200,0.317
77.5600,0.324
77.6000,0.313
77.6400,0.295
77.6800,0.265
77.7200,0.268
77.7600,0.285
77.8000,0.267
77.8400,0.257
77.8800,0.237
77.9200,0.201
77.9600,0.204
78.0000,0.179
78.0400,0.195
78.0800,0.196
78.1200,0.177
78.1600,0.181
78.2000,0.192
78.2400,0.174
78.2800,0.195
78.3200,0.190
78.3600,0.187
78.4000,0.189
78.4400,0.187
78.4800,0.160
78.5200,0.175
78.5600,0.169
78.6000,0.194
78.6400,0.229
78.6800,0.250
78.7200,0.225
78.7600,0.200
78.8000,0.194
78.8400,0.183
78.8800,0.215
78.9200,0.210
78.9600,0.195
79.0000,0.177
79.0400,0.175
79.0800,0.181
79.1200,0.177
79.1600,0.180
79.2000,0.163
79.2400,0.163
79.2800,0.182
79.3200,0.179
79.3600,0.180
79.4000,0.148
79.4400,0.163
79.4800,0.198
79.5200,0.162
79.5600,0.172
79.6000,0.155
79.6400,0.156
79.6800,0.165
79.7200,0.163
79.7600,0.155
79.8000,0.153
79.8400,0.164
79.8800,0.170
79.9200,0.162
79.9600,0.151
80.0000,0.161
