theta,intensity
5.0000,1.811
5.0400,1.999
5.0800,1.885
5.1200,1.926
5.1600,1.890
5.2000,1.951
5.2400,1.880
5.2800,1.945
5.3200,1.834
5.3600,1.832
5.4000,1.859
5.4400,1.835
5.4800,1.842
5.5200,1.788
5.5600,1.803
5.6000,1.776
5.6400,1.779
5.6800,1.814
5.7200,1.828
5.7600,1.744
5.8000,1.728
5.8400,1.752
5.8800,1.764
5.9200,1.718
5.9600,1.741
6.0000,1.682
6.0400,1.682
6.0800,1.659
6.1200,1.669
6.1600,1.682
6.2000,1.658
6.2400,1.634
6.2800,1.577
6.3200,1.569
6.3600,1.543
6.4000,1.579
6.4400,1.587
6.4800,1.544
6.5200,1.534
6.5600,1.515
6.6000,1.495
6.6400,1.484
6.6800,1.539
6.7200,1.495
6.7600,1.452
6.8000,1.500
6.8400,1.441
6.8800,1.438
6.9200,1.444
6.9600,1.477
7.0000,1.405
7.0400,1.427
7.0800,1.437
7.1200,1.435
7.1600,1.443
7.2000,1.476
7.2400,1.522
7.2800,1.474
7.3200,1.439
7.3600,1.474
7.4000,1.398
7.4400,1.407
7.4800,1.421
7.5200,1.405
7.5600,1.412
7.6000,1.406
7.6400,1.431
7.6800,1.443
7.7200,1.381
7.7600,1.414
7.8000,1.386
7.8400,1.400
7.8800,1.471
7.9200,1.395
7.9600,1.425
8.0000,1.446
8.0400,1.409
8.0800,1.416
8.1200,1.401
8.1600,1.369
8.2000,1.417
8.2400,1.413
8.2800,1.369
8.3200,1.390
8.3600,1.432
8.4000,1.443
8.4400,1.386
8.4800,1.366
8.5200,1.342
8.5600,1.364
8.6000,1.441
8.6400,1.417
8.6800,1.455
8.7200,1.405
8.7600,1.398
8.8000,1.417
8.8400,1.330
8.8800,1.373
8.9200,1.388
8.9600,1.429
9.0000,1.349
9.0400,1.378
9.0800,1.407
9.1200,1.350
9.1600,1.317
9.2000,1.411
9.2400,1.352
9.2800,1.360
9.3200,1.451
9.3600,1.378
9.4000,1.370
9.4400,1.413
9.4800,1.345
9.5200,1.399
9.5600,1.416
9.6000,1.381
9.6400,1.342
9.6800,1.326
9.7200,1.342
9.7600,1.389
9.8000,1.298
9.8400,1.350
9.8800,1.371
9.9200,1.349
9.9600,1.336
10.0000,1.367
10.0400,1.329
10.0800,1.386
10.1200,1.380
10.1600,1.332
10.2000,1.335
10.2400,1.326
10.2800,1.374
10.3200,1.373
10.3600,1.408
10.4000,1.410
10.4400,1.357
10.4800,1.400
10.5200,1.331
10.5600,1.361
10.6000,1.311
10.6400,1.340
10.6800,1.322
10.7200,1.308
10.7600,1.345
10.8000,1.331
10.8400,1.318
10.8800,1.307
10.9200,1.332
10.9600,1.353
11.0000,1.309
11.0400,1.292
11.0800,1.288
11.1200,1.326
11.1600,1.280
11.2000,1.308
11.2400,1.315
11.2800,1.344
11.3200,1.307
11.3600,1.303
11.4000,1.308
11.4400,1.329
11.4800,1.309
11.5200,1.350
11.5600,1.325
11.6000,1.360
11.6400,1.328
11.6800,1.341
11.7200,1.330
11.7600,1.327
11.8000,1.342
11.8400,1.279
11.8800,1.316
11.9200,1.317
11.9600,1.357
12.0000,1.327
12.0400,1.304
12.0800,1.303
12.1200,1.278
12.1600,1.297
12.2000,1.251
12.2400,1.277
12.2800,1.308
12.3200,1.264
12.3600,1.253
12.4000,1.272
12.4400,1.249
12.4800,1.271
12.5200,1.272
12.5600,1.305
12.6000,1.321
12.6400,1.289
12.6800,1.275
12.7200,1.245
12.7600,1.320
12.8000,1.293
12.8400,1.298
12.8800,1.268
12.9200,1.258
12.9600,1.289
13.0000,1.289
13.0400,1.245
13.0800,1.278
13.1200,1.278
13.1600,1.291
13.2000,1.267
13.2400,1.251
13.2800,1.269
13.3200,1.317
13.3600,1.237
13.4000,1.226
13.4400,1.249
13.4800,1.237
13.5200,1.213
13.5600,1.223
13.6000,1.206
13.6400,1.254
13.6800,1.227
13.7200,1.243
13.7600,1.294
13.8000,1.255
13.8400,1.261
13.8800,1.245
13.9200,1.266
13.9600,1.253
14.0000,1.250
14.0400,1.247
14.0800,1.305
14.1200,1.239
14.1600,1.233
14.2000,1.254
14.2400,1.270
14.2800,1.191
14.3200,1.241
14.3600,1.213
14.4000,1.180
14.4400,1.296
14.4800,1.247
14.5200,1.194
14.5600,1.249
14.6000,1.215
14.6400,1.211
14.6800,1.209
14.7200,1.218
14.7600,1.216
14.8000,1.240
14.8400,1.180
14.8800,1.168
14.9200,1.269
14.9600,1.155
15.0000,1.208
15.0400,1.227
15.0800,1.182
15.1200,1.226
15.1600,1.175
15.2000,1.166
15.2400,1.280
15.2800,1.204
15.3200,1.203
15.3600,1.188
15.4000,1.182
15.4400,1.208
15.4800,1.173
15.5200,1.144
15.5600,1.196
15.6000,1.239
15.6400,1.184
15.6800,1.189
15.7200,1.199
15.7600,1.173
15.8000,1.226
15.8400,1.207
15.8800,1.180
15.9200,1.215
15.9600,1.139
16.0000,1.255
16.0400,1.198
16.0800,1.201
16.1200,1.198
16.1600,1.211
16.2000,1.150
16.2400,1.211
16.2800,1.191
16.3200,1.090
16.3600,1.173
16.4000,1.166
16.4400,1.145
16.4800,1.135
16.5200,1.186
16.5600,1.166
16.6000,1.190
16.6400,1.204
16.6800,1.192
16.7200,1.171
16.7600,1.155
16.8000,1.152
16.8400,1.210
16.8800,1.152
16.9200,1.164
16.9600,1.187
17.0000,1.145
17.0400,1.210
17.0800,1.220
17.1200,1.131
17.1600,1.180
17.2000,1.144
17.2400,1.156
17.2800,1.174
17.3200,1.155
17.3600,1.167
17.4000,1.192
17.4400,1.137
17.4800,1.203
17.5200,1.136
17.5600,1.183
17.6000,1.157
17.6400,1.163
17.6800,1.228
17.7200,1.148
17.7600,1.168
17.8000,1.123
17.8400,1.118
17.8800,1.149
17.9200,1.173
17.9600,1.136
18.0000,1.173
18.0400,1.161
18.0800,1.142
18.1200,1.152
18.1600,1.145
18.2000,1.143
18.2400,1.164
18.2800,1.153
18.3200,1.127
18.3600,1.159
18.4000,1.112
18.4400,1.147
18.4800,1.148
18.5200,1.159
18.5600,1.199
18.6000,1.191
18.6400,1.170
18.6800,1.164
18.7200,1.171
18.7600,1.147
18.8000,1.161
18.8400,1.171
18.8800,1.142
18.9200,1.154
18.9600,1.164
19.0000,1.178
19.0400,1.144
19.0800,1.167
19.1200,1.183
19.1600,1.136
19.2000,1.131
19.2400,1.144
19.2800,1.154
19.3200,1.083
19.3600,1.148
19.4000,1.123
19.4400,1.113
19.4800,1.122
19.5200,1.132
19.5600,1.110
19.6000,1.152
19.6400,1.161
19.6800,1.117
19.7200,1.140
19.7600,1.137
19.8000,1.152
19.8400,1.155
19.8800,1.156
19.9200,1.145
19.9600,1.193
20.0000,1.161
20.0400,1.166
20.0800,1.103
20.1200,1.156
20.1600,1.165
20.2000,1.131
20.2400,1.147
20.2800,1.094
20.3200,1.211
20.3600,1.109
20.4000,1.165
20.4400,1.135
20.4800,1.123
20.5200,1.146
20.5600,1.107
20.6000,1.156
20.6400,1.163
20.6800,1.130
20.7200,1.106
20.7600,1.124
20.8000,1.131
20.8400,1.121
20.8800,1.120
20.9200,1.154
20.9600,1.108
21.0000,1.154
21.0400,1.099
21.0800,1.114
21.1200,1.106
21.1600,1.081
21.2000,1.099
21.2400,1.103
21.2800,1.154
21.3200,1.105
21.3600,1.079
21.4000,1.088
21.4400,1.072
21.4800,1.098
21.5200,1.109
21.5600,1.067
21.6000,1.119
21.6400,1.107
21.6800,1.106
21.7200,1.057
21.7600,1.052
21.8000,1.103
21.8400,1.097
21.8800,1.049
21.9200,1.135
21.9600,1.090
22.0000,1.127
22.0400,1.051
22.0800,1.051
22.1200,1.060
22.1600,1.022
22.2000,1.042
22.2400,1.079
22.2800,1.050
22.3200,1.066
22.3600,1.063
22.4000,1.029
22.4400,1.010
22.4800,1.055
22.5200,1.003
22.5600,1.024
22.6000,1.039
22.6400,1.053
22.6800,1.056
22.7200,1.014
22.7600,0.993
22.8000,1.051
22.8400,1.021
22.8800,0.973
22.9200,1.028
22.9600,1.003
23.0000,1.024
23.0400,0.999
23.0800,1.029
23.1200,1.006
23.1600,1.006
23.2000,0.984
23.2400,1.011
23.2800,0.975
23.3200,0.958
23.3600,0.978
23.4000,0.994
23.4400,0.993
23.4800,1.027
23.5200,0.974
23.5600,0.964
23.6000,0.971
23.6400,0.968
23.6800,1.002
23.7200,0.947
23.7600,0.947
23.8000,0.958
23.8400,0.932
23.8800,0.885
23.9200,0.917
23.9600,0.937
24.0000,0.887
24.0400,0.913
24.0800,0.955
24.1200,0.924
24.1600,0.960
24.2000,0.914
24.2400,0.954
24.2800,0.962
24.3200,0.901
24.3600,0.962
24.4000,0.951
24.4400,0.900
24.4800,0.918
24.5200,0.947
24.5600,0.937
24.6000,0.922
24.6400,0.919
24.6800,0.892
24.7200,0.911
24.7600,0.913
24.8000,0.867
24.8400,0.869
24.8800,0.847
24.9200,0.883
24.9600,0.895
25.0000,0.872
25.0400,0.896
25.0800,0.864
25.1200,0.883
25.1600,0.892
25.2000,0.841
25.2400,0.860
25.2800,0.905
25.3200,0.894
25.3600,0.887
25.4000,0.800
25.4400,0.841
25.4800,0.878
25.5200,0.877
25.5600,0.846
25.6000,0.900
25.6400,0.823
25.6800,0.890
25.7200,0.857
25.7600,0.796
25.8000,0.838
25.8400,0.868
25.8800,0.870
25.9200,0.834
25.9600,0.869
26.0000,0.841
26.0400,0.847
26.0800,0.828
26.1200,0.815
26.1600,0.809
26.2000,0.821
26.2400,0.812
26.2800,0.792
26.3200,0.819
26.3600,0.814
26.4000,0.824
26.4400,0.790
26.4800,0.797
26.5200,0.817
26.5600,0.768
26.6000,0.789
26.6400,0.785
26.6800,0.786
26.7200,0.794
26.7600,0.777
26.8000,0.772
26.8400,0.776
26.8800,0.773
26.9200,0.782
26.9600,0.720
27.0000,0.778
27.0400,0.786
27.0800,0.764
27.1200,0.736
27.1600,0.758
27.2000,0.744
27.2400,0.761
27.2800,0.750
27.3200,0.762
27.3600,0.734
27.4000,0.765
27.4400,0.758
27.4800,0.747
27.5200,0.749
27.5600,0.738
27.6000,0.716
27.6400,0.764
27.6800,0.767
27.7200,0.758
27.7600,0.748
27.8000,0.767
27.8400,0.733
27.8800,0.740
27.9200,0.724
27.9600,0.703
28.0000,0.733
28.0400,0.750
28.0800,0.724
28.1200,0.717
28.1600,0.716
28.2000,0.697
28.2400,0.698
28.2800,0.708
28.3200,0.704
28.3600,0.703
28.4000,0.708
28.4400,0.756
28.4800,0.668
28.5200,0.732
28.5600,0.687
28.6000,0.727
28.6400,0.725
28.6800,0.685
28.7200,0.686
28.7600,0.695
28.8000,0.687
28.8400,0.720
28.8800,0.688
28.9200,0.708
28.9600,0.714
29.0000,0.662
29.0400,0.682
29.0800,0.689
29.1200,0.685
29.1600,0.719
29.2000,0.684
29.2400,0.660
29.2800,0.701
29.3200,0.691
29.3600,0.665
29.4000,0.678
29.4400,0.678
29.4800,0.642
29.5200,0.670
29.5600,0.677
29.6000,0.674
29.6400,0.655
29.6800,0.669
29.7200,0.655
29.7600,0.632
29.8000,0.659
29.8400,0.659
29.8800,0.628
29.9200,0.672
29.9600,0.691
30.0000,0.633
30.0400,0.641
30.0800,0.639
30.1200,0.678
30.1600,0.672
30.2000,0.686
30.2400,0.666
30.2800,0.699
30.3200,0.644
30.3600,0.653
30.4000,0.655
30.4400,0.629
30.4800,0.649
30.5200,0.635
30.5600,0.648
30.6000,0.664
30.6400,0.593
30.6800,0.637
30.7200,0.601
30.7600,0.664
30.8000,0.603
30.8400,0.646
30.8800,0.603
30.9200,0.606
30.9600,0.588
31.0000,0.609
31.0400,0.636
31.0800,0.603
31.1200,0.637
31.1600,0.613
31.2000,0.622
31.2400,0.612
31.2800,0.647
31.3200,0.620
31.3600,0.601
31.4000,0.632
31.4400,0.634
31.4800,0.625
31.5200,0.594
31.5600,0.632
31.6000,0.631
31.6400,0.589
31.6800,0.592
31.7200,0.595
31.7600,0.566
31.8000,0.584
31.8400,0.630
31.8800,0.608
31.9200,0.591
31.9600,0.574
32.0000,0.571
32.0400,0.581
32.0800,0.571
32.1200,0.562
32.1600,0.571
32.2000,0.565
32.2400,0.595
32.2800,0.557
32.3200,0.588
32.3600,0.580
32.4000,0.566
32.4400,0.552
32.4800,0.586
32.5200,0.578
32.5600,0.563
32.6000,0.579
32.6400,0.565
32.6800,0.569
32.7200,0.587
32.7600,0.554
32.8000,0.569
32.8400,0.538
32.8800,0.548
32.9200,0.532
32.9600,0.558
33.0000,0.553
33.0400,0.567
33.0800,0.583
33.1200,0.563
33.1600,0.543
33.2000,0.562
33.2400,0.535
33.2800,0.566
33.3200,0.572
33.3600,0.558
33.4000,0.545
33.4400,0.548
33.4800,0.535
33.5200,0.539
33.5600,0.543
33.6000,0.552
33.6400,0.560
33.6800,0.564
33.7200,0.538
33.7600,0.532
33.8000,0.537
33.8400,0.554
33.8800,0.534
33.9200,0.522
33.9600,0.534
34.0000,0.536
34.0400,0.544
34.0800,0.537
34.1200,0.516
34.1600,0.522
34.2000,0.535
34.2400,0.530
34.2800,0.525
34.3200,0.520
34.3600,0.491
34.4000,0.498
34.4400,0.475
34.4800,0.529
34.5200,0.542
34.5600,0.520
34.6000,0.491
34.6400,0.551
34.6800,0.522
34.7200,0.511
34.7600,0.504
34.8000,0.561
34.8400,0.528
34.8800,0.508
34.9200,0.525
34.9600,0.490
35.0000,0.494
35.0400,0.541
35.0800,0.523
35.1200,0.485
35.1600,0.518
35.2000,0.508
35.2400,0.535
35.2800,0.523
35.3200,0.527
35.3600,0.518
35.4000,0.500
35.4400,0.524
35.4800,0.503
35.5200,0.490
35.5600,0.492
35.6000,0.501
35.6400,0.493
35.6800,0.513
35.7200,0.515
35.7600,0.505
35.8000,0.520
35.8400,0.480
35.8800,0.499
35.9200,0.515
35.9600,0.493
36.0000,0.500
36.0400,0.503
36.0800,0.552
36.1200,0.498
36.1600,0.481
36.2000,0.492
36.2400,0.495
36.2800,0.479
36.3200,0.510
36.3600,0.490
36.4000,0.473
36.4400,0.493
36.4800,0.515
36.5200,0.480
36.5600,0.513
36.6000,0.506
36.6400,0.507
36.6800,0.522
36.7200,0.510
36.7600,0.497
36.8000,0.534
36.8400,0.521
36.8800,0.543
36.9200,0.494
36.9600,0.496
37.0000,0.451
37.0400,0.492
37.0800,0.504
37.1200,0.539
37.1600,0.490
37.2000,0.533
37.2400,0.518
37.2800,0.483
37.3200,0.523
37.3600,0.516
37.4000,0.499
37.4400,0.490
37.4800,0.533
37.5200,0.546
37.5600,0.547
37.6000,0.544
37.6400,0.552
37.6800,0.536
37.7200,0.552
37.7600,0.573
37.8000,0.554
37.8400,0.569
37.8800,0.549
37.9200,0.581
37.9600,0.613
38.0000,0.602
38.0400,0.656
38.0800,0.680
38.1200,0.678
38.1600,0.730
38.2000,0.758
38.2400,0.797
38.2800,0.840
38.3200,0.888
38.3600,0.977
38.4000,1.028
38.4400,1.136
38.4800,1.302
38.5200,1.484
38.5600,1.760
38.6000,2.232
38.6400,2.822
38.6800,3.763
38.7200,4.999
38.7600,6.757
38.8000,8.484
38.8400,9.935
38.8800,10.407
38.9200,9.785
38.9600,8.772
39.0000,7.221
39.0400,5.654
39.0800,4.295
39.1200,3.353
39.1600,2.619
39.2000,2.055
39.2400,1.687
39.2800,1.454
39.3200,1.283
39.3600,1.118
39.4000,1.069
39.4400,0.970
39.4800,0.846
39.5200,0.845
39.5600,0.759
39.6000,0.772
39.6400,0.726
39.6800,0.655
39.7200,0.658
39.7600,0.641
39.8000,0.609
39.8400,0.578
39.8800,0.580
39.9200,0.572
39.9600,0.532
40.0000,0.550
40.0400,0.511
40.0800,0.536
40.1200,0.520
40.1600,0.508
40.2000,0.507
40.2400,0.466
40.2800,0.494
40.3200,0.491
40.3600,0.483
40.4000,0.505
40.4400,0.465
40.4800,0.472
40.5200,0.496
40.5600,0.440
40.6000,0.441
40.6400,0.441
40.6800,0.487
40.7200,0.450
40.7600,0.470
40.8000,0.452
40.8400,0.438
40.8800,0.453
40.9200,0.447
40.9600,0.451
41.0000,0.415
41.0400,0.422
41.0800,0.416
41.1200,0.434
41.1600,0.407
41.2000,0.413
41.2400,0.449
41.2800,0.405
41.3200,0.418
41.3600,0.418
41.4000,0.423
41.4400,0.423
41.4800,0.397
41.5200,0.401
41.5600,0.430
41.6000,0.397
41.6400,0.405
41.6800,0.427
41.7200,0.416
41.7600,0.391
41.8000,0.407
41.8400,0.399
41.8800,0.414
41.9200,0.430
41.9600,0.423
42.0000,0.410
42.0400,0.418
42.0800,0.401
42.1200,0.404
42.1600,0.403
42.2000,0.393
42.2400,0.399
42.2800,0.393
42.3200,0.419
42.3600,0.390
42.4000,0.368
42.4400,0.385
42.4800,0.381
42.5200,0.419
42.5600,0.379
42.6000,0.418
42.6400,0.416
42.6800,0.384
42.7200,0.392
42.7600,0.390
42.8000,0.422
42.8400,0.401
42.8800,0.398
42.9200,0.409
42.9600,0.377
43.0000,0.394
43.0400,0.415
43.0800,0.386
43.1200,0.396
43.1600,0.393
43.2000,0.419
43.2400,0.420
43.2800,0.397
43.3200,0.406
43.3600,0.388
43.4000,0.374
43.4400,0.419
43.4800,0.385
43.5200,0.398
43.5600,0.390
43.6000,0.439
43.6400,0.413
43.6800,0.392
43.7200,0.401
43.7600,0.422
43.8000,0.468
43.8400,0.433
43.8800,0.441
43.9200,0.414
43.9600,0.426
44.0000,0.449
44.0400,0.451
44.0800,0.450
44.1200,0.467
44.1600,0.451
44.2000,0.464
44.2400,0.463
44.2800,0.468
44.3200,0.535
44.3600,0.502
44.4000,0.542
44.4400,0.555
44.4800,0.559
44.5200,0.600
44.5600,0.659
44.6000,0.667
44.6400,0.685
44.6800,0.747
44.7200,0.788
44.7600,0.873
44.8000,0.955
44.8400,1.134
44.8800,1.291
44.9200,1.479
44.9600,1.755
45.0000,2.003
45.0400,2.391
45.0800,2.794
45.1200,3.152
45.1600,3.303
45.2000,3.406
45.2400,3.300
45.2800,3.139
45.3200,2.810
45.3600,2.425
45.4000,2.112
45.4400,1.764
45.4800,1.467
45.5200,1.274
45.5600,1.064
45.6000,0.969
45.6400,0.822
45.6800,0.752
45.7200,0.738
45.7600,0.638
45.8000,0.616
45.8400,0.594
45.8800,0.549
45.9200,0.524
45.9600,0.512
46.0000,0.481
46.0400,0.453
46.0800,0.430
46.1200,0.391
46.1600,0.418
46.2000,0.389
46.2400,0.394
46.2800,0.401
46.3200,0.380
46.3600,0.400
46.4000,0.395
46.4400,0.340
46.4800,0.362
46.5200,0.351
46.5600,0.374
46.6000,0.338
46.6400,0.331
46.6800,0.353
46.7200,0.342
46.7600,0.323
46.8000,0.309
46.8400,0.312
46.8800,0.353
46.9200,0.336
46.9600,0.305
47.0000,0.334
47.0400,0.315
47.0800,0.323
47.1200,0.325
47.1600,0.358
47.2000,0.330
47.2400,0.324
47.2800,0.301
47.3200,0.336
47.3600,0.305
47.4000,0.312
47.4400,0.326
47.4800,0.305
47.5200,0.313
47.5600,0.309
47.6000,0.291
47.6400,0.300
47.6800,0.300
47.7200,0.289
47.7600,0.290
47.8000,0.315
47.8400,0.288
47.8800,0.283
47.9200,0.283
47.9600,0.303
48.0000,0.271
48.0400,0.300
48.0800,0.290
48.1200,0.305
48.1600,0.278
48.2000,0.289
48.2400,0.286
48.2800,0.295
48.3200,0.290
48.3600,0.306
48.4000,0.269
48.4400,0.280
48.4800,0.283
48.5200,0.273
48.5600,0.295
48.6000,0.307
48.6400,0.262
48.6800,0.266
48.7200,0.280
48.7600,0.293
48.8000,0.279
48.8400,0.288
48.8800,0.254
48.9200,0.270
48.9600,0.294
49.0000,0.275
49.0400,0.260
49.0800,0.279
49.1200,0.280
49.1600,0.281
49.2000,0.285
49.2400,0.246
49.2800,0.254
49.3200,0.278
49.3600,0.297
49.4000,0.300
49.4400,0.264
49.4800,0.268
49.5200,0.273
49.5600,0.266
49.6000,0.278
49.6400,0.281
49.6800,0.268
49.7200,0.280
49.7600,0.262
49.8000,0.265
49.8400,0.272
49.8800,0.280
49.9200,0.257
49.9600,0.267
50.0000,0.273
50.0400,0.292
50.0800,0.269
50.1200,0.296
50.1600,0.271
50.2000,0.260
50.2400,0.268
50.2800,0.279
50.3200,0.261
50.3600,0.263
50.4000,0.265
50.4400,0.267
50.4800,0.297
50.5200,0.253
50.5600,0.255
50.6000,0.244
50.6400,0.246
50.6800,0.269
50.7200,0.256
50.7600,0.265
50.8000,0.259
50.8400,0.254
50.8800,0.248
50.9200,0.259
50.9600,0.250
51.0000,0.256
51.0400,0.241
51.0800,0.272
51.1200,0.275
51.1600,0.264
51.2000,0.244
51.2400,0.240
51.2800,0.252
51.3200,0.241
51.3600,0.234
51.4000,0.249
51.4400,0.241
51.4800,0.237
51.5200,0.248
51.5600,0.245
51.6000,0.240
51.6400,0.229
51.6800,0.256
51.7200,0.256
51.7600,0.229
51.8000,0.252
51.8400,0.265
51.8800,0.219
51.9200,0.238
51.9600,0.238
52.0000,0.235
52.0400,0.239
52.0800,0.245
52.1200,0.246
52.1600,0.250
52.2000,0.247
52.2400,0.232
52.2800,0.234
52.3200,0.233
52.3600,0.240
52.4000,0.224
52.4400,0.250
52.4800,0.221
52.5200,0.269
52.5600,0.243
52.6000,0.234
52.6400,0.215
52.6800,0.217
52.7200,0.238
52.7600,0.237
52.8000,0.237
52.8400,0.232
52.8800,0.216
52.9200,0.224
52.9600,0.235
53.0000,0.236
53.0400,0.231
53.0800,0.224
53.1200,0.226
53.1600,0.227
53.2000,0.230
53.2400,0.229
53.2800,0.255
53.3200,0.235
53.3600,0.219
53.4000,0.229
53.4400,0.222
53.4800,0.226
53.5200,0.234
53.5600,0.222
53.6000,0.226
53.6400,0.228
53.6800,0.226
53.7200,0.232
53.7600,0.235
53.8000,0.231
53.8400,0.223
53.8800,0.238
53.9200,0.239
53.9600,0.247
54.0000,0.214
54.0400,0.242
54.0800,0.227
54.1200,0.226
54.1600,0.225
54.2000,0.234
54.2400,0.234
54.2800,0.245
54.3200,0.222
54.3600,0.235
54.4000,0.248
54.4400,0.223
54.4800,0.238
54.5200,0.244
54.5600,0.204
54.6000,0.214
54.6400,0.224
54.6800,0.239
54.7200,0.255
54.7600,0.228
54.8000,0.234
54.8400,0.224
54.8800,0.228
54.9200,0.215
54.9600,0.237
55.0000,0.215
55.0400,0.222
55.0800,0.210
55.1200,0.217
55.1600,0.229
55.2000,0.223
55.2400,0.230
55.2800,0.213
55.3200,0.226
55.3600,0.218
55.4000,0.214
55.4400,0.198
55.4800,0.213
55.5200,0.203
55.5600,0.214
55.6000,0.218
55.6400,0.208
55.6800,0.225
55.7200,0.229
55.7600,0.203
55.8000,0.205
55.8400,0.236
55.8800,0.221
55.9200,0.235
55.9600,0.222
56.0000,0.216
56.0400,0.211
56.0800,0.229
56.1200,0.230
56.1600,0.228
56.2000,0.200
56.2400,0.223
56.2800,0.225
56.3200,0.210
56.3600,0.202
56.4000,0.189
56.4400,0.211
56.4800,0.182
56.5200,0.222
56.5600,0.238
56.6000,0.200
56.6400,0.218
56.6800,0.228
56.7200,0.210
56.7600,0.186
56.8000,0.201
56.8400,0.243
56.8800,0.202
56.9200,0.191
56.9600,0.199
57.0000,0.213
57.0400,0.234
57.0800,0.200
57.1200,0.217
57.1600,0.207
57.2000,0.198
57.2400,0.234
57.2800,0.204
57.3200,0.214
57.3600,0.212
57.4000,0.226
57.4400,0.208
57.4800,0.211
57.5200,0.216
57.5600,0.201
57.6000,0.205
57.6400,0.184
57.6800,0.201
57.7200,0.203
57.7600,0.215
57.8000,0.222
57.8400,0.185
57.8800,0.187
57.9200,0.209
57.9600,0.206
58.0000,0.194
58.0400,0.223
58.0800,0.223
58.1200,0.223
58.1600,0.215
58.2000,0.186
58.2400,0.200
58.2800,0.192
58.3200,0.194
58.3600,0.220
58.4000,0.207
58.4400,0.217
58.4800,0.192
58.5200,0.212
58.5600,0.203
58.6000,0.199
58.6400,0.225
58.6800,0.195
58.7200,0.180
58.7600,0.206
58.8000,0.199
58.8400,0.185
58.8800,0.190
58.9200,0.187
58.9600,0.206
59.0000,0.190
59.0400,0.207
59.0800,0.202
59.1200,0.198
59.1600,0.193
59.2000,0.195
59.2400,0.199
59.2800,0.192
59.3200,0.218
59.3600,0.197
59.4000,0.202
59.4400,0.202
59.4800,0.211
59.5200,0.211
59.5600,0.211
59.6000,0.187
59.6400,0.209
59.6800,0.243
59.7200,0.206
59.7600,0.210
59.8000,0.195
59.8400,0.194
59.8800,0.210
59.9200,0.210
59.9600,0.200
60.0000,0.195
60.0400,0.190
60.0800,0.204
60.1200,0.193
60.1600,0.200
60.2000,0.197
60.2400,0.192
60.2800,0.197
60.3200,0.195
60.3600,0.216
60.4000,0.208
60.4400,0.199
60.4800,0.203
60.5200,0.199
60.5600,0.225
60.6000,0.190
60.6400,0.198
60.6800,0.208
60.7200,0.185
60.7600,0.205
60.8000,0.193
60.8400,0.179
60.8800,0.205
60.9200,0.207
60.9600,0.201
61.0000,0.193
61.0400,0.186
61.0800,0.191
61.1200,0.209
61.1600,0.197
61.2000,0.201
61.2400,0.207
61.2800,0.206
61.3200,0.189
61.3600,0.200
61.4000,0.201
61.4400,0.189
61.4800,0.198
61.5200,0.210
61.5600,0.224
61.6000,0.199
61.6400,0.203
61.6800,0.221
61.7200,0.209
61.7600,0.221
61.8000,0.209
61.8400,0.194
61.8800,0.212
61.9200,0.169
61.9600,0.209
62.0000,0.192
62.0400,0.213
62.0800,0.184
62.1200,0.203
62.1600,0.212
62.2000,0.205
62.2400,0.197
62.2800,0.212
62.3200,0.191
62.3600,0.175
62.4000,0.205
62.4400,0.210
62.4800,0.225
62.5200,0.194
62.5600,0.218
62.6000,0.203
62.6400,0.213
62.6800,0.220
62.7200,0.223
62.7600,0.197
62.8000,0.218
62.8400,0.206
62.8800,0.214
62.9200,0.213
62.9600,0.222
63.0000,0.210
63.0400,0.207
63.0800,0.217
63.1200,0.196
63.1600,0.216
63.2000,0.228
63.2400,0.235
63.2800,0.199
63.3200,0.194
63.3600,0.243
63.4000,0.220
63.4400,0.207
63.4800,0.236
63.5200,0.234
63.5600,0.205
63.6000,0.213
63.6400,0.209
63.6800,0.225
63.7200,0.241
63.7600,0.216
63.8000,0.227
63.8400,0.209
63.8800,0.220
63.9200,0.241
63.9600,0.259
64.0000,0.228
64.0400,0.227
64.0800,0.249
64.1200,0.224
64.1600,0.237
64.2000,0.222
64.2400,0.229
64.2800,0.260
64.3200,0.248
64.3600,0.249
64.4000,0.242
64.4400,0.251
64.4800,0.233
64.5200,0.260
64.5600,0.278
64.6000,0.261
64.6400,0.265
64.6800,0.276
64.7200,0.296
64.7600,0.271
64.8000,0.294
64.8400,0.289
64.8800,0.303
64.9200,0.295
64.9600,0.324
65.0000,0.306
65.0400,0.322
65.0800,0.350
65.1200,0.338
65.1600,0.364
65.2000,0.379
65.2400,0.384
65.2800,0.429
65.3200,0.452
65.3600,0.485
65.4000,0.539
65.4400,0.595
65.4800,0.661
65.5200,0.796
65.5600,0.891
65.6000,0.967
65.6400,1.148
65.6800,1.325
65.7200,1.394
65.7600,1.576
65.8000,1.576
65.8400,1.657
65.8800,1.625
65.9200,1.509
65.9600,1.413
66.0000,1.310
66.0400,1.170
66.0800,1.022
66.1200,0.906
66.1600,0.832
66.2000,0.769
66.2400,0.666
66.2800,0.622
66.3200,0.570
66.3600,0.515
66.4000,0.458
66.4400,0.493
66.4800,0.430
66.5200,0.469
66.5600,0.416
66.6000,0.429
66.6400,0.423
66.6800,0.409
66.7200,0.438
66.7600,0.381
66.8000,0.400
66.8400,0.383
66.8800,0.387
66.9200,0.396
66.9600,0.384
67.0000,0.378
67.0400,0.397
67.0800,0.404
67.1200,0.417
67.1600,0.377
67.2000,0.384
67.2400,0.417
67.2800,0.409
67.3200,0.410
67.3600,0.416
67.4000,0.410
67.4400,0.381
67.4800,0.431
67.5200,0.465
67.5600,0.417
67.6000,0.435
67.6400,0.445
67.6800,0.458
67.7200,0.453
67.7600,0.450
67.8000,0.440
67.8400,0.468
67.8800,0.507
67.9200,0.479
67.9600,0.520
68.0000,0.520
68.0400,0.517
68.0800,0.496
68.1200,0.545
68.1600,0.552
68.2000,0.560
68.2400,0.575
68.2800,0.596
68.3200,0.617
68.3600,0.614
68.4000,0.637
68.4400,0.675
68.4800,0.660
68.5200,0.732
68.5600,0.708
68.6000,0.780
68.6400,0.862
68.6800,0.920
68.7200,1.048
68.7600,1.324
68.8000,1.584
68.8400,1.818
68.8800,1.903
68.9200,2.069
68.9600,2.451
69.0000,3.433
69.0400,6.732
69.0800,21.471
69.1200,58.887
69.1600,87.393
69.2000,85.776
69.2400,58.816
69.2800,27.737
69.3200,35.310
69.3600,47.297
69.4000,45.694
69.4400,29.401
69.4800,9.555
69.5200,3.833
69.5600,2.493
69.6000,1.854
69.6400,1.511
69.6800,1.349
69.7200,1.208
69.7600,1.111
69.8000,1.011
69.8400,0.948
69.8800,0.888
69.9200,0.848
69.9600,0.810
70.0000,0.744
70.0400,0.757
70.0800,0.720
70.1200,0.711
70.1600,0.659
70.2000,0.663
70.2400,0.643
70.2800,0.635
70.3200,0.584
70.3600,0.616
70.4000,0.554
70.4400,0.541
70.4800,0.545
70.5200,0.529
70.5600,0.508
70.6000,0.495
70.6400,0.531
70.6800,0.478
70.7200,0.467
70.7600,0.491
70.8000,0.435
70.8400,0.454
70.8800,0.437
70.9200,0.435
70.9600,0.438
71.0000,0.431
71.0400,0.412
71.0800,0.383
71.1200,0.414
71.1600,0.364
71.2000,0.370
71.2400,0.345
71.2800,0.343
71.3200,0.332
71.3600,0.359
71.4000,0.385
71.4400,0.361
71.4800,0.354
71.5200,0.345
71.5600,0.353
71.6000,0.321
71.6400,0.307
71.6800,0.333
71.7200,0.314
71.7600,0.323
71.8000,0.291
71.8400,0.295
71.8800,0.282
71.9200,0.318
71.9600,0.274
72.0000,0.290
72.0400,0.303
72.0800,0.273
72.1200,0.299
72.1600,0.281
72.2000,0.293
72.2400,0.289
72.2800,0.286
72.3200,0.266
72.3600,0.247
72.4000,0.277
72.4400,0.295
72.4800,0.249
72.5200,0.256
72.5600,0.250
72.6000,0.246
72.6400,0.250
72.6800,0.244
72.7200,0.264
72.7600,0.263
72.8000,0.222
72.8400,0.246
72.8800,0.234
72.9200,0.232
72.9600,0.249
73.0000,0.238
73.0400,0.237
73.0800,0.216
73.1200,0.227
73.1600,0.229
73.2000,0.224
73.2400,0.224
73.2800,0.229
73.3200,0.231
73.3600,0.213
73.4000,0.237
73.4400,0.209
73.4800,0.213
73.5200,0.212
73.5600,0.220
73.6000,0.221
73.6400,0.203
73.6800,0.199
73.7200,0.212
73.7600,0.223
73.8000,0.209
73.8400,0.215
73.8800,0.202
73.9200,0.210
73.9600,0.203
74.0000,0.223
74.0400,0.208
74.0800,0.238
74.1200,0.203
74.1600,0.211
74.2000,0.195
74.2400,0.194
74.2800,0.201
74.3200,0.195
74.3600,0.190
74.4000,0.199
74.4400,0.198
74.4800,0.212
74.5200,0.193
74.5600,0.199
74.6000,0.191
74.6400,0.206
74.6800,0.186
74.7200,0.190
74.7600,0.188
74.8000,0.195
74.8400,0.198
74.8800,0.200
74.9200,0.206
74.9600,0.186
75.0000,0.194
75.0400,0.190
75.0800,0.184
75.1200,0.200
75.1600,0.174
75.2000,0.199
75.2400,0.173
75.2800,0.186
75.3200,0.174
75.3600,0.189
75.4000,0.179
75.4400,0.210
75.4800,0.197
75.5200,0.179
75.5600,0.177
75.6000,0.185
75.6400,0.176
75.6800,0.185
75.7200,0.202
75.7600,0.185
75.8000,0.192
75.8400,0.171
75.8800,0.163
75.9200,0.189
75.9600,0.170
76.0000,0.175
76.0400,0.168
76.0800,0.175
76.1200,0.179
76.1600,0.170
76.2000,0.170
76.2400,0.163
76.2800,0.189
76.3200,0.161
76.3600,0.191
76.4000,0.172
76.4400,0.196
76.4800,0.170
76.5200,0.171
76.5600,0.210
76.6000,0.183
76.6400,0.158
76.6800,0.191
76.7200,0.172
76.7600,0.184
76.8000,0.168
76.8400,0.197
76.8800,0.188
76.9200,0.199
76.9600,0.189
77.0000,0.178
77.0400,0.190
77.0800,0.189
77.1200,0.190
77.1600,0.190
77.2000,0.197
77.2400,0.185
77.2800,0.201
77.3200,0.197
77.3600,0.183
77.4000,0.203
77.4400,0.192
77.4800,0.183
77.5200,0.185
77.5600,0.199
77.6000,0.185
77.6400,0.211
77.6800,0.213
77.7200,0.206
77.7600,0.208
77.8000,0.189
77.8400,0.188
77.8800,0.188
77.9200,0.192
77.9600,0.195
78.0000,0.221
78.0400,0.218
78.0800,0.225
78.1200,0.230
78.1600,0.221
78.2000,0.234
78.2400,0.229
78.2800,0.256
78.3200,0.231
78.3600,0.257
78.4000,0.250
78.4400,0.301
78.4800,0.296
78.5200,0.338
78.5600,0.360
78.6000,0.363
78.6400,0.431
78.6800,0.443
78.7200,0.491
78.7600,0.546
78.8000,0.628
78.8400,0.691
78.8800,0.815
78.9200,0.879
78.9600,1.037
79.0000,1.096
79.0400,1.234
79.0800,1.261
79.1200,1.358
79.1600,1.361
79.2000,1.345
79.2400,1.254
79.2800,1.194
79.3200,1.164
79.3600,1.069
79.4000,0.951
79.4400,0.839
79.4800,0.759
79.5200,0.690
79.5600,0.638
79.6000,0.550
79.6400,0.478
79.6800,0.445
79.7200,0.393
79.7600,0.385
79.8000,0.318
79.8400,0.314
79.8800,0.300
79.9200,0.282
79.9600,0.283
80.0000,0.261
