theta,intensity
5.0000,10.665
5.0400,10.337
5.0800,10.231
5.1200,10.171
5.1600,9.972
5.2000,9.909
5.2400,9.636
5.2800,9.659
5.3200,9.764
5.3600,9.441
5.4000,9.272
5.4400,9.333
5.4800,9.358
5.5200,9.102
5.5600,8.685
5.6000,8.687
5.6400,8.539
5.6800,8.240
5.7200,8.374
5.7600,8.188
5.8000,7.889
5.8400,7.827
5.8800,7.612
5.9200,7.767
5.9600,7.437
6.0000,7.280
6.0400,7.252
6.0800,6.785
6.1200,6.903
6.1600,6.679
6.2000,6.599
6.2400,6.709
6.2800,6.654
6.3200,6.597
6.3600,6.368
6.4000,6.115
6.4400,5.893
6.4800,5.850
6.5200,5.822
6.5600,5.702
6.6000,5.705
6.6400,5.533
6.6800,5.386
6.7200,5.386
6.7600,5.364
6.8000,5.394
6.8400,5.229
6.8800,5.138
6.9200,5.029
6.9600,5.010
7.0000,5.106
7.0400,4.912
7.0800,5.078
7.1200,5.058
7.1600,4.766
7.2000,4.680
7.2400,4.710
7.2800,4.600
7.3200,4.549
7.3600,4.421
7.4000,4.493
7.4400,4.505
7.4800,4.331
7.5200,4.536
7.5600,4.288
7.6000,4.647
7.6400,4.277
7.6800,4.340
7.7200,4.357
7.7600,4.171
7.8000,4.064
7.8400,4.208
7.8800,4.169
7.9200,4.279
7.9600,4.055
8.0000,4.128
8.0400,4.031
8.0800,4.228
8.1200,4.053
8.1600,4.013
8.2000,4.131
8.2400,4.067
8.2800,3.979
8.3200,4.021
8.3600,4.014
8.4000,4.038
8.4400,4.043
8.4800,4.000
8.5200,3.919
8.5600,3.970
8.6000,3.927
8.6400,3.857
8.6800,3.899
8.7200,3.896
8.7600,3.995
8.8000,3.869
8.8400,3.905
8.8800,3.939
8.9200,3.943
8.9600,3.906
9.0000,3.741
9.0400,3.862
9.0800,3.779
9.1200,3.789
9.1600,3.808
9.2000,3.811
9.2400,4.067
9.2800,3.890
9.3200,3.917
9.3600,3.901
9.4000,3.658
9.4400,3.823
9.4800,3.849
9.5200,3.894
9.5600,3.687
9.6000,3.842
9.6400,3.854
9.6800,3.877
9.7200,3.845
9.7600,3.738
9.8000,3.790
9.8400,3.678
9.8800,3.643
9.9200,3.847
9.9600,3.809
10.0000,3.728
10.0400,3.667
10.0800,3.742
10.1200,3.652
10.1600,3.677
10.2000,3.703
10.2400,3.561
10.2800,3.645
10.3200,3.643
10.3600,3.678
10.4000,3.706
10.4400,3.672
10.4800,3.658
10.5200,3.694
10.5600,3.625
10.6000,3.524
10.6400,3.568
10.6800,3.672
10.7200,3.677
10.7600,3.851
10.8000,3.611
10.8400,3.507
10.8800,3.646
10.9200,3.502
10.9600,3.578
11.0000,3.583
11.0400,3.733
11.0800,3.673
11.1200,3.553
11.1600,3.578
11.2000,3.520
11.2400,3.778
11.2800,3.643
11.3200,3.680
11.3600,3.619
11.4000,3.498
11.4400,3.705
11.4800,3.666
11.5200,3.735
11.5600,3.726
11.6000,3.708
11.6400,3.559
11.6800,3.540
11.7200,3.518
11.7600,3.561
11.8000,3.533
11.8400,3.678
11.8800,3.542
11.9200,3.428
11.9600,3.612
12.0000,3.484
12.0400,3.463
12.0800,3.500
12.1200,3.500
12.1600,3.379
12.2000,3.314
12.2400,3.463
12.2800,3.489
12.3200,3.483
12.3600,3.564
12.4000,3.505
12.4400,3.499
12.4800,3.505
12.5200,3.540
12.5600,3.560
12.6000,3.392
12.6400,3.399
12.6800,3.458
12.7200,3.565
12.7600,3.431
12.8000,3.443
12.8400,3.512
12.8800,3.319
12.9200,3.296
12.9600,3.306
13.0000,3.461
13.0400,3.448
13.0800,3.420
13.1200,3.419
13.1600,3.424
13.2000,3.387
13.2400,3.365
13.2800,3.360
13.3200,3.429
13.3600,3.320
13.4000,3.481
13.4400,3.455
13.4800,3.366
13.5200,3.276
13.5600,3.313
13.6000,3.342
13.6400,3.386
13.6800,3.349
13.7200,3.267
13.7600,3.393
13.8000,3.397
13.8400,3.251
13.8800,3.216
13.9200,3.384
13.9600,3.200
14.0000,3.371
14.0400,3.268
14.0800,3.389
14.1200,3.307
14.1600,3.213
14.2000,3.244
14.2400,3.329
14.2800,3.298
14.3200,3.316
14.3600,3.265
14.4000,3.253
14.4400,3.232
14.4800,3.198
14.5200,3.227
14.5600,3.303
14.6000,3.195
14.6400,3.266
14.6800,3.275
14.7200,3.260
14.7600,3.267
14.8000,3.267
14.8400,3.165
14.8800,3.135
14.9200,3.201
14.9600,3.174
15.0000,3.272
15.0400,3.169
15.0800,3.146
15.1200,3.354
15.1600,3.300
15.2000,3.253
15.2400,3.177
15.2800,3.220
15.3200,3.212
15.3600,3.208
15.4000,3.216
15.4400,3.158
15.4800,3.186
15.5200,3.305
15.5600,3.126
15.6000,3.156
15.6400,3.120
15.6800,3.093
15.7200,3.129
15.7600,3.105
15.8000,3.081
15.8400,3.191
15.8800,3.196
15.9200,3.010
15.9600,3.224
16.0000,3.103
16.0400,3.207
16.0800,3.115
16.1200,3.094
16.1600,3.042
16.2000,3.199
16.2400,3.116
16.2800,2.949
16.3200,3.173
16.3600,3.132
16.4000,3.174
16.4400,3.154
16.4800,3.120
16.5200,3.234
16.5600,3.081
16.6000,3.087
16.6400,3.090
16.6800,3.108
16.7200,3.048
16.7600,3.132
16.8000,3.026
16.8400,2.989
16.8800,3.064
16.9200,3.134
16.9600,3.084
17.0000,3.032
17.0400,2.999
17.0800,3.084
17.1200,2.965
17.1600,3.119
17.2000,3.036
17.2400,2.991
17.2800,3.079
17.3200,2.903
17.3600,2.925
17.4000,3.045
17.4400,2.975
17.4800,3.103
17.5200,3.014
17.5600,3.035
17.6000,3.004
17.6400,2.994
17.6800,2.892
17.7200,2.869
17.7600,2.872
17.8000,3.116
17.8400,2.977
17.8800,3.077
17.9200,3.020
17.9600,2.985
18.0000,2.911
18.0400,3.082
18.0800,2.937
18.1200,3.025
18.1600,2.952
18.2000,2.800
18.2400,3.009
18.2800,2.911
18.3200,2.979
18.3600,2.935
18.4000,3.017
18.4400,2.938
18.4800,2.960
18.5200,2.740
18.5600,2.841
18.6000,2.867
18.6400,2.750
18.6800,2.838
18.7200,2.855
18.7600,2.874
18.8000,2.775
18.8400,2.807
18.8800,2.751
18.9200,2.830
18.9600,2.918
19.0000,2.837
19.0400,2.747
19.0800,2.803
19.1200,2.911
19.1600,2.991
19.2000,2.805
19.2400,2.808
19.2800,2.830
19.3200,2.890
19.3600,2.856
19.4000,2.716
19.4400,2.860
19.4800,2.908
19.5200,2.834
19.5600,2.797
19.6000,2.564
19.6400,2.693
19.6800,2.854
19.7200,2.764
19.7600,2.837
19.8000,2.866
19.8400,2.729
19.8800,2.794
19.9200,2.824
19.9600,2.837
20.0000,2.766
20.0400,2.805
20.0800,2.837
20.1200,2.770
20.1600,2.758
20.2000,2.774
20.2400,2.667
20.2800,2.653
20.3200,2.719
20.3600,2.791
20.4000,2.599
20.4400,2.792
20.4800,2.706
20.5200,2.801
20.5600,2.663
20.6000,2.705
20.6400,2.847
20.6800,2.807
20.7200,2.689
20.7600,2.637
20.8000,2.707
20.8400,2.720
20.8800,2.645
20.9200,2.851
20.9600,2.776
21.0000,2.793
21.0400,2.605
21.0800,2.683
21.1200,2.747
21.1600,2.704
21.2000,2.607
21.2400,2.685
21.2800,2.580
21.3200,2.768
21.3600,2.662
21.4000,2.707
21.4400,2.674
21.4800,2.681
21.5200,2.651
21.5600,2.543
21.6000,2.495
21.6400,2.659
21.6800,2.694
21.7200,2.747
21.7600,2.727
21.8000,2.688
21.8400,2.708
21.8800,2.668
21.9200,2.607
21.9600,2.616
22.0000,2.656
22.0400,2.489
22.0800,2.574
22.1200,2.707
22.1600,2.595
22.2000,2.697
22.2400,2.658
22.2800,2.613
22.3200,2.581
22.3600,2.537
22.4000,2.779
22.4400,2.694
22.4800,2.770
22.5200,2.756
22.5600,2.684
22.6000,2.636
22.6400,2.622
22.6800,2.628
22.7200,2.784
22.7600,2.625
22.8000,2.535
22.8400,2.658
22.8800,2.698
22.9200,2.732
22.9600,2.719
23.0000,2.726
23.0400,2.593
23.0800,2.575
23.1200,2.690
23.1600,2.621
23.2000,2.631
23.2400,2.612
23.2800,2.514
23.3200,2.762
23.3600,2.586
23.4000,2.641
23.4400,2.599
23.4800,2.695
23.5200,2.572
23.5600,2.637
23.6000,2.666
23.6400,2.765
23.6800,2.663
23.7200,2.814
23.7600,2.815
23.8000,2.940
23.8400,2.921
23.8800,2.918
23.9200,2.861
23.9600,2.932
24.0000,2.956
24.0400,2.955
24.0800,2.810
24.1200,2.930
24.1600,2.977
24.2000,2.888
24.2400,2.877
24.2800,2.890
24.3200,2.958
24.3600,2.749
24.4000,2.779
24.4400,2.710
24.4800,2.706
24.5200,2.721
24.5600,2.681
24.6000,2.735
24.6400,2.768
24.6800,2.645
24.7200,2.646
24.7600,2.644
24.8000,2.630
24.8400,2.723
24.8800,2.569
24.9200,2.492
24.9600,2.553
25.0000,2.546
25.0400,2.584
25.0800,2.425
25.1200,2.585
25.1600,2.607
25.2000,2.531
25.2400,2.534
25.2800,2.446
25.3200,2.441
25.3600,2.515
25.4000,2.518
25.4400,2.475
25.4800,2.542
25.5200,2.442
25.5600,2.496
25.6000,2.555
25.6400,2.394
25.6800,2.293
25.7200,2.390
25.7600,2.383
25.8000,2.390
25.8400,2.410
25.8800,2.318
25.9200,2.498
25.9600,2.327
26.0000,2.386
26.0400,2.382
26.0800,2.317
26.1200,2.405
26.1600,2.375
26.2000,2.354
26.2400,2.299
26.2800,2.184
26.3200,2.367
26.3600,2.276
26.4000,2.358
26.4400,2.476
26.4800,2.313
26.5200,2.321
26.5600,2.272
26.6000,2.412
26.6400,2.309
26.6800,2.206
26.7200,2.212
26.7600,2.309
26.8000,2.393
26.8400,2.361
26.8800,2.309
26.9200,2.267
26.9600,2.296
27.0000,2.195
27.0400,2.296
27.0800,2.317
27.1200,2.278
27.1600,2.278
27.2000,2.351
27.2400,2.261
27.2800,2.356
27.3200,2.326
27.3600,2.310
27.4000,2.112
27.4400,2.303
27.4800,2.340
27.5200,2.387
27.5600,2.223
27.6000,2.227
27.6400,2.299
27.6800,2.293
27.7200,2.310
27.7600,2.305
27.8000,2.284
27.8400,2.327
27.8800,2.414
27.9200,2.326
27.9600,2.363
28.0000,2.403
28.0400,2.310
28.0800,2.317
28.1200,2.347
28.1600,2.363
28.2000,2.417
28.2400,2.357
28.2800,2.639
28.3200,2.452
28.3600,2.405
28.4000,2.344
28.4400,2.437
28.4800,2.325
28.5200,2.494
28.5600,2.388
28.6000,2.316
28.6400,2.446
28.6800,2.304
28.7200,2.333
28.7600,2.281
28.8000,2.429
28.8400,2.335
28.8800,2.444
28.9200,2.333
28.9600,2.289
29.0000,2.298
29.0400,2.191
29.0800,2.184
29.1200,2.108
29.1600,2.212
29.2000,2.164
29.2400,2.214
29.2800,2.231
29.3200,2.227
29.3600,2.162
29.4000,2.045
29.4400,2.114
29.4800,2.214
29.5200,2.213
29.5600,2.117
29.6000,2.123
29.6400,2.204
29.6800,2.127
29.7200,2.102
29.7600,2.129
29.8000,2.028
29.8400,2.005
29.8800,2.037
29.9200,1.974
29.9600,2.033
30.0000,1.995
30.0400,2.114
30.0800,2.064
30.1200,1.935
30.1600,1.987
30.2000,1.914
30.2400,2.094
30.2800,1.904
30.3200,1.865
30.3600,1.996
30.4000,1.988
30.4400,1.904
30.4800,1.976
30.5200,1.978
30.5600,1.864
30.6000,1.929
30.6400,2.006
30.6800,1.965
30.7200,1.933
30.7600,1.978
30.8000,1.923
30.8400,1.846
30.8800,1.985
30.9200,1.875
30.9600,1.879
31.0000,1.926
31.0400,1.942
31.0800,1.936
31.1200,1.980
31.1600,1.917
31.2000,1.941
31.2400,1.929
31.2800,1.948
31.3200,1.974
31.3600,1.930
31.4000,1.955
31.4400,1.968
31.4800,2.022
31.5200,1.900
31.5600,2.071
31.6000,2.097
31.6400,2.064
31.6800,2.412
31.7200,2.522
31.7600,2.653
31.8000,2.897
31.8400,3.076
31.8800,3.055
31.9200,3.272
31.9600,3.104
32.0000,2.880
32.0400,2.665
32.0800,2.479
32.1200,2.349
32.1600,2.109
32.2000,2.092
32.2400,1.981
32.2800,2.016
32.3200,1.955
32.3600,1.896
32.4000,1.859
32.4400,1.873
32.4800,1.820
32.5200,1.784
32.5600,1.857
32.6000,1.810
32.6400,1.719
32.6800,1.867
32.7200,1.910
32.7600,1.749
32.8000,1.825
32.8400,1.755
32.8800,1.768
32.9200,1.752
32.9600,1.655
33.0000,1.669
33.0400,1.606
33.0800,1.631
33.1200,1.747
33.1600,1.656
33.2000,1.705
33.2400,1.628
33.2800,1.727
33.3200,1.658
33.3600,1.679
33.4000,1.657
33.4400,1.654
33.4800,1.637
33.5200,1.645
33.5600,1.694
33.6000,1.671
33.6400,1.736
33.6800,1.644
33.7200,1.672
33.7600,1.624
33.8000,1.759
33.8400,1.539
33.8800,1.641
33.9200,1.652
33.9600,1.708
34.0000,1.648
34.0400,1.601
34.0800,1.692
34.1200,1.625
34.1600,1.600
34.2000,1.647
34.2400,1.671
34.2800,1.667
34.3200,1.588
34.3600,1.609
34.4000,1.729
34.4400,1.615
34.4800,1.515
34.5200,1.587
34.5600,1.638
34.6000,1.644
34.6400,1.497
34.6800,1.558
34.7200,1.590
34.7600,1.510
34.8000,1.557
34.8400,1.732
34.8800,1.554
34.9200,1.541
34.9600,1.594
35.0000,1.455
35.0400,1.552
35.0800,1.524
35.1200,1.636
35.1600,1.495
35.2000,1.492
35.2400,1.523
35.2800,1.502
35.3200,1.419
35.3600,1.538
35.4000,1.568
35.4400,1.448
35.4800,1.628
35.5200,1.510
35.5600,1.470
35.6000,1.480
35.6400,1.483
35.6800,1.528
35.7200,1.489
35.7600,1.500
35.8000,1.445
35.8400,1.419
35.8800,1.483
35.9200,1.464
35.9600,1.540
36.0000,1.567
36.0400,1.443
36.0800,1.469
36.1200,1.451
36.1600,1.455
36.2000,1.521
36.2400,1.498
36.2800,1.421
36.3200,1.522
36.3600,1.380
36.4000,1.472
36.4400,1.434
36.4800,1.496
36.5200,1.418
36.5600,1.533
36.6000,1.456
36.6400,1.448
36.6800,1.465
36.7200,1.487
36.7600,1.458
36.8000,1.463
36.8400,1.366
36.8800,1.474
36.9200,1.475
36.9600,1.360
37.0000,1.485
37.0400,1.421
37.0800,1.432
37.1200,1.508
37.1600,1.461
37.2000,1.374
37.2400,1.450
37.2800,1.418
37.3200,1.462
37.3600,1.431
37.4000,1.432
37.4400,1.510
37.4800,1.474
37.5200,1.468
37.5600,1.456
37.6000,1.521
37.6400,1.437
37.6800,1.444
37.7200,1.369
37.7600,1.423
37.8000,1.525
37.8400,1.453
37.8800,1.400
37.9200,1.402
37.9600,1.476
38.0000,1.389
38.0400,1.451
38.0800,1.441
38.1200,1.424
38.1600,1.457
38.2000,1.498
38.2400,1.509
38.2800,1.482
38.3200,1.456
38.3600,1.402
38.4000,1.447
38.4400,1.481
38.4800,1.585
38.5200,1.503
38.5600,1.425
38.6000,1.405
38.6400,1.415
38.6800,1.572
38.7200,1.514
38.7600,1.557
38.8000,1.582
38.8400,1.718
38.8800,1.847
38.9200,1.779
38.9600,1.812
39.0000,1.821
39.0400,1.921
39.0800,2.014
39.1200,2.061
39.1600,2.213
39.2000,2.299
39.2400,2.428
39.2800,2.414
39.3200,2.452
39.3600,2.696
39.4000,2.817
39.4400,2.892
39.4800,3.128
39.5200,3.585
39.5600,3.702
39.6000,3.862
39.6400,4.182
39.6800,4.372
39.7200,4.337
39.7600,4.230
39.8000,4.039
39.8400,3.655
39.8800,3.339
39.9200,3.529
39.9600,3.369
40.0000,3.466
40.0400,3.572
40.0800,3.716
40.1200,4.141
40.1600,4.328
40.2000,4.562
40.2400,4.868
40.2800,5.157
40.3200,5.194
40.3600,5.522
40.4000,5.330
40.4400,5.698
40.4800,5.414
40.5200,5.183
40.5600,5.138
40.6000,4.899
40.6400,4.694
40.6800,4.430
40.7200,4.278
40.7600,4.071
40.8000,3.844
40.8400,3.677
40.8800,3.376
40.9200,3.161
40.9600,2.944
41.0000,2.775
41.0400,2.639
41.0800,2.444
41.1200,2.178
41.1600,1.973
41.2000,1.918
41.2400,1.781
41.2800,1.704
41.3200,1.558
41.3600,1.590
41.4000,1.433
41.4400,1.427
41.4800,1.479
41.5200,1.446
41.5600,1.380
41.6000,1.426
41.6400,1.316
41.6800,1.267
41.7200,1.329
41.7600,1.363
41.8000,1.343
41.8400,1.309
41.8800,1.264
41.9200,1.291
41.9600,1.287
42.0000,1.331
42.0400,1.331
42.0800,1.303
42.1200,1.246
42.1600,1.274
42.2000,1.329
42.2400,1.350
42.2800,1.426
42.3200,1.379
42.3600,1.353
42.4000,1.501
42.4400,1.464
42.4800,1.447
42.5200,1.472
42.5600,1.465
42.6000,1.474
42.6400,1.451
42.6800,1.474
42.7200,1.393
42.7600,1.285
42.8000,1.295
42.8400,1.317
42.8800,1.223
42.9200,1.246
42.9600,1.189
43.0000,1.223
43.0400,1.172
43.0800,1.258
43.1200,1.158
43.1600,1.175
43.2000,1.197
43.2400,1.142
43.2800,1.217
43.3200,1.158
43.3600,1.158
43.4000,1.210
43.4400,1.171
43.4800,1.086
43.5200,1.169
43.5600,1.041
43.6000,1.064
43.6400,1.023
43.6800,1.107
43.7200,1.116
43.7600,1.102
43.8000,1.134
43.8400,1.125
43.8800,1.032
43.9200,1.199
43.9600,1.115
44.0000,1.067
44.0400,1.175
44.0800,1.120
44.1200,1.117
44.1600,1.065
44.2000,1.089
44.2400,1.117
44.2800,1.031
44.3200,1.057
44.3600,1.030
44.4000,1.100
44.4400,1.093
44.4800,1.108
44.5200,1.084
44.5600,1.118
44.6000,1.096
44.6400,1.182
44.6800,1.071
44.7200,1.147
44.7600,1.103
44.8000,1.151
44.8400,1.209
44.8800,1.201
44.9200,1.195
44.9600,1.205
45.0000,1.176
45.0400,1.202
45.0800,1.234
45.1200,1.286
45.1600,1.408
45.2000,1.406
45.2400,1.408
45.2800,1.417
45.3200,1.445
45.3600,1.631
45.4000,1.816
45.4400,1.864
45.4800,2.028
45.5200,2.186
45.5600,2.467
45.6000,2.617
45.6400,2.881
45.6800,3.068
45.7200,3.261
45.7600,3.494
45.8000,3.552
45.8400,3.695
45.8800,3.437
45.9200,3.272
45.9600,3.039
46.0000,2.707
46.0400,2.528
46.0800,2.360
46.1200,2.145
46.1600,1.866
46.2000,1.882
46.2400,1.769
46.2800,1.586
46.3200,1.516
46.3600,1.478
46.4000,1.435
46.4400,1.322
46.4800,1.279
46.5200,1.218
46.5600,1.278
46.6000,1.205
46.6400,1.135
46.6800,1.144
46.7200,1.113
46.7600,1.142
46.8000,1.121
46.8400,1.036
46.8800,0.957
46.9200,0.940
46.9600,0.988
47.0000,1.083
47.0400,0.990
47.0800,1.087
47.1200,0.955
47.1600,0.989
47.2000,0.940
47.2400,0.961
47.2800,1.045
47.3200,0.998
47.3600,1.077
47.4000,0.921
47.4400,0.960
47.4800,0.917
47.5200,1.049
47.5600,0.954
47.6000,1.029
47.6400,0.950
47.6800,0.978
47.7200,1.007
47.7600,0.958
47.8000,1.001
47.8400,0.993
47.8800,0.927
47.9200,0.896
47.9600,0.969
48.0000,0.935
48.0400,0.903
48.0800,0.900
48.1200,0.915
48.1600,0.989
48.2000,0.918
48.2400,0.939
48.2800,0.959
48.3200,0.951
48.3600,0.959
48.4000,0.961
48.4400,0.952
48.4800,0.959
48.5200,0.982
48.5600,1.049
48.6000,0.944
48.6400,0.948
48.6800,0.959
48.7200,1.002
48.7600,0.937
48.8000,1.004
48.8400,1.016
48.8800,0.974
48.9200,0.979
48.9600,0.971
49.0000,0.974
49.0400,0.974
49.0800,0.982
49.1200,0.977
49.1600,1.002
49.2000,1.105
49.2400,1.047
49.2800,1.019
49.3200,0.961
49.3600,0.937
49.4000,1.031
49.4400,1.049
49.4800,1.020
49.5200,0.985
49.5600,0.958
49.6000,0.988
49.6400,0.914
49.6800,1.032
49.7200,1.001
49.7600,0.929
49.8000,0.955
49.8400,0.862
49.8800,0.923
49.9200,0.961
49.9600,0.954
50.0000,0.898
50.0400,0.888
50.0800,0.889
50.1200,0.947
50.1600,0.910
50.2000,0.919
50.2400,0.845
50.2800,0.905
50.3200,0.898
50.3600,0.864
50.4000,0.876
50.4400,0.813
50.4800,0.858
50.5200,0.855
50.5600,0.913
50.6000,0.910
50.6400,0.887
50.6800,0.869
50.7200,0.803
50.7600,0.822
50.8000,0.886
50.8400,0.933
50.8800,0.836
50.9200,0.847
50.9600,0.844
51.0000,0.789
51.0400,0.862
51.0800,0.873
51.1200,0.827
51.1600,0.784
51.2000,0.760
51.2400,0.892
51.2800,0.838
51.3200,0.859
51.3600,0.812
51.4000,0.898
51.4400,0.779
51.4800,0.836
51.5200,0.804
51.5600,0.784
51.6000,0.782
51.6400,0.850
51.6800,0.791
51.7200,0.813
51.7600,0.795
51.8000,0.844
51.8400,0.869
51.8800,0.867
51.9200,0.837
51.9600,0.889
52.0000,0.961
52.0400,0.804
52.0800,0.927
52.1200,0.859
52.1600,0.982
52.2000,0.885
52.2400,0.988
52.2800,0.980
52.3200,0.935
52.3600,1.074
52.4000,1.029
52.4400,1.079
52.4800,1.122
52.5200,1.032
52.5600,1.006
52.6000,1.045
52.6400,0.962
52.6800,1.021
52.7200,0.966
52.7600,1.057
52.8000,0.914
52.8400,0.900
52.8800,0.854
52.9200,0.968
52.9600,0.883
53.0000,0.844
53.0400,0.839
53.0800,0.751
53.1200,0.769
53.1600,0.713
53.2000,0.778
53.2400,0.840
53.2800,0.730
53.3200,0.735
53.3600,0.723
53.4000,0.740
53.4400,0.763
53.4800,0.727
53.5200,0.777
53.5600,0.689
53.6000,0.723
53.6400,0.734
53.6800,0.747
53.7200,0.725
53.7600,0.685
53.8000,0.655
53.8400,0.688
53.8800,0.752
53.9200,0.718
53.9600,0.715
54.0000,0.663
54.0400,0.683
54.0800,0.669
54.1200,0.730
54.1600,0.732
54.2000,0.714
54.2400,0.714
54.2800,0.716
54.3200,0.722
54.3600,0.733
54.4000,0.736
54.4400,0.754
54.4800,0.705
54.5200,0.642
54.5600,0.693
54.6000,0.667
54.6400,0.660
54.6800,0.716
54.7200,0.713
54.7600,0.636
54.8000,0.724
54.8400,0.628
54.8800,0.702
54.9200,0.671
54.9600,0.629
55.0000,0.569
55.0400,0.695
55.0800,0.686
55.1200,0.633
55.1600,0.656
55.2000,0.646
55.2400,0.699
55.2800,0.640
55.3200,0.684
55.3600,0.660
55.4000,0.676
55.4400,0.717
55.4800,0.663
55.5200,0.684
55.5600,0.702
55.6000,0.624
55.6400,0.661
55.6800,0.676
55.7200,0.667
55.7600,0.638
55.8000,0.597
55.8400,0.718
55.8800,0.716
55.9200,0.649
55.9600,0.643
56.0000,0.634
56.0400,0.634
56.0800,0.658
56.1200,0.687
56.1600,0.673
56.2000,0.686
56.2400,0.638
56.2800,0.714
56.3200,0.634
56.3600,0.640
56.4000,0.614
56.4400,0.638
56.4800,0.631
56.5200,0.621
56.5600,0.623
56.6000,0.638
56.6400,0.708
56.6800,0.597
56.7200,0.655
56.7600,0.679
56.8000,0.627
56.8400,0.620
56.8800,0.648
56.9200,0.666
56.9600,0.669
57.0000,0.639
57.0400,0.633
57.0800,0.607
57.1200,0.695
57.1600,0.659
57.2000,0.703
57.2400,0.666
57.2800,0.616
57.3200,0.674
57.3600,0.623
57.4000,0.708
57.4400,0.613
57.4800,0.657
57.5200,0.684
57.5600,0.635
57.6000,0.600
57.6400,0.635
57.6800,0.643
57.7200,0.608
57.7600,0.574
57.8000,0.614
57.8400,0.596
57.8800,0.648
57.9200,0.589
57.9600,0.588
58.0000,0.567
58.0400,0.608
58.0800,0.602
58.1200,0.613
58.1600,0.583
58.2000,0.536
58.2400,0.596
58.2800,0.652
58.3200,0.592
58.3600,0.622
58.4000,0.636
58.4400,0.573
58.4800,0.621
58.5200,0.562
58.5600,0.627
58.6000,0.590
58.6400,0.557
58.6800,0.651
58.7200,0.597
58.7600,0.623
58.8000,0.610
58.8400,0.598
58.8800,0.613
58.9200,0.649
58.9600,0.584
59.0000,0.559
59.0400,0.571
59.0800,0.588
59.1200,0.560
59.1600,0.601
59.2000,0.598
59.2400,0.634
59.2800,0.600
59.3200,0.623
59.3600,0.571
59.4000,0.589
59.4400,0.595
59.4800,0.624
59.5200,0.595
59.5600,0.582
59.6000,0.654
59.6400,0.666
59.6800,0.607
59.7200,0.605
59.7600,0.611
59.8000,0.601
59.8400,0.621
59.8800,0.590
59.9200,0.600
59.9600,0.612
60.0000,0.630
60.0400,0.655
60.0800,0.605
60.1200,0.665
60.1600,0.623
60.2000,0.582
60.2400,0.595
60.2800,0.616
60.3200,0.599
60.3600,0.594
60.4000,0.604
60.4400,0.659
60.4800,0.592
60.5200,0.558
60.5600,0.594
60.6000,0.586
60.6400,0.542
60.6800,0.583
60.7200,0.590
60.7600,0.632
60.8000,0.608
60.8400,0.608
60.8800,0.635
60.9200,0.662
60.9600,0.592
61.0000,0.583
61.0400,0.471
61.0800,0.595
61.1200,0.605
61.1600,0.580
61.2000,0.525
61.2400,0.591
61.2800,0.587
61.3200,0.566
61.3600,0.603
61.4000,0.588
61.4400,0.487
61.4800,0.544
61.5200,0.573
61.5600,0.524
61.6000,0.545
61.6400,0.540
61.6800,0.580
61.7200,0.599
61.7600,0.502
61.8000,0.499
61.8400,0.508
61.8800,0.519
61.9200,0.526
61.9600,0.540
62.0000,0.568
62.0400,0.569
62.0800,0.535
62.1200,0.561
62.1600,0.611
62.2000,0.533
62.2400,0.541
62.2800,0.506
62.3200,0.533
62.3600,0.560
62.4000,0.536
62.4400,0.531
62.4800,0.544
62.5200,0.480
62.5600,0.484
62.6000,0.528
62.6400,0.537
62.6800,0.528
62.7200,0.511
62.7600,0.469
62.8000,0.452
62.8400,0.504
62.8800,0.487
62.9200,0.483
62.9600,0.533
63.0000,0.444
63.0400,0.483
63.0800,0.438
63.1200,0.496
63.1600,0.518
63.2000,0.489
63.2400,0.488
63.2800,0.541
63.3200,0.487
63.3600,0.555
63.4000,0.511
63.4400,0.484
63.4800,0.437
63.5200,0.488
63.5600,0.525
63.6000,0.586
63.6400,0.493
63.6800,0.488
63.7200,0.477
63.7600,0.517
63.8000,0.491
63.8400,0.473
63.8800,0.513
63.9200,0.460
63.9600,0.467
64.0000,0.530
64.0400,0.453
64.0800,0.505
64.1200,0.507
64.1600,0.435
64.2000,0.486
64.2400,0.494
64.2800,0.435
64.3200,0.487
64.3600,0.450
64.4000,0.460
64.4400,0.461
64.4800,0.451
64.5200,0.476
64.5600,0.494
64.6000,0.444
64.6400,0.489
64.6800,0.429
64.7200,0.440
64.7600,0.573
64.8000,0.463
64.8400,0.470
64.8800,0.513
64.9200,0.499
64.9600,0.406
65.0000,0.418
65.0400,0.429
65.0800,0.456
65.1200,0.511
65.1600,0.496
65.2000,0.493
65.2400,0.481
65.2800,0.516
65.3200,0.468
65.3600,0.452
65.4000,0.428
65.4400,0.413
65.4800,0.461
65.5200,0.470
65.5600,0.529
65.6000,0.464
65.6400,0.503
65.6800,0.481
65.7200,0.508
65.7600,0.459
65.8000,0.447
65.8400,0.484
65.8800,0.517
65.9200,0.488
65.9600,0.485
66.0000,0.488
66.0400,0.535
66.0800,0.493
66.1200,0.501
66.1600,0.570
66.2000,0.570
66.2400,0.577
66.2800,0.551
66.3200,0.611
66.3600,0.626
66.4000,0.683
66.4400,0.666
66.4800,0.706
66.5200,0.767
66.5600,0.743
66.6000,0.802
66.6400,0.901
66.6800,0.925
66.7200,0.847
66.7600,0.900
66.8000,0.846
66.8400,0.944
66.8800,0.918
66.9200,0.962
66.9600,0.895
67.0000,0.950
67.0400,0.926
67.0800,0.894
67.1200,0.813
67.1600,0.850
67.2000,0.849
67.2400,0.822
67.2800,0.742
67.3200,0.687
67.3600,0.771
67.4000,0.721
67.4400,0.657
67.4800,0.594
67.5200,0.639
67.5600,0.590
67.6000,0.625
67.6400,0.597
67.6800,0.516
67.7200,0.600
67.7600,0.541
67.8000,0.595
67.8400,0.573
67.8800,0.574
67.9200,0.518
67.9600,0.575
68.0000,0.513
68.0400,0.489
68.0800,0.530
68.1200,0.518
68.1600,0.482
68.2000,0.502
68.2400,0.497
68.2800,0.527
68.3200,0.487
68.3600,0.539
68.4000,0.494
68.4400,0.466
68.4800,0.484
68.5200,0.528
68.5600,0.491
68.6000,0.465
68.6400,0.483
68.6800,0.477
68.7200,0.452
68.7600,0.495
68.8000,0.546
68.8400,0.531
68.8800,0.475
68.9200,0.454
68.9600,0.546
69.0000,0.556
69.0400,0.627
69.0800,0.567
69.1200,0.533
69.1600,0.561
69.2000,0.531
69.2400,0.566
69.2800,0.559
69.3200,0.579
69.3600,0.570
69.4000,0.559
69.4400,0.636
69.4800,0.573
69.5200,0.565
69.5600,0.598
69.6000,0.647
69.6400,0.618
69.6800,0.652
69.7200,0.578
69.7600,0.528
69.8000,0.569
69.8400,0.600
69.8800,0.573
69.9200,0.528
69.9600,0.493
70.0000,0.520
70.0400,0.566
70.0800,0.495
70.1200,0.555
70.1600,0.547
70.2000,0.580
70.2400,0.543
70.2800,0.541
70.3200,0.506
70.3600,0.505
70.4000,0.435
70.4400,0.551
70.4800,0.504
70.5200,0.466
70.5600,0.432
70.6000,0.517
70.6400,0.498
70.6800,0.469
70.7200,0.509
70.7600,0.490
70.8000,0.508
70.8400,0.472
70.8800,0.435
70.9200,0.430
70.9600,0.430
71.0000,0.450
71.0400,0.482
71.0800,0.414
71.1200,0.411
71.1600,0.444
71.2000,0.464
71.2400,0.418
71.2800,0.425
71.3200,0.419
71.3600,0.424
71.4000,0.435
71.4400,0.381
71.4800,0.440
71.5200,0.441
71.5600,0.419
71.6000,0.423
71.6400,0.451
71.6800,0.458
71.7200,0.486
71.7600,0.403
71.8000,0.449
71.8400,0.492
71.8800,0.430
71.9200,0.475
71.9600,0.420
72.0000,0.459
72.0400,0.496
72.0800,0.501
72.1200,0.480
72.1600,0.477
72.2000,0.530
72.2400,0.513
72.2800,0.502
72.3200,0.423
72.3600,0.455
72.4000,0.465
72.4400,0.436
72.4800,0.443
72.5200,0.428
72.5600,0.357
72.6000,0.384
72.6400,0.462
72.6800,0.385
72.7200,0.418
72.7600,0.335
72.8000,0.377
72.8400,0.374
72.8800,0.342
72.9200,0.390
72.9600,0.381
73.0000,0.359
73.0400,0.368
73.0800,0.378
73.1200,0.404
73.1600,0.400
73.2000,0.344
73.2400,0.326
73.2800,0.344
73.3200,0.332
73.3600,0.337
73.4000,0.355
73.4400,0.308
73.4800,0.347
73.5200,0.356
73.5600,0.367
73.6000,0.371
73.6400,0.359
73.6800,0.349
73.7200,0.308
73.7600,0.370
73.8000,0.339
73.8400,0.355
73.8800,0.351
73.9200,0.367
73.9600,0.384
74.0000,0.360
74.0400,0.353
74.0800,0.360
74.1200,0.382
74.1600,0.338
74.2000,0.356
74.2400,0.319
74.2800,0.364
74.3200,0.369
74.3600,0.322
74.4000,0.318
74.4400,0.302
74.4800,0.305
74.5200,0.325
74.5600,0.323
74.6000,0.331
74.6400,0.347
74.6800,0.342
74.7200,0.369
74.7600,0.302
74.8000,0.301
74.8400,0.286
74.8800,0.374
74.9200,0.327
74.9600,0.349
75.0000,0.373
75.0400,0.365
75.0800,0.370
75.1200,0.346
75.1600,0.355
75.2000,0.341
75.2400,0.336
75.2800,0.377
75.3200,0.384
75.3600,0.278
75.4000,0.365
75.4400,0.368
75.4800,0.410
75.5200,0.345
75.5600,0.395
75.6000,0.390
75.6400,0.348
75.6800,0.363
75.7200,0.395
75.7600,0.384
75.8000,0.409
75.8400,0.396
75.8800,0.418
75.9200,0.364
75.9600,0.371
76.0000,0.437
76.0400,0.390
76.0800,0.443
76.1200,0.364
76.1600,0.356
76.2000,0.380
76.2400,0.337
76.2800,0.344
76.3200,0.419
76.3600,0.351
76.4000,0.396
76.4400,0.333
76.4800,0.350
76.5200,0.311
76.5600,0.329
76.6000,0.287
76.6400,0.336
76.6800,0.316
76.7200,0.351
76.7600,0.331
76.8000,0.351
76.8400,0.347
76.8800,0.316
76.9200,0.320
76.9600,0.321
77.0000,0.335
77.0400,0.344
77.0800,0.307
77.1200,0.328
77.1600,0.385
77.2000,0.333
77.2400,0.342
77.2800,0.390
77.3200,0.314
77.3600,0.332
77.4000,0.368
77.4400,0.350
77.4800,0.363
77.5200,0.330
77.5600,0.329
77.6000,0.367
77.6400,0.342
77.6800,0.395
77.7200,0.291
77.7600,0.379
77.8000,0.379
77.8400,0.363
77.8800,0.360
77.9200,0.344
77.9600,0.365
78.0000,0.339
78.0400,0.331
78.0800,0.362
78.1200,0.309
78.1600,0.383
78.2000,0.338
78.2400,0.329
78.2800,0.380
78.3200,0.347
78.3600,0.350
78.4000,0.338
78.4400,0.346
78.4800,0.366
78.5200,0.366
78.5600,0.343
78.6000,0.349
78.6400,0.320
78.6800,0.386
78.7200,0.373
78.7600,0.335
78.8000,0.348
78.8400,0.359
78.8800,0.317
78.9200,0.369
78.9600,0.363
79.0000,0.364
79.0400,0.385
79.0800,0.341
79.1200,0.315
79.1600,0.340
79.2000,0.336
79.2400,0.382
79.2800,0.370
79.3200,0.370
79.3600,0.377
79.4000,0.365
79.4400,0.398
79.4800,0.393
79.5200,0.352
79.5600,0.361
79.6000,0.342
79.6400,0.385
79.6800,0.377
79.7200,0.347
79.7600,0.439
79.8000,0.436
79.8400,0.411
79.8800,0.434
79.9200,0.385
79.9600,0.426
80.0000,0.444
