theta,intensity
5.0000,2.098
5.0400,2.252
5.0800,2.319
5.1200,2.240
5.1600,2.195
5.2000,2.360
5.2400,2.269
5.2800,2.245
5.3200,2.156
5.3600,2.145
5.4000,2.067
5.4400,2.114
5.4800,2.128
5.5200,2.115
5.5600,2.108
5.6000,2.111
5.6400,2.077
5.6800,2.046
5.7200,2.043
5.7600,2.023
5.8000,2.060
5.8400,2.007
5.8800,1.986
5.9200,1.964
5.9600,1.939
6.0000,2.003
6.0400,1.934
6.0800,1.918
6.1200,1.900
6.1600,1.851
6.2000,1.898
6.2400,1.829
6.2800,1.744
6.3200,1.740
6.3600,1.774
6.4000,1.784
6.4400,1.791
6.4800,1.788
6.5200,1.707
6.5600,1.653
6.6000,1.717
6.6400,1.677
6.6800,1.674
6.7200,1.591
6.7600,1.647
6.8000,1.598
6.8400,1.637
6.8800,1.619
6.9200,1.595
6.9600,1.558
7.0000,1.567
7.0400,1.599
7.0800,1.551
7.1200,1.592
7.1600,1.536
7.2000,1.526
7.2400,1.501
7.2800,1.472
7.3200,1.484
7.3600,1.477
7.4000,1.528
7.4400,1.527
7.4800,1.556
7.5200,1.512
7.5600,1.434
7.6000,1.515
7.6400,1.530
7.6800,1.509
7.7200,1.503
7.7600,1.453
7.8000,1.469
7.8400,1.489
7.8800,1.499
7.9200,1.497
7.9600,1.499
8.0000,1.508
8.0400,1.517
8.0800,1.444
8.1200,1.475
8.1600,1.444
8.2000,1.478
8.2400,1.451
8.2800,1.437
8.3200,1.457
8.3600,1.500
8.4000,1.488
8.4400,1.508
8.4800,1.546
8.5200,1.451
8.5600,1.463
8.6000,1.446
8.6400,1.429
8.6800,1.498
8.7200,1.481
8.7600,1.475
8.8000,1.439
8.8400,1.488
8.8800,1.469
8.9200,1.398
8.9600,1.407
9.0000,1.416
9.0400,1.465
9.0800,1.450
9.1200,1.431
9.1600,1.458
9.2000,1.405
9.2400,1.397
9.2800,1.439
9.3200,1.411
9.3600,1.389
9.4000,1.470
9.4400,1.422
9.4800,1.448
9.5200,1.414
9.5600,1.437
9.6000,1.401
9.6400,1.426
9.6800,1.439
9.7200,1.413
9.7600,1.434
9.8000,1.414
9.8400,1.413
9.8800,1.449
9.9200,1.434
9.9600,1.363
10.0000,1.348
10.0400,1.446
10.0800,1.477
10.1200,1.412
10.1600,1.383
10.2000,1.362
10.2400,1.441
10.2800,1.429
10.3200,1.367
10.3600,1.341
10.4000,1.348
10.4400,1.338
10.4800,1.378
10.5200,1.359
10.5600,1.352
10.6000,1.403
10.6400,1.400
10.6800,1.410
10.7200,1.372
10.7600,1.400
10.8000,1.399
10.8400,1.343
10.8800,1.405
10.9200,1.349
10.9600,1.368
11.0000,1.346
11.0400,1.402
11.0800,1.391
11.1200,1.359
11.1600,1.370
11.2000,1.331
11.2400,1.379
11.2800,1.400
11.3200,1.357
11.3600,1.367
11.4000,1.394
11.4400,1.367
11.4800,1.373
11.5200,1.369
11.5600,1.330
11.6000,1.362
11.6400,1.336
11.6800,1.350
11.7200,1.337
11.7600,1.317
11.8000,1.352
11.8400,1.317
11.8800,1.370
11.9200,1.324
11.9600,1.295
12.0000,1.326
12.0400,1.312
12.0800,1.304
12.1200,1.405
12.1600,1.360
12.2000,1.319
12.2400,1.309
12.2800,1.262
12.3200,1.334
12.3600,1.330
12.4000,1.294
12.4400,1.348
12.4800,1.369
12.5200,1.285
12.5600,1.308
12.6000,1.359
12.6400,1.315
12.6800,1.275
12.7200,1.308
12.7600,1.335
12.8000,1.382
12.8400,1.341
12.8800,1.335
12.9200,1.307
12.9600,1.270
13.0000,1.325
13.0400,1.275
13.0800,1.309
13.1200,1.324
13.1600,1.320
13.2000,1.307
13.2400,1.275
13.2800,1.261
13.3200,1.254
13.3600,1.314
13.4000,1.276
13.4400,1.308
13.4800,1.294
13.5200,1.311
13.5600,1.328
13.6000,1.292
13.6400,1.279
13.6800,1.280
13.7200,1.272
13.7600,1.274
13.8000,1.312
13.8400,1.283
13.8800,1.268
13.9200,1.273
13.9600,1.338
14.0000,1.324
14.0400,1.301
14.0800,1.241
14.1200,1.271
14.1600,1.276
14.2000,1.286
14.2400,1.290
14.2800,1.279
14.3200,1.261
14.3600,1.286
14.4000,1.235
14.4400,1.273
14.4800,1.284
14.5200,1.293
14.5600,1.268
14.6000,1.312
14.6400,1.244
14.6800,1.316
14.7200,1.328
14.7600,1.237
14.8000,1.214
14.8400,1.222
14.8800,1.282
14.9200,1.283
14.9600,1.219
15.0000,1.259
15.0400,1.269
15.0800,1.251
15.1200,1.239
15.1600,1.230
15.2000,1.239
15.2400,1.287
15.2800,1.250
15.3200,1.259
15.3600,1.222
15.4000,1.289
15.4400,1.241
15.4800,1.229
15.5200,1.280
15.5600,1.252
15.6000,1.218
15.6400,1.279
15.6800,1.243
15.7200,1.272
15.7600,1.255
15.8000,1.256
15.8400,1.197
15.8800,1.232
15.9200,1.214
15.9600,1.250
16.0000,1.227
16.0400,1.192
16.0800,1.212
16.1200,1.262
16.1600,1.217
16.2000,1.288
16.2400,1.243
16.2800,1.249
16.3200,1.263
16.3600,1.224
16.4000,1.210
16.4400,1.221
16.4800,1.228
16.5200,1.253
16.5600,1.214
16.6000,1.256
16.6400,1.192
16.6800,1.254
16.7200,1.222
16.7600,1.249
16.8000,1.229
16.8400,1.245
16.8800,1.162
16.9200,1.212
16.9600,1.233
17.0000,1.163
17.0400,1.292
17.0800,1.252
17.1200,1.228
17.1600,1.201
17.2000,1.197
17.2400,1.228
17.2800,1.229
17.3200,1.171
17.3600,1.215
17.4000,1.245
17.4400,1.183
17.4800,1.235
17.5200,1.195
17.5600,1.220
17.6000,1.218
17.6400,1.238
17.6800,1.235
17.7200,1.200
17.7600,1.247
17.8000,1.171
17.8400,1.165
17.8800,1.182
17.9200,1.191
17.9600,1.204
18.0000,1.200
18.0400,1.233
18.0800,1.176
18.1200,1.197
18.1600,1.184
18.2000,1.214
18.2400,1.132
18.2800,1.167
18.3200,1.204
18.3600,1.210
18.4000,1.224
18.4400,1.228
18.4800,1.196
18.5200,1.154
18.5600,1.196
18.6000,1.188
18.6400,1.200
18.6800,1.147
18.7200,1.197
18.7600,1.197
18.8000,1.208
18.8400,1.216
18.8800,1.196
18.9200,1.244
18.9600,1.196
19.0000,1.165
19.0400,1.167
19.0800,1.196
19.1200,1.179
19.1600,1.214
19.2000,1.195
19.2400,1.172
19.2800,1.185
19.3200,1.202
19.3600,1.188
19.4000,1.153
19.4400,1.202
19.4800,1.207
19.5200,1.234
19.5600,1.213
19.6000,1.195
19.6400,1.196
19.6800,1.188
19.7200,1.143
19.7600,1.171
19.8000,1.174
19.8400,1.207
19.8800,1.174
19.9200,1.192
19.9600,1.179
20.0000,1.199
20.0400,1.147
20.0800,1.197
20.1200,1.158
20.1600,1.133
20.2000,1.181
20.2400,1.154
20.2800,1.174
20.3200,1.194
20.3600,1.227
20.4000,1.183
20.4400,1.136
20.4800,1.169
20.5200,1.138
20.5600,1.159
20.6000,1.195
20.6400,1.181
20.6800,1.189
20.7200,1.169
20.7600,1.194
20.8000,1.198
20.8400,1.178
20.8800,1.138
20.9200,1.163
20.9600,1.162
21.0000,1.183
21.0400,1.174
21.0800,1.173
21.1200,1.136
21.1600,1.173
21.2000,1.241
21.2400,1.148
21.2800,1.158
21.3200,1.167
21.3600,1.143
21.4000,1.094
21.4400,1.162
21.4800,1.120
21.5200,1.128
21.5600,1.170
21.6000,1.162
21.6400,1.106
21.6800,1.105
21.7200,1.133
21.7600,1.145
21.8000,1.102
21.8400,1.118
21.8800,1.159
21.9200,1.102
21.9600,1.094
22.0000,1.148
22.0400,1.115
22.0800,1.106
22.1200,1.146
22.1600,1.145
22.2000,1.078
22.2400,1.120
22.2800,1.135
22.3200,1.097
22.3600,1.122
22.4000,1.125
22.4400,1.112
22.4800,1.087
22.5200,1.100
22.5600,1.086
22.6000,1.098
22.6400,1.116
22.6800,1.026
22.7200,1.113
22.7600,1.132
22.8000,1.103
22.8400,1.114
22.8800,1.055
22.9200,1.074
22.9600,1.094
23.0000,1.028
23.0400,1.054
23.0800,1.066
23.1200,1.118
23.1600,1.067
23.2000,1.085
23.2400,1.074
23.2800,1.041
23.3200,1.053
23.3600,1.023
23.4000,1.058
23.4400,1.036
23.4800,1.048
23.5200,1.038
23.5600,1.080
23.6000,1.084
23.6400,1.037
23.6800,1.022
23.7200,1.085
23.7600,1.039
23.8000,1.069
23.8400,1.063
23.8800,1.040
23.9200,1.062
23.9600,1.039
24.0000,1.070
24.0400,1.018
24.0800,1.036
24.1200,1.067
24.1600,1.001
24.2000,1.031
24.2400,1.020
24.2800,1.058
24.3200,1.041
24.3600,1.003
24.4000,1.014
24.4400,0.988
24.4800,1.004
24.5200,1.009
24.5600,1.016
24.6000,0.966
24.6400,1.079
24.6800,1.032
24.7200,0.976
24.7600,0.942
24.8000,1.006
24.8400,0.951
24.8800,1.009
24.9200,0.997
24.9600,0.985
25.0000,0.994
25.0400,0.948
25.0800,1.026
25.1200,1.002
25.1600,0.959
25.2000,0.988
25.2400,1.007
25.2800,0.970
25.3200,1.003
25.3600,0.942
25.4000,0.937
25.4400,0.974
25.4800,0.910
25.5200,0.922
25.5600,0.908
25.6000,1.003
25.6400,0.954
25.6800,0.983
25.7200,0.911
25.7600,0.905
25.8000,0.930
25.8400,0.946
25.8800,0.953
25.9200,0.902
25.9600,0.939
26.0000,0.937
26.0400,0.914
26.0800,0.935
26.1200,0.938
26.1600,0.914
26.2000,0.966
26.2400,0.905
26.2800,0.888
26.3200,0.891
26.3600,0.939
26.4000,0.923
26.4400,0.874
26.4800,0.874
26.5200,0.868
26.5600,0.887
26.6000,0.903
26.6400,0.847
26.6800,0.894
26.7200,0.882
26.7600,0.873
26.8000,0.901
26.8400,0.850
26.8800,0.914
26.9200,0.870
26.9600,0.824
27.0000,0.843
27.0400,0.864
27.0800,0.818
27.1200,0.824
27.1600,0.827
27.2000,0.822
27.2400,0.813
27.2800,0.828
27.3200,0.814
27.3600,0.833
27.4000,0.780
27.4400,0.813
27.4800,0.828
27.5200,0.803
27.5600,0.843
27.6000,0.813
27.6400,0.796
27.6800,0.823
27.7200,0.795
27.7600,0.797
27.8000,0.784
27.8400,0.804
27.8800,0.808
27.9200,0.799
27.9600,0.760
28.0000,0.776
28.0400,0.783
28.0800,0.784
28.1200,0.813
28.1600,0.760
28.2000,0.741
28.2400,0.791
28.2800,0.784
28.3200,0.768
28.3600,0.756
28.4000,0.779
28.4400,0.729
28.4800,0.726
28.5200,0.714
28.5600,0.754
28.6000,0.747
28.6400,0.767
28.6800,0.713
28.7200,0.712
28.7600,0.735
28.8000,0.766
28.8400,0.726
28.8800,0.744
28.9200,0.734
28.9600,0.736
29.0000,0.736
29.0400,0.724
29.0800,0.696
29.1200,0.727
29.1600,0.746
29.2000,0.701
29.2400,0.713
29.2800,0.753
29.3200,0.711
29.3600,0.739
29.4000,0.750
29.4400,0.769
29.4800,0.752
29.5200,0.761
29.5600,0.750
29.6000,0.757
29.6400,0.753
29.6800,0.794
29.7200,0.782
29.7600,0.817
29.8000,0.882
29.8400,0.933
29.8800,1.164
29.9200,1.434
29.9600,1.737
30.0000,1.917
30.0400,2.001
30.0800,1.869
30.1200,1.597
30.1600,1.309
30.2000,1.067
30.2400,0.891
30.2800,0.864
30.3200,0.820
30.3600,0.764
30.4000,0.763
30.4400,0.717
30.4800,0.715
30.5200,0.659
30.5600,0.697
30.6000,0.652
30.6400,0.706
30.6800,0.668
30.7200,0.693
30.7600,0.713
30.8000,0.708
30.8400,0.689
30.8800,0.671
30.9200,0.672
30.9600,0.660
31.0000,0.664
31.0400,0.703
31.0800,0.670
31.1200,0.673
31.1600,0.665
31.2000,0.650
31.2400,0.644
31.2800,0.622
31.3200,0.673
31.3600,0.618
31.4000,0.653
31.4400,0.676
31.4800,0.600
31.5200,0.622
31.5600,0.647
31.6000,0.622
31.6400,0.643
31.6800,0.650
31.7200,0.657
31.7600,0.663
31.8000,0.630
31.8400,0.617
31.8800,0.658
31.9200,0.626
31.9600,0.635
32.0000,0.621
32.0400,0.607
32.0800,0.629
32.1200,0.647
32.1600,0.648
32.2000,0.648
32.2400,0.635
32.2800,0.617
32.3200,0.644
32.3600,0.651
32.4000,0.624
32.4400,0.599
32.4800,0.633
32.5200,0.596
32.5600,0.596
32.6000,0.599
32.6400,0.600
32.6800,0.611
32.7200,0.548
32.7600,0.599
32.8000,0.607
32.8400,0.601
32.8800,0.614
32.9200,0.591
32.9600,0.592
33.0000,0.610
33.0400,0.611
33.0800,0.591
33.1200,0.600
33.1600,0.569
33.2000,0.588
33.2400,0.569
33.2800,0.550
33.3200,0.608
33.3600,0.593
33.4000,0.583
33.4400,0.607
33.4800,0.584
33.5200,0.567
33.5600,0.560
33.6000,0.610
33.6400,0.578
33.6800,0.579
33.7200,0.585
33.7600,0.601
33.8000,0.602
33.8400,0.591
33.8800,0.555
33.9200,0.563
33.9600,0.585
34.0000,0.563
34.0400,0.564
34.0800,0.545
34.1200,0.561
34.1600,0.541
34.2000,0.562
34.2400,0.519
34.2800,0.566
34.3200,0.566
34.3600,0.549
34.4000,0.571
34.4400,0.556
34.4800,0.547
34.5200,0.555
34.5600,0.549
34.6000,0.532
34.6400,0.543
34.6800,0.528
34.7200,0.533
34.7600,0.558
34.8000,0.554
34.8400,0.527
34.8800,0.513
34.9200,0.538
34.9600,0.529
35.0000,0.540
35.0400,0.551
35.0800,0.541
35.1200,0.531
35.1600,0.551
35.2000,0.536
35.2400,0.562
35.2800,0.562
35.3200,0.534
35.3600,0.540
35.4000,0.530
35.4400,0.558
35.4800,0.555
35.5200,0.557
35.5600,0.533
35.6000,0.572
35.6400,0.539
35.6800,0.530
35.7200,0.520
35.7600,0.539
35.8000,0.553
35.8400,0.509
35.8800,0.534
35.9200,0.519
35.9600,0.541
36.0000,0.528
36.0400,0.512
36.0800,0.544
36.1200,0.504
36.1600,0.529
36.2000,0.547
36.2400,0.527
36.2800,0.515
36.3200,0.534
36.3600,0.515
36.4000,0.531
36.4400,0.542
36.4800,0.474
36.5200,0.493
36.5600,0.521
36.6000,0.497
36.6400,0.512
36.6800,0.514
36.7200,0.483
36.7600,0.523
36.8000,0.495
36.8400,0.527
36.8800,0.517
36.9200,0.529
36.9600,0.495
37.0000,0.527
37.0400,0.510
37.0800,0.530
37.1200,0.532
37.1600,0.517
37.2000,0.493
37.2400,0.524
37.2800,0.475
37.3200,0.488
37.3600,0.510
37.4000,0.522
37.4400,0.526
37.4800,0.476
37.5200,0.476
37.5600,0.483
37.6000,0.488
37.6400,0.487
37.6800,0.474
37.7200,0.489
37.7600,0.522
37.8000,0.492
37.8400,0.499
37.8800,0.502
37.9200,0.458
37.9600,0.521
38.0000,0.509
38.0400,0.494
38.0800,0.467
38.1200,0.505
38.1600,0.506
38.2000,0.502
38.2400,0.525
38.2800,0.481
38.3200,0.483
38.3600,0.477
38.4000,0.468
38.4400,0.449
38.4800,0.513
38.5200,0.496
38.5600,0.515
38.6000,0.471
38.6400,0.475
38.6800,0.489
38.7200,0.453
38.7600,0.499
38.8000,0.528
38.8400,0.488
38.8800,0.470
38.9200,0.511
38.9600,0.511
39.0000,0.478
39.0400,0.478
39.0800,0.515
39.1200,0.502
39.1600,0.476
39.2000,0.515
39.2400,0.471
39.2800,0.496
39.3200,0.501
39.3600,0.491
39.4000,0.504
39.4400,0.494
39.4800,0.500
39.5200,0.492
39.5600,0.522
39.6000,0.544
39.6400,0.490
39.6800,0.524
39.7200,0.518
39.7600,0.507
39.8000,0.508
39.8400,0.533
39.8800,0.505
39.9200,0.542
39.9600,0.542
40.0000,0.540
40.0400,0.538
40.0800,0.556
40.1200,0.580
40.1600,0.606
40.2000,0.586
40.2400,0.603
40.2800,0.612
40.3200,0.624
40.3600,0.698
40.4000,0.706
40.4400,0.708
40.4800,0.756
40.5200,0.793
40.5600,0.800
40.6000,0.887
40.6400,0.891
40.6800,0.977
40.7200,1.057
40.7600,1.073
40.8000,1.155
40.8400,1.289
40.8800,1.451
40.9200,1.550
40.9600,1.787
41.0000,2.075
41.0400,2.416
41.0800,2.666
41.1200,2.912
41.1600,3.069
41.2000,3.046
41.2400,2.833
41.2800,2.575
41.3200,2.194
41.3600,1.827
41.4000,1.531
41.4400,1.307
41.4800,1.115
41.5200,1.004
41.5600,0.881
41.6000,0.813
41.6400,0.779
41.6800,0.731
41.7200,0.756
41.7600,0.699
41.8000,0.671
41.8400,0.647
41.8800,0.634
41.9200,0.609
41.9600,0.619
42.0000,0.608
42.0400,0.632
42.0800,0.599
42.1200,0.609
42.1600,0.618
42.2000,0.616
42.2400,0.619
42.2800,0.671
42.3200,0.646
42.3600,0.691
42.4000,0.717
42.4400,0.711
42.4800,0.756
42.5200,0.855
42.5600,0.882
42.6000,0.993
42.6400,1.150
42.6800,1.376
42.7200,1.795
42.7600,2.382
42.8000,3.457
42.8400,5.263
42.8800,7.652
42.9200,9.673
42.9600,10.645
43.0000,10.452
43.0400,9.107
43.0800,7.548
43.1200,5.748
43.1600,4.148
43.2000,2.961
43.2400,2.278
43.2800,1.657
43.3200,1.325
43.3600,1.051
43.4000,0.877
43.4400,0.761
43.4800,0.675
43.5200,0.634
43.5600,0.635
43.6000,0.578
43.6400,0.578
43.6800,0.531
43.7200,0.501
43.7600,0.499
43.8000,0.503
43.8400,0.505
43.8800,0.485
43.9200,0.497
43.9600,0.459
44.0000,0.461
44.0400,0.464
44.0800,0.432
44.1200,0.450
44.1600,0.437
44.2000,0.421
44.2400,0.436
44.2800,0.438
44.3200,0.439
44.3600,0.441
44.4000,0.419
44.4400,0.432
44.4800,0.410
44.5200,0.391
44.5600,0.381
44.6000,0.389
44.6400,0.407
44.6800,0.382
44.7200,0.393
44.7600,0.400
44.8000,0.413
44.8400,0.398
44.8800,0.403
44.9200,0.412
44.9600,0.380
45.0000,0.418
45.0400,0.391
45.0800,0.402
45.1200,0.399
45.1600,0.396
45.2000,0.394
45.2400,0.370
45.2800,0.385
45.3200,0.388
45.3600,0.372
45.4000,0.369
45.4400,0.373
45.4800,0.387
45.5200,0.367
45.5600,0.364
45.6000,0.376
45.6400,0.409
45.6800,0.400
45.7200,0.382
45.7600,0.361
45.8000,0.359
45.8400,0.364
45.8800,0.372
45.9200,0.377
45.9600,0.382
46.0000,0.364
46.0400,0.386
46.0800,0.389
46.1200,0.376
46.1600,0.346
46.2000,0.354
46.2400,0.384
46.2800,0.413
46.3200,0.395
46.3600,0.387
46.4000,0.398
46.4400,0.377
46.4800,0.397
46.5200,0.388
46.5600,0.391
46.6000,0.375
46.6400,0.400
46.6800,0.386
46.7200,0.395
46.7600,0.382
46.8000,0.404
46.8400,0.395
46.8800,0.410
46.9200,0.428
46.9600,0.437
47.0000,0.450
47.0400,0.455
47.0800,0.471
47.1200,0.474
47.1600,0.477
47.2000,0.470
47.2400,0.497
47.2800,0.506
47.3200,0.526
47.3600,0.541
47.4000,0.575
47.4400,0.564
47.4800,0.609
47.5200,0.663
47.5600,0.682
47.6000,0.703
47.6400,0.789
47.6800,0.834
47.7200,0.863
47.7600,0.960
47.8000,0.953
47.8400,1.046
47.8800,1.046
47.9200,1.041
47.9600,0.999
48.0000,0.938
48.0400,0.935
48.0800,0.847
48.1200,0.757
48.1600,0.712
48.2000,0.651
48.2400,0.579
48.2800,0.563
48.3200,0.482
48.3600,0.470
48.4000,0.437
48.4400,0.451
48.4800,0.432
48.5200,0.395
48.5600,0.399
48.6000,0.406
48.6400,0.392
48.6800,0.375
48.7200,0.362
48.7600,0.342
48.8000,0.349
48.8400,0.319
48.8800,0.328
48.9200,0.344
48.9600,0.367
49.0000,0.313
49.0400,0.352
49.0800,0.332
49.1200,0.336
49.1600,0.321
49.2000,0.307
49.2400,0.314
49.2800,0.330
49.3200,0.312
49.3600,0.332
49.4000,0.321
49.4400,0.315
49.4800,0.297
49.5200,0.311
49.5600,0.305
49.6000,0.295
49.6400,0.295
49.6800,0.286
49.7200,0.308
49.7600,0.304
49.8000,0.302
49.8400,0.296
49.8800,0.283
49.9200,0.283
49.9600,0.309
50.0000,0.333
50.0400,0.306
50.0800,0.306
50.1200,0.281
50.1600,0.282
50.2000,0.286
50.2400,0.303
50.2800,0.296
50.3200,0.291
50.3600,0.292
50.4000,0.275
50.4400,0.303
50.4800,0.301
50.5200,0.299
50.5600,0.302
50.6000,0.293
50.6400,0.271
50.6800,0.305
50.7200,0.297
50.7600,0.267
50.8000,0.263
50.8400,0.277
50.8800,0.266
50.9200,0.271
50.9600,0.275
51.0000,0.288
51.0400,0.247
51.0800,0.262
51.1200,0.285
51.1600,0.271
51.2000,0.256
51.2400,0.268
51.2800,0.276
51.3200,0.285
51.3600,0.274
51.4000,0.248
51.4400,0.279
51.4800,0.272
51.5200,0.279
51.5600,0.248
51.6000,0.253
51.6400,0.251
51.6800,0.271
51.7200,0.256
51.7600,0.248
51.8000,0.266
51.8400,0.264
51.8800,0.260
51.9200,0.257
51.9600,0.256
52.0000,0.281
52.0400,0.252
52.0800,0.254
52.1200,0.242
52.1600,0.240
52.2000,0.257
52.2400,0.256
52.2800,0.254
52.3200,0.260
52.3600,0.284
52.4000,0.256
52.4400,0.253
52.4800,0.253
52.5200,0.260
52.5600,0.235
52.6000,0.269
52.6400,0.264
52.6800,0.249
52.7200,0.244
52.7600,0.270
52.8000,0.259
52.8400,0.263
52.8800,0.277
52.9200,0.277
52.9600,0.267
53.0000,0.296
53.0400,0.282
53.0800,0.319
53.1200,0.319
53.1600,0.363
53.2000,0.403
53.2400,0.440
53.2800,0.445
53.3200,0.441
53.3600,0.447
53.4000,0.420
53.4400,0.398
53.4800,0.342
53.5200,0.317
53.5600,0.317
53.6000,0.280
53.6400,0.278
53.6800,0.251
53.7200,0.253
53.7600,0.248
53.8000,0.265
53.8400,0.257
53.8800,0.263
53.9200,0.262
53.9600,0.256
54.0000,0.241
54.0400,0.251
54.0800,0.249
54.1200,0.268
54.1600,0.241
54.2000,0.240
54.2400,0.230
54.2800,0.261
54.3200,0.266
54.3600,0.244
54.4000,0.243
54.4400,0.257
54.4800,0.246
54.5200,0.225
54.5600,0.234
54.6000,0.231
54.6400,0.244
54.6800,0.240
54.7200,0.234
54.7600,0.225
54.8000,0.230
54.8400,0.227
54.8800,0.247
54.9200,0.232
54.9600,0.242
55.0000,0.234
55.0400,0.262
55.0800,0.237
55.1200,0.224
55.1600,0.213
55.2000,0.253
55.2400,0.233
55.2800,0.227
55.3200,0.232
55.3600,0.237
55.4000,0.253
55.4400,0.243
55.4800,0.223
55.5200,0.237
55.5600,0.259
55.6000,0.245
55.6400,0.226
55.6800,0.220
55.7200,0.232
55.7600,0.233
55.8000,0.226
55.8400,0.231
55.8800,0.233
55.9200,0.221
55.9600,0.211
56.0000,0.230
56.0400,0.254
56.0800,0.232
56.1200,0.242
56.1600,0.229
56.2000,0.224
56.2400,0.244
56.2800,0.233
56.3200,0.233
56.3600,0.229
56.4000,0.219
56.4400,0.220
56.4800,0.228
56.5200,0.243
56.5600,0.209
56.6000,0.211
56.6400,0.244
56.6800,0.221
56.7200,0.228
56.7600,0.219
56.8000,0.232
56.8400,0.225
56.8800,0.230
56.9200,0.227
56.9600,0.233
57.0000,0.228
57.0400,0.229
57.0800,0.220
57.1200,0.229
57.1600,0.235
57.2000,0.222
57.2400,0.219
57.2800,0.234
57.3200,0.219
57.3600,0.209
57.4000,0.230
57.4400,0.231
57.4800,0.225
57.5200,0.218
57.5600,0.219
57.6000,0.230
57.6400,0.218
57.6800,0.222
57.7200,0.228
57.7600,0.231
57.8000,0.245
57.8400,0.245
57.8800,0.235
57.9200,0.223
57.9600,0.210
58.0000,0.215
58.0400,0.213
58.0800,0.223
58.1200,0.210
58.1600,0.210
58.2000,0.215
58.2400,0.216
58.2800,0.221
58.3200,0.216
58.3600,0.219
58.4000,0.202
58.4400,0.237
58.4800,0.220
58.5200,0.220
58.5600,0.223
58.6000,0.241
58.6400,0.214
58.6800,0.212
58.7200,0.224
58.7600,0.228
58.8000,0.226
58.8400,0.222
58.8800,0.213
58.9200,0.225
58.9600,0.221
59.0000,0.237
59.0400,0.226
59.0800,0.239
59.1200,0.227
59.1600,0.204
59.2000,0.225
59.2400,0.221
59.2800,0.218
59.3200,0.209
59.3600,0.223
59.4000,0.229
59.4400,0.215
59.4800,0.216
59.5200,0.218
59.5600,0.229
59.6000,0.194
59.6400,0.213
59.6800,0.214
59.7200,0.207
59.7600,0.208
59.8000,0.230
59.8400,0.206
59.8800,0.220
59.9200,0.219
59.9600,0.223
60.0000,0.222
60.0400,0.190
60.0800,0.225
60.1200,0.233
60.1600,0.213
60.2000,0.210
60.2400,0.237
60.2800,0.223
60.3200,0.221
60.3600,0.217
60.4000,0.205
60.4400,0.234
60.4800,0.220
60.5200,0.233
60.5600,0.227
60.6000,0.203
60.6400,0.208
60.6800,0.221
60.7200,0.232
60.7600,0.224
60.8000,0.227
60.8400,0.206
60.8800,0.229
60.9200,0.215
60.9600,0.225
61.0000,0.220
61.0400,0.235
61.0800,0.236
61.1200,0.228
61.1600,0.227
61.2000,0.217
61.2400,0.219
61.2800,0.245
61.3200,0.243
61.3600,0.239
61.4000,0.245
61.4400,0.235
61.4800,0.230
61.5200,0.255
61.5600,0.244
61.6000,0.235
61.6400,0.259
61.6800,0.267
61.7200,0.253
61.7600,0.252
61.8000,0.271
61.8400,0.255
61.8800,0.265
61.9200,0.269
61.9600,0.298
62.0000,0.316
62.0400,0.331
62.0800,0.357
62.1200,0.432
62.1600,0.462
62.2000,0.591
62.2400,0.678
62.2800,0.820
62.3200,0.932
62.3600,0.935
62.4000,0.921
62.4400,0.879
62.4800,0.814
62.5200,0.773
62.5600,0.665
62.6000,0.632
62.6400,0.600
62.6800,0.502
62.7200,0.445
62.7600,0.393
62.8000,0.364
62.8400,0.338
62.8800,0.327
62.9200,0.295
62.9600,0.304
63.0000,0.257
63.0400,0.265
63.0800,0.264
63.1200,0.273
63.1600,0.264
63.2000,0.262
63.2400,0.256
63.2800,0.235
63.3200,0.254
63.3600,0.247
63.4000,0.243
63.4400,0.258
63.4800,0.239
63.5200,0.234
63.5600,0.223
63.6000,0.238
63.6400,0.222
63.6800,0.234
63.7200,0.231
63.7600,0.228
63.8000,0.221
63.8400,0.245
63.8800,0.246
63.9200,0.245
63.9600,0.228
64.0000,0.224
64.0400,0.238
64.0800,0.248
64.1200,0.235
64.1600,0.242
64.2000,0.231
64.2400,0.237
64.2800,0.243
64.3200,0.265
64.3600,0.244
64.4000,0.232
64.4400,0.236
64.4800,0.247
64.5200,0.250
64.5600,0.227
64.6000,0.251
64.6400,0.272
64.6800,0.237
64.7200,0.245
64.7600,0.228
64.8000,0.230
64.8400,0.235
64.8800,0.242
64.9200,0.259
64.9600,0.252
65.0000,0.266
65.0400,0.265
65.0800,0.258
65.1200,0.277
65.1600,0.253
65.2000,0.260
65.2400,0.270
65.2800,0.262
65.3200,0.281
65.3600,0.275
65.4000,0.283
65.4400,0.270
65.4800,0.249
65.5200,0.288
65.5600,0.300
65.6000,0.276
65.6400,0.276
65.6800,0.285
65.7200,0.290
65.7600,0.276
65.8000,0.279
65.8400,0.286
65.8800,0.293
65.9200,0.307
65.9600,0.297
66.0000,0.302
66.0400,0.302
66.0800,0.284
66.1200,0.324
66.1600,0.317
66.2000,0.310
66.2400,0.329
66.2800,0.322
66.3200,0.325
66.3600,0.328
66.4000,0.318
66.4400,0.327
66.4800,0.331
66.5200,0.337
66.5600,0.327
66.6000,0.346
66.6400,0.345
66.6800,0.344
66.7200,0.346
66.7600,0.353
66.8000,0.369
66.8400,0.347
66.8800,0.375
66.9200,0.379
66.9600,0.364
67.0000,0.370
67.0400,0.375
67.0800,0.371
67.1200,0.389
67.1600,0.425
67.2000,0.434
67.2400,0.384
67.2800,0.384
67.3200,0.416
67.3600,0.406
67.4000,0.442
67.4400,0.454
67.4800,0.436
67.5200,0.432
67.5600,0.471
67.6000,0.462
67.6400,0.459
67.6800,0.477
67.7200,0.475
67.7600,0.498
67.8000,0.501
67.8400,0.504
67.8800,0.527
67.9200,0.534
67.9600,0.542
68.0000,0.550
68.0400,0.561
68.0800,0.561
68.1200,0.589
68.1600,0.609
68.2000,0.647
68.2400,0.618
68.2800,0.638
68.3200,0.636
68.3600,0.652
68.4000,0.705
68.4400,0.770
68.4800,0.692
68.5200,0.788
68.5600,0.833
68.6000,0.923
68.6400,0.981
68.6800,1.091
68.7200,1.256
68.7600,1.514
68.8000,1.760
68.8400,1.951
68.8800,2.052
68.9200,2.311
68.9600,3.003
69.0000,4.938
69.0400,12.493
69.0800,43.018
69.1200,79.048
69.1600,84.628
69.2000,64.063
69.2400,31.902
69.2800,29.299
69.3200,43.274
69.3600,45.249
69.4000,33.024
69.4400,14.008
69.4800,5.011
69.5200,2.850
69.5600,2.130
69.6000,1.812
69.6400,1.510
69.6800,1.408
69.7200,1.335
69.7600,1.183
69.8000,1.149
69.8400,1.128
69.8800,1.078
69.9200,1.076
69.9600,1.048
70.0000,1.049
70.0400,1.001
70.0800,0.954
70.1200,0.998
70.1600,0.920
70.2000,0.919
70.2400,0.899
70.2800,0.888
70.3200,0.821
70.3600,0.775
70.4000,0.744
70.4400,0.731
70.4800,0.690
70.5200,0.709
70.5600,0.689
70.6000,0.701
70.6400,0.718
70.6800,0.706
70.7200,0.654
70.7600,0.693
70.8000,0.626
70.8400,0.628
70.8800,0.606
70.9200,0.590
70.9600,0.542
71.0000,0.550
71.0400,0.520
71.0800,0.531
71.1200,0.469
71.1600,0.466
71.2000,0.456
71.2400,0.449
71.2800,0.447
71.3200,0.415
71.3600,0.416
71.4000,0.388
71.4400,0.394
71.4800,0.384
71.5200,0.377
71.5600,0.357
71.6000,0.390
71.6400,0.368
71.6800,0.360
71.7200,0.348
71.7600,0.354
71.8000,0.347
71.8400,0.318
71.8800,0.350
71.9200,0.316
71.9600,0.324
72.0000,0.323
72.0400,0.318
72.0800,0.312
72.1200,0.339
72.1600,0.297
72.2000,0.306
72.2400,0.309
72.2800,0.278
72.3200,0.290
72.3600,0.309
72.4000,0.284
72.4400,0.296
72.4800,0.276
72.5200,0.268
72.5600,0.267
72.6000,0.247
72.6400,0.265
72.6800,0.272
72.7200,0.271
72.7600,0.255
72.8000,0.266
72.8400,0.263
72.8800,0.254
72.9200,0.264
72.9600,0.244
73.0000,0.250
73.0400,0.250
73.0800,0.239
73.1200,0.259
73.1600,0.258
73.2000,0.252
73.2400,0.261
73.2800,0.245
73.3200,0.233
73.3600,0.240
73.4000,0.234
73.4400,0.238
73.4800,0.237
73.5200,0.237
73.5600,0.226
73.6000,0.244
73.6400,0.243
73.6800,0.245
73.7200,0.239
73.7600,0.220
73.8000,0.216
73.8400,0.218
73.8800,0.226
73.9200,0.228
73.9600,0.235
74.0000,0.228
74.0400,0.219
74.0800,0.212
74.1200,0.200
74.1600,0.209
74.2000,0.225
74.2400,0.218
74.2800,0.206
74.3200,0.214
74.3600,0.203
74.4000,0.208
74.4400,0.243
74.4800,0.215
74.5200,0.198
74.5600,0.216
74.6000,0.210
74.6400,0.204
74.6800,0.217
74.7200,0.196
74.7600,0.218
74.8000,0.191
74.8400,0.188
74.8800,0.199
74.9200,0.203
74.9600,0.192
75.0000,0.209
75.0400,0.218
75.0800,0.178
75.1200,0.207
75.1600,0.186
75.2000,0.198
75.2400,0.220
75.2800,0.219
75.3200,0.207
75.3600,0.218
75.4000,0.210
75.4400,0.212
75.4800,0.205
75.5200,0.206
75.5600,0.209
75.6000,0.195
75.6400,0.192
75.6800,0.194
75.7200,0.182
75.7600,0.192
75.8000,0.194
75.8400,0.209
75.8800,0.189
75.9200,0.186
75.9600,0.197
76.0000,0.185
76.0400,0.194
76.0800,0.204
76.1200,0.186
76.1600,0.223
76.2000,0.188
76.2400,0.206
76.2800,0.192
76.3200,0.195
76.3600,0.195
76.4000,0.187
76.4400,0.201
76.4800,0.189
76.5200,0.169
76.5600,0.191
76.6000,0.191
76.6400,0.187
76.6800,0.186
76.7200,0.182
76.7600,0.190
76.8000,0.188
76.8400,0.189
76.8800,0.192
76.9200,0.194
76.9600,0.190
77.0000,0.197
77.0400,0.191
77.0800,0.190
77.1200,0.181
77.1600,0.195
77.2000,0.179
77.2400,0.194
77.2800,0.212
77.3200,0.190
77.3600,0.183
77.4000,0.211
77.4400,0.191
77.4800,0.208
77.5200,0.198
77.5600,0.202
77.6000,0.183
77.6400,0.196
77.6800,0.215
77.7200,0.208
77.7600,0.192
77.8000,0.199
77.8400,0.200
77.8800,0.203
77.9200,0.198
77.9600,0.207
78.0000,0.235
78.0400,0.239
78.0800,0.223
78.1200,0.245
78.1600,0.243
78.2000,0.245
78.2400,0.280
78.2800,0.289
78.3200,0.296
78.3600,0.343
78.4000,0.432
78.4400,0.464
78.4800,0.549
78.5200,0.665
78.5600,0.867
78.6000,1.002
78.6400,1.136
78.6800,1.208
78.7200,1.178
78.7600,1.063
78.8000,1.058
78.8400,0.949
78.8800,0.985
78.9200,0.882
78.9600,0.799
79.0000,0.737
79.0400,0.622
79.0800,0.535
79.1200,0.438
79.1600,0.424
79.2000,0.363
79.2400,0.330
79.2800,0.343
79.3200,0.290
79.3600,0.273
79.4000,0.262
79.4400,0.236
79.4800,0.230
79.5200,0.197
79.5600,0.220
79.6000,0.186
79.6400,0.200
79.6800,0.179
79.7200,0.196
79.7600,0.187
79.8000,0.192
79.8400,0.179
79.8800,0.189
79.9200,0.208
79.9600,0.182
80.0000,0.172
