theta,intensity
5.0000,6.363
5.0400,6.417
5.0800,6.343
5.1200,6.009
5.1600,6.111
5.2000,6.093
5.2400,5.900
5.2800,6.055
5.3200,5.799
5.3600,5.765
5.4000,5.568
5.4400,5.707
5.4800,5.598
5.5200,5.533
5.5600,5.326
5.6000,5.428
5.6400,5.188
5.6800,5.324
5.7200,5.117
5.7600,4.978
5.8000,5.087
5.8400,4.866
5.8800,4.898
5.9200,4.871
5.9600,5.041
6.0000,4.839
6.0400,4.770
6.0800,4.531
6.1200,4.609
6.1600,4.501
6.2000,4.472
6.2400,4.506
6.2800,4.465
6.3200,4.395
6.3600,4.335
6.4000,4.323
6.4400,4.320
6.4800,4.339
6.5200,4.209
6.5600,4.344
6.6000,4.167
6.6400,4.231
6.6800,4.271
6.7200,4.305
6.7600,4.169
6.8000,4.245
6.8400,4.288
6.8800,4.221
6.9200,4.111
6.9600,4.226
7.0000,4.196
7.0400,4.130
7.0800,4.025
7.1200,3.969
7.1600,4.165
7.2000,4.173
7.2400,4.266
7.2800,4.248
7.3200,4.060
7.3600,3.963
7.4000,3.984
7.4400,4.061
7.4800,4.155
7.5200,3.922
7.5600,4.149
7.6000,4.065
7.6400,4.103
7.6800,4.014
7.7200,4.186
7.7600,4.223
7.8000,4.098
7.8400,4.063
7.8800,4.054
7.9200,3.981
7.9600,4.054
8.0000,4.043
8.0400,3.941
8.0800,3.919
8.1200,4.002
8.1600,3.885
8.2000,4.020
8.2400,3.940
8.2800,3.915
8.3200,4.008
8.3600,4.093
8.4000,4.102
8.4400,3.959
8.4800,3.938
8.5200,4.066
8.5600,3.831
8.6000,3.771
8.6400,4.002
8.6800,3.766
8.7200,3.956
8.7600,3.875
8.8000,3.860
8.8400,3.894
8.8800,3.839
8.9200,3.864
8.9600,3.832
9.0000,3.758
9.0400,3.811
9.0800,3.944
9.1200,3.847
9.1600,3.992
9.2000,3.816
9.2400,3.871
9.2800,3.865
9.3200,3.961
9.3600,3.860
9.4000,3.768
9.4400,3.801
9.4800,3.926
9.5200,3.730
9.5600,3.916
9.6000,3.911
9.6400,3.657
9.6800,3.802
9.7200,3.685
9.7600,3.795
9.8000,3.764
9.8400,3.684
9.8800,3.732
9.9200,3.809
9.9600,3.710
10.0000,3.771
10.0400,3.538
10.0800,3.825
10.1200,3.822
10.1600,3.649
10.2000,3.827
10.2400,3.732
10.2800,3.660
10.3200,3.644
10.3600,3.727
10.4000,3.753
10.4400,3.521
10.4800,3.644
10.5200,3.733
10.5600,3.590
10.6000,3.626
10.6400,3.715
10.6800,3.662
10.7200,3.652
10.7600,3.668
10.8000,3.685
10.8400,3.764
10.8800,3.651
10.9200,3.551
10.9600,3.546
11.0000,3.586
11.0400,3.637
11.0800,3.726
11.1200,3.681
11.1600,3.647
11.2000,3.579
11.2400,3.728
11.2800,3.529
11.3200,3.623
11.3600,3.625
11.4000,3.516
11.4400,3.563
11.4800,3.620
11.5200,3.563
11.5600,3.590
11.6000,3.451
11.6400,3.553
11.6800,3.544
11.7200,3.631
11.7600,3.554
11.8000,3.487
11.8400,3.420
11.8800,3.515
11.9200,3.536
11.9600,3.575
12.0000,3.435
12.0400,3.470
12.0800,3.601
12.1200,3.614
12.1600,3.618
12.2000,3.504
12.2400,3.503
12.2800,3.529
12.3200,3.543
12.3600,3.418
12.4000,3.473
12.4400,3.558
12.4800,3.503
12.5200,3.492
12.5600,3.449
12.6000,3.585
12.6400,3.465
12.6800,3.480
12.7200,3.631
12.7600,3.552
12.8000,3.543
12.8400,3.472
12.8800,3.464
12.9200,3.358
12.9600,3.516
13.0000,3.538
13.0400,3.447
13.0800,3.452
13.1200,3.483
13.1600,3.296
13.2000,3.325
13.2400,3.481
13.2800,3.343
13.3200,3.425
13.3600,3.424
13.4000,3.431
13.4400,3.354
13.4800,3.374
13.5200,3.329
13.5600,3.329
13.6000,3.428
13.6400,3.426
13.6800,3.362
13.7200,3.315
13.7600,3.332
13.8000,3.448
13.8400,3.323
13.8800,3.272
13.9200,3.291
13.9600,3.409
14.0000,3.320
14.0400,3.306
14.0800,3.361
14.1200,3.480
14.1600,3.479
14.2000,3.326
14.2400,3.406
14.2800,3.389
14.3200,3.218
14.3600,3.228
14.4000,3.347
14.4400,3.417
14.4800,3.398
14.5200,3.329
14.5600,3.264
14.6000,3.322
14.6400,3.369
14.6800,3.472
14.7200,3.310
14.7600,3.317
14.8000,3.171
14.8400,3.239
14.8800,3.481
14.9200,3.208
14.9600,3.377
15.0000,3.319
15.0400,3.275
15.0800,3.295
15.1200,3.321
15.1600,3.227
15.2000,3.240
15.2400,3.250
15.2800,3.313
15.3200,3.269
15.3600,3.356
15.4000,3.293
15.4400,3.475
15.4800,3.389
15.5200,3.163
15.5600,3.206
15.6000,3.347
15.6400,3.340
15.6800,3.254
15.7200,3.183
15.7600,3.178
15.8000,3.459
15.8400,3.311
15.8800,3.250
15.9200,3.255
15.9600,3.303
16.0000,3.376
16.0400,3.332
16.0800,3.244
16.1200,3.148
16.1600,3.319
16.2000,3.230
16.2400,3.206
16.2800,3.239
16.3200,3.251
16.3600,3.139
16.4000,3.229
16.4400,3.248
16.4800,3.281
16.5200,3.307
16.5600,3.106
16.6000,3.197
16.6400,3.267
16.6800,3.065
16.7200,3.068
16.7600,3.216
16.8000,3.111
16.8400,3.192
16.8800,3.278
16.9200,3.208
16.9600,3.329
17.0000,3.227
17.0400,3.286
17.0800,3.102
17.1200,3.269
17.1600,3.084
17.2000,3.135
17.2400,3.150
17.2800,2.943
17.3200,3.110
17.3600,3.140
17.4000,3.003
17.4400,3.104
17.4800,3.054
17.5200,3.240
17.5600,2.926
17.6000,3.104
17.6400,3.031
17.6800,2.941
17.7200,3.164
17.7600,2.931
17.8000,3.051
17.8400,3.071
17.8800,3.003
17.9200,2.998
17.9600,2.998
18.0000,3.016
18.0400,2.961
18.0800,3.113
18.1200,3.097
18.1600,2.989
18.2000,3.018
18.2400,3.003
18.2800,2.893
18.3200,2.916
18.3600,3.067
18.4000,2.956
18.4400,2.996
18.4800,2.967
18.5200,3.001
18.5600,2.954
18.6000,2.925
18.6400,2.810
18.6800,2.948
18.7200,2.911
18.7600,2.834
18.8000,2.847
18.8400,2.853
18.8800,2.969
18.9200,2.975
18.9600,2.959
19.0000,2.919
19.0400,2.963
19.0800,2.886
19.1200,2.918
19.1600,2.819
19.2000,2.803
19.2400,2.834
19.2800,2.857
19.3200,2.945
19.3600,2.879
19.4000,2.762
19.4400,2.938
19.4800,2.899
19.5200,2.858
19.5600,3.030
19.6000,2.852
19.6400,2.807
19.6800,2.918
19.7200,2.708
19.7600,2.806
19.8000,2.977
19.8400,2.814
19.8800,2.870
19.9200,2.831
19.9600,2.807
20.0000,2.897
20.0400,2.756
20.0800,2.802
20.1200,2.780
20.1600,2.853
20.2000,2.894
20.2400,2.746
20.2800,2.838
20.3200,2.807
20.3600,2.870
20.4000,2.892
20.4400,2.725
20.4800,2.695
20.5200,2.790
20.5600,2.686
20.6000,2.768
20.6400,2.694
20.6800,2.626
20.7200,2.833
20.7600,2.787
20.8000,2.853
20.8400,2.627
20.8800,2.628
20.9200,2.773
20.9600,2.712
21.0000,2.765
21.0400,2.710
21.0800,2.725
21.1200,2.617
21.1600,2.837
21.2000,2.660
21.2400,2.565
21.2800,2.663
21.3200,2.622
21.3600,2.793
21.4000,2.862
21.4400,2.783
21.4800,2.684
21.5200,2.610
21.5600,2.672
21.6000,2.533
21.6400,2.569
21.6800,2.717
21.7200,2.614
21.7600,2.684
21.8000,2.675
21.8400,2.611
21.8800,2.633
21.9200,2.595
21.9600,2.688
22.0000,2.631
22.0400,2.676
22.0800,2.586
22.1200,2.730
22.1600,2.626
22.2000,2.702
22.2400,2.593
22.2800,2.602
22.3200,2.620
22.3600,2.746
22.4000,2.622
22.4400,2.689
22.4800,2.593
22.5200,2.530
22.5600,2.425
22.6000,2.599
22.6400,2.612
22.6800,2.657
22.7200,2.571
22.7600,2.600
22.8000,2.653
22.8400,2.611
22.8800,2.685
22.9200,2.608
22.9600,2.632
23.0000,2.520
23.0400,2.510
23.0800,2.529
23.1200,2.645
23.1600,2.616
23.2000,2.641
23.2400,2.634
23.2800,2.527
23.3200,2.659
23.3600,2.660
23.4000,2.753
23.4400,2.781
23.4800,2.702
23.5200,2.785
23.5600,2.578
23.6000,2.593
23.6400,2.706
23.6800,2.496
23.7200,2.585
23.7600,2.661
23.8000,2.656
23.8400,2.574
23.8800,2.631
23.9200,2.509
23.9600,2.487
24.0000,2.559
24.0400,2.520
24.0800,2.539
24.1200,2.486
24.1600,2.511
24.2000,2.519
24.2400,2.567
24.2800,2.467
24.3200,2.413
24.3600,2.479
24.4000,2.558
24.4400,2.392
24.4800,2.406
24.5200,2.522
24.5600,2.588
24.6000,2.613
24.6400,2.447
24.6800,2.511
24.7200,2.385
24.7600,2.575
24.8000,2.318
24.8400,2.427
24.8800,2.427
24.9200,2.525
24.9600,2.544
25.0000,2.402
25.0400,2.448
25.0800,2.417
25.1200,2.389
25.1600,2.348
25.2000,2.457
25.2400,2.463
25.2800,2.473
25.3200,2.451
25.3600,2.502
25.4000,2.341
25.4400,2.518
25.4800,2.329
25.5200,2.547
25.5600,2.385
25.6000,2.436
25.6400,2.670
25.6800,2.580
25.7200,2.524
25.7600,2.600
25.8000,2.584
25.8400,2.484
25.8800,2.352
25.9200,2.412
25.9600,2.329
26.0000,2.431
26.0400,2.355
26.0800,2.393
26.1200,2.346
26.1600,2.333
26.2000,2.330
26.2400,2.351
26.2800,2.311
26.3200,2.312
26.3600,2.575
26.4000,2.296
26.4400,2.275
26.4800,2.208
26.5200,2.307
26.5600,2.335
26.6000,2.264
26.6400,2.252
26.6800,2.321
26.7200,2.334
26.7600,2.333
26.8000,2.292
26.8400,2.375
26.8800,2.290
26.9200,2.296
26.9600,2.285
27.0000,2.390
27.0400,2.247
27.0800,2.258
27.1200,2.280
27.1600,2.340
27.2000,2.316
27.2400,2.390
27.2800,2.434
27.3200,2.319
27.3600,2.469
27.4000,2.360
27.4400,2.225
27.4800,2.386
27.5200,2.256
27.5600,2.383
27.6000,2.314
27.6400,2.316
27.6800,2.207
27.7200,2.257
27.7600,2.267
27.8000,2.286
27.8400,2.286
27.8800,2.302
27.9200,2.375
27.9600,2.253
28.0000,2.209
28.0400,2.326
28.0800,2.310
28.1200,2.344
28.1600,2.388
28.2000,2.439
28.2400,2.302
28.2800,2.411
28.3200,2.407
28.3600,2.397
28.4000,2.394
28.4400,2.480
28.4800,2.459
28.5200,2.313
28.5600,2.506
28.6000,2.620
28.6400,2.515
28.6800,2.909
28.7200,3.014
28.7600,3.270
28.8000,3.407
28.8400,3.253
28.8800,3.141
28.9200,2.995
28.9600,2.678
29.0000,2.667
29.0400,2.498
29.0800,2.449
29.1200,2.228
29.1600,2.374
29.2000,2.350
29.2400,2.243
29.2800,2.219
29.3200,2.274
29.3600,2.191
29.4000,2.215
29.4400,2.169
29.4800,2.186
29.5200,2.185
29.5600,2.146
29.6000,2.084
29.6400,2.177
29.6800,2.198
29.7200,2.201
29.7600,2.255
29.8000,2.236
29.8400,2.147
29.8800,2.130
29.9200,2.193
29.9600,2.146
30.0000,2.189
30.0400,2.305
30.0800,2.240
30.1200,2.383
30.1600,2.465
30.2000,2.597
30.2400,2.586
30.2800,2.673
30.3200,2.689
30.3600,2.556
30.4000,2.342
30.4400,2.250
30.4800,2.244
30.5200,2.175
30.5600,2.075
30.6000,2.090
30.6400,2.149
30.6800,2.134
30.7200,1.986
30.7600,2.003
30.8000,2.030
30.8400,1.993
30.8800,2.071
30.9200,2.114
30.9600,1.970
31.0000,2.140
31.0400,2.218
31.0800,2.152
31.1200,2.174
31.1600,1.977
31.2000,2.030
31.2400,2.072
31.2800,2.053
31.3200,2.028
31.3600,1.960
31.4000,2.025
31.4400,2.041
31.4800,2.161
31.5200,2.350
31.5600,2.386
31.6000,2.542
31.6400,2.459
31.6800,2.405
31.7200,2.387
31.7600,2.151
31.8000,2.159
31.8400,2.037
31.8800,2.070
31.9200,1.868
31.9600,2.082
32.0000,1.899
32.0400,1.901
32.0800,2.024
32.1200,1.826
32.1600,1.908
32.2000,1.931
32.2400,1.920
32.2800,1.947
32.3200,1.970
32.3600,1.959
32.4000,1.995
32.4400,2.047
32.4800,2.279
32.5200,2.390
32.5600,2.368
32.6000,2.461
32.6400,2.259
32.6800,2.231
32.7200,2.181
32.7600,2.061
32.8000,2.152
32.8400,2.292
32.8800,2.435
32.9200,2.545
32.9600,2.589
33.0000,2.497
33.0400,2.436
33.0800,2.502
33.1200,2.461
33.1600,2.337
33.2000,2.210
33.2400,2.262
33.2800,2.118
33.3200,1.908
33.3600,1.977
33.4000,1.990
33.4400,1.922
33.4800,1.926
33.5200,1.923
33.5600,1.812
33.6000,1.917
33.6400,1.823
33.6800,1.843
33.7200,1.958
33.7600,1.950
33.8000,1.790
33.8400,1.829
33.8800,1.879
33.9200,1.973
33.9600,2.019
34.0000,2.118
34.0400,2.108
34.0800,2.412
34.1200,2.628
34.1600,2.900
34.2000,3.196
34.2400,3.224
34.2800,3.099
34.3200,2.656
34.3600,2.464
34.4000,2.222
34.4400,2.000
34.4800,2.032
34.5200,1.935
34.5600,1.735
34.6000,1.844
34.6400,1.734
34.6800,1.774
34.7200,1.789
34.7600,1.702
34.8000,1.594
34.8400,1.682
34.8800,1.667
34.9200,1.779
34.9600,1.805
35.0000,1.727
35.0400,1.774
35.0800,1.761
35.1200,1.699
35.1600,1.720
35.2000,1.632
35.2400,1.583
35.2800,1.671
35.3200,1.595
35.3600,1.697
35.4000,1.647
35.4400,1.551
35.4800,1.632
35.5200,1.571
35.5600,1.578
35.6000,1.609
35.6400,1.572
35.6800,1.721
35.7200,1.476
35.7600,1.717
35.8000,1.632
35.8400,1.742
35.8800,1.596
35.9200,1.555
35.9600,1.650
36.0000,1.551
36.0400,1.582
36.0800,1.655
36.1200,1.483
36.1600,1.623
36.2000,1.586
36.2400,1.593
36.2800,1.684
36.3200,1.604
36.3600,1.619
36.4000,1.737
36.4400,1.653
36.4800,1.712
36.5200,1.709
36.5600,1.789
36.6000,1.908
36.6400,1.963
36.6800,1.983
36.7200,1.815
36.7600,1.787
36.8000,1.761
36.8400,1.690
36.8800,1.623
36.9200,1.634
36.9600,1.536
37.0000,1.415
37.0400,1.476
37.0800,1.549
37.1200,1.576
37.1600,1.567
37.2000,1.589
37.2400,1.542
37.2800,1.658
37.3200,1.554
37.3600,1.545
37.4000,1.526
37.4400,1.575
37.4800,1.559
37.5200,1.684
37.5600,1.634
37.6000,1.673
37.6400,1.809
37.6800,1.883
37.7200,2.083
37.7600,2.362
37.8000,2.424
37.8400,2.430
37.8800,2.521
37.9200,2.329
37.9600,2.228
38.0000,2.029
38.0400,1.990
38.0800,1.907
38.1200,1.840
38.1600,1.892
38.2000,1.859
38.2400,1.856
38.2800,1.981
38.3200,2.082
38.3600,2.165
38.4000,2.016
38.4400,1.909
38.4800,1.965
38.5200,2.025
38.5600,1.901
38.6000,1.978
38.6400,2.074
38.6800,2.227
38.7200,2.454
38.7600,2.794
38.8000,3.782
38.8400,5.122
38.8800,6.883
38.9200,8.430
38.9600,9.224
39.0000,9.137
39.0400,8.829
39.0800,7.882
39.1200,6.516
39.1600,5.471
39.2000,4.298
39.2400,3.524
39.2800,2.981
39.3200,2.597
39.3600,2.078
39.4000,1.999
39.4400,1.914
39.4800,1.857
39.5200,1.730
39.5600,1.765
39.6000,1.581
39.6400,1.642
39.6800,1.718
39.7200,1.652
39.7600,1.610
39.8000,1.539
39.8400,1.608
39.8800,1.626
39.9200,1.542
39.9600,1.549
40.0000,1.619
40.0400,1.530
40.0800,1.684
40.1200,1.629
40.1600,1.586
40.2000,1.441
40.2400,1.504
40.2800,1.432
40.3200,1.448
40.3600,1.388
40.4000,1.404
40.4400,1.442
40.4800,1.434
40.5200,1.395
40.5600,1.369
40.6000,1.347
40.6400,1.381
40.6800,1.400
40.7200,1.327
40.7600,1.268
40.8000,1.365
40.8400,1.335
40.8800,1.419
40.9200,1.267
40.9600,1.384
41.0000,1.261
41.0400,1.221
41.0800,1.373
41.1200,1.294
41.1600,1.285
41.2000,1.314
41.2400,1.302
41.2800,1.292
41.3200,1.358
41.3600,1.240
41.4000,1.344
41.4400,1.252
41.4800,1.204
41.5200,1.223
41.5600,1.322
41.6000,1.286
41.6400,1.133
41.6800,1.208
41.7200,1.211
41.7600,1.243
41.8000,1.285
41.8400,1.159
41.8800,1.193
41.9200,1.230
41.9600,1.232
42.0000,1.229
42.0400,1.165
42.0800,1.125
42.1200,1.220
42.1600,1.149
42.2000,1.198
42.2400,1.258
42.2800,1.179
42.3200,1.199
42.3600,1.215
42.4000,1.230
42.4400,1.156
42.4800,1.213
42.5200,1.238
42.5600,1.180
42.6000,1.205
42.6400,1.133
42.6800,1.065
42.7200,1.140
42.7600,1.238
42.8000,1.138
42.8400,1.188
42.8800,1.157
42.9200,1.178
42.9600,1.172
43.0000,1.192
43.0400,1.247
43.0800,1.274
43.1200,1.353
43.1600,1.266
43.2000,1.464
43.2400,1.449
43.2800,1.601
43.3200,1.570
43.3600,1.500
43.4000,1.516
43.4400,1.477
43.4800,1.414
43.5200,1.339
43.5600,1.301
43.6000,1.276
43.6400,1.267
43.6800,1.291
43.7200,1.255
43.7600,1.153
43.8000,1.149
43.8400,1.229
43.8800,1.246
43.9200,1.250
43.9600,1.141
44.0000,1.181
44.0400,1.191
44.0800,1.082
44.1200,1.134
44.1600,1.181
44.2000,1.141
44.2400,1.102
44.2800,1.189
44.3200,1.185
44.3600,1.067
44.4000,1.062
44.4400,1.146
44.4800,1.128
44.5200,1.103
44.5600,1.111
44.6000,1.137
44.6400,1.058
44.6800,1.044
44.7200,1.034
44.7600,1.028
44.8000,1.080
44.8400,1.024
44.8800,1.019
44.9200,1.077
44.9600,1.069
45.0000,1.032
45.0400,1.065
45.0800,1.050
45.1200,1.092
45.1600,1.134
45.2000,1.146
45.2400,1.181
45.2800,1.278
45.3200,1.241
45.3600,1.321
45.4000,1.293
45.4400,1.261
45.4800,1.181
45.5200,1.183
45.5600,1.129
45.6000,1.043
45.6400,1.183
45.6800,1.030
45.7200,1.061
45.7600,0.988
45.8000,1.109
45.8400,1.035
45.8800,0.979
45.9200,1.015
45.9600,1.052
46.0000,1.045
46.0400,0.988
46.0800,1.124
46.1200,1.072
46.1600,1.002
46.2000,0.958
46.2400,1.049
46.2800,0.984
46.3200,1.004
46.3600,1.041
46.4000,1.031
46.4400,0.969
46.4800,0.938
46.5200,1.000
46.5600,0.999
46.6000,0.918
46.6400,1.086
46.6800,0.963
46.7200,1.011
46.7600,0.978
46.8000,0.923
46.8400,0.904
46.8800,1.019
46.9200,0.988
46.9600,1.012
47.0000,0.972
47.0400,0.985
47.0800,0.932
47.1200,1.016
47.1600,1.047
47.2000,0.976
47.2400,1.100
47.2800,1.040
47.3200,1.060
47.3600,0.959
47.4000,1.107
47.4400,0.969
47.4800,0.938
47.5200,1.009
47.5600,1.025
47.6000,1.005
47.6400,1.020
47.6800,0.958
47.7200,1.014
47.7600,1.021
47.8000,0.980
47.8400,0.964
47.8800,1.003
47.9200,0.994
47.9600,0.903
48.0000,0.968
48.0400,1.022
48.0800,0.951
48.1200,1.042
48.1600,0.968
48.2000,0.971
48.2400,0.975
48.2800,0.990
48.3200,0.969
48.3600,0.913
48.4000,1.005
48.4400,0.922
48.4800,0.909
48.5200,0.954
48.5600,0.904
48.6000,0.927
48.6400,0.851
48.6800,0.830
48.7200,0.889
48.7600,0.826
48.8000,0.852
48.8400,0.839
48.8800,0.913
48.9200,0.888
48.9600,0.855
49.0000,0.915
49.0400,0.913
49.0800,0.879
49.1200,0.839
49.1600,0.830
49.2000,0.855
49.2400,0.827
49.2800,0.850
49.3200,0.798
49.3600,0.898
49.4000,0.869
49.4400,0.914
49.4800,0.896
49.5200,0.901
49.5600,0.898
49.6000,0.946
49.6400,0.920
49.6800,0.936
49.7200,0.867
49.7600,0.888
49.8000,0.879
49.8400,0.922
49.8800,0.946
49.9200,0.892
49.9600,0.960
50.0000,0.888
50.0400,0.931
50.0800,0.870
50.1200,0.892
50.1600,0.895
50.2000,0.900
50.2400,0.832
50.2800,0.856
50.3200,0.874
50.3600,0.905
50.4000,0.960
50.4400,0.812
50.4800,0.887
50.5200,0.879
50.5600,0.822
50.6000,0.812
50.6400,0.858
50.6800,0.839
50.7200,0.805
50.7600,0.843
50.8000,0.895
50.8400,0.877
50.8800,0.891
50.9200,0.850
50.9600,1.051
51.0000,0.924
51.0400,0.973
51.0800,0.907
51.1200,0.913
51.1600,0.911
51.2000,0.848
51.2400,0.885
51.2800,0.915
51.3200,0.887
51.3600,0.881
51.4000,0.873
51.4400,0.837
51.4800,0.891
51.5200,0.857
51.5600,0.846
51.6000,0.866
51.6400,0.846
51.6800,0.812
51.7200,0.876
51.7600,0.815
51.8000,0.829
51.8400,0.811
51.8800,0.768
51.9200,0.751
51.9600,0.753
52.0000,0.754
52.0400,0.818
52.0800,0.760
52.1200,0.750
52.1600,0.796
52.2000,0.835
52.2400,0.852
52.2800,0.791
52.3200,0.723
52.3600,0.767
52.4000,0.789
52.4400,0.837
52.4800,0.837
52.5200,0.806
52.5600,0.731
52.6000,0.834
52.6400,0.787
52.6800,0.756
52.7200,0.878
52.7600,0.795
52.8000,0.805
52.8400,0.871
52.8800,0.819
52.9200,0.868
52.9600,0.825
53.0000,0.837
53.0400,0.809
53.0800,0.815
53.1200,0.822
53.1600,0.783
53.2000,0.786
53.2400,0.759
53.2800,0.843
53.3200,0.782
53.3600,0.745
53.4000,0.768
53.4400,0.736
53.4800,0.705
53.5200,0.841
53.5600,0.717
53.6000,0.759
53.6400,0.827
53.6800,0.846
53.7200,0.774
53.7600,0.817
53.8000,0.784
53.8400,0.827
53.8800,0.793
53.9200,0.754
53.9600,0.793
54.0000,0.797
54.0400,0.779
54.0800,0.780
54.1200,0.712
54.1600,0.707
54.2000,0.792
54.2400,0.744
54.2800,0.690
54.3200,0.802
54.3600,0.784
54.4000,0.772
54.4400,0.745
54.4800,0.828
54.5200,0.758
54.5600,0.854
54.6000,0.809
54.6400,0.880
54.6800,0.852
54.7200,0.825
54.7600,0.850
54.8000,0.855
54.8400,0.829
54.8800,0.775
54.9200,0.838
54.9600,0.849
55.0000,0.775
55.0400,0.742
55.0800,0.812
55.1200,0.848
55.1600,0.871
55.2000,0.780
55.2400,0.819
55.2800,0.850
55.3200,0.914
55.3600,0.872
55.4000,0.874
55.4400,0.916
55.4800,0.867
55.5200,0.789
55.5600,0.805
55.6000,0.711
55.6400,0.817
55.6800,0.779
55.7200,0.765
55.7600,0.783
55.8000,0.725
55.8400,0.716
55.8800,0.736
55.9200,0.837
55.9600,0.761
56.0000,0.756
56.0400,0.792
56.0800,0.834
56.1200,0.776
56.1600,0.876
56.2000,0.904
56.2400,0.906
56.2800,0.972
56.3200,0.921
56.3600,0.907
56.4000,0.919
56.4400,0.837
56.4800,0.812
56.5200,0.895
56.5600,0.735
56.6000,0.868
56.6400,0.704
56.6800,0.734
56.7200,0.724
56.7600,0.698
56.8000,0.714
56.8400,0.762
56.8800,0.737
56.9200,0.707
56.9600,0.728
57.0000,0.714
57.0400,0.704
57.0800,0.694
57.1200,0.732
57.1600,0.676
57.2000,0.651
57.2400,0.656
57.2800,0.659
57.3200,0.747
57.3600,0.621
57.4000,0.660
57.4400,0.616
57.4800,0.725
57.5200,0.673
57.5600,0.667
57.6000,0.657
57.6400,0.690
57.6800,0.636
57.7200,0.643
57.7600,0.717
57.8000,0.625
57.8400,0.693
57.8800,0.651
57.9200,0.655
57.9600,0.689
58.0000,0.723
58.0400,0.699
58.0800,0.677
58.1200,0.708
58.1600,0.703
58.2000,0.660
58.2400,0.705
58.2800,0.665
58.3200,0.707
58.3600,0.678
58.4000,0.645
58.4400,0.615
58.4800,0.681
58.5200,0.675
58.5600,0.626
58.6000,0.623
58.6400,0.683
58.6800,0.672
58.7200,0.547
58.7600,0.676
58.8000,0.630
58.8400,0.639
58.8800,0.622
58.9200,0.638
58.9600,0.596
59.0000,0.623
59.0400,0.589
59.0800,0.651
59.1200,0.642
59.1600,0.609
59.2000,0.580
59.2400,0.625
59.2800,0.601
59.3200,0.609
59.3600,0.615
59.4000,0.629
59.4400,0.582
59.4800,0.626
59.5200,0.606
59.5600,0.589
59.6000,0.639
59.6400,0.576
59.6800,0.580
59.7200,0.671
59.7600,0.601
59.8000,0.594
59.8400,0.631
59.8800,0.576
59.9200,0.589
59.9600,0.547
60.0000,0.587
60.0400,0.626
60.0800,0.600
60.1200,0.659
60.1600,0.653
60.2000,0.645
60.2400,0.607
60.2800,0.596
60.3200,0.652
60.3600,0.597
60.4000,0.625
60.4400,0.582
60.4800,0.586
60.5200,0.609
60.5600,0.703
60.6000,0.664
60.6400,0.657
60.6800,0.600
60.7200,0.660
60.7600,0.617
60.8000,0.533
60.8400,0.581
60.8800,0.633
60.9200,0.630
60.9600,0.653
61.0000,0.555
61.0400,0.598
61.0800,0.604
61.1200,0.587
61.1600,0.604
61.2000,0.584
61.2400,0.602
61.2800,0.639
61.3200,0.628
61.3600,0.594
61.4000,0.630
61.4400,0.581
61.4800,0.568
61.5200,0.630
61.5600,0.564
61.6000,0.607
61.6400,0.603
61.6800,0.558
61.7200,0.637
61.7600,0.558
61.8000,0.600
61.8400,0.570
61.8800,0.564
61.9200,0.537
61.9600,0.555
62.0000,0.604
62.0400,0.552
62.0800,0.578
62.1200,0.549
62.1600,0.549
62.2000,0.535
62.2400,0.566
62.2800,0.637
62.3200,0.589
62.3600,0.591
62.4000,0.572
62.4400,0.519
62.4800,0.521
62.5200,0.569
62.5600,0.536
62.6000,0.512
62.6400,0.546
62.6800,0.518
62.7200,0.545
62.7600,0.544
62.8000,0.584
62.8400,0.532
62.8800,0.668
62.9200,0.611
62.9600,0.603
63.0000,0.620
63.0400,0.546
63.0800,0.593
63.1200,0.541
63.1600,0.574
63.2000,0.572
63.2400,0.543
63.2800,0.543
63.3200,0.486
63.3600,0.538
63.4000,0.518
63.4400,0.554
63.4800,0.526
63.5200,0.456
63.5600,0.517
63.6000,0.570
63.6400,0.575
63.6800,0.542
63.7200,0.572
63.7600,0.584
63.8000,0.558
63.8400,0.613
63.8800,0.533
63.9200,0.499
63.9600,0.492
64.0000,0.480
64.0400,0.549
64.0800,0.559
64.1200,0.551
64.1600,0.576
64.2000,0.511
64.2400,0.555
64.2800,0.523
64.3200,0.546
64.3600,0.577
64.4000,0.584
64.4400,0.606
64.4800,0.640
64.5200,0.585
64.5600,0.610
64.6000,0.581
64.6400,0.586
64.6800,0.590
64.7200,0.627
64.7600,0.546
64.8000,0.615
64.8400,0.611
64.8800,0.538
64.9200,0.524
64.9600,0.564
65.0000,0.530
65.0400,0.509
65.0800,0.516
65.1200,0.550
65.1600,0.490
65.2000,0.472
65.2400,0.504
65.2800,0.487
65.3200,0.488
65.3600,0.536
65.4000,0.543
65.4400,0.491
65.4800,0.512
65.5200,0.544
65.5600,0.515
65.6000,0.474
65.6400,0.526
65.6800,0.542
65.7200,0.534
65.7600,0.511
65.8000,0.604
65.8400,0.565
65.8800,0.665
65.9200,0.674
65.9600,0.685
66.0000,0.717
66.0400,0.665
66.0800,0.678
66.1200,0.709
66.1600,0.726
66.2000,0.653
66.2400,0.713
66.2800,0.663
66.3200,0.662
66.3600,0.632
66.4000,0.589
66.4400,0.552
66.4800,0.573
66.5200,0.573
66.5600,0.549
66.6000,0.548
66.6400,0.579
66.6800,0.595
66.7200,0.585
66.7600,0.514
66.8000,0.494
66.8400,0.543
66.8800,0.560
66.9200,0.485
66.9600,0.580
67.0000,0.512
67.0400,0.483
67.0800,0.542
67.1200,0.537
67.1600,0.505
67.2000,0.470
67.2400,0.489
67.2800,0.527
67.3200,0.495
67.3600,0.560
67.4000,0.514
67.4400,0.562
67.4800,0.573
67.5200,0.564
67.5600,0.565
67.6000,0.600
67.6400,0.587
67.6800,0.489
67.7200,0.558
67.7600,0.601
67.8000,0.554
67.8400,0.591
67.8800,0.514
67.9200,0.518
67.9600,0.522
68.0000,0.496
68.0400,0.481
68.0800,0.513
68.1200,0.511
68.1600,0.454
68.2000,0.441
68.2400,0.482
68.2800,0.471
68.3200,0.419
68.3600,0.485
68.4000,0.480
68.4400,0.468
68.4800,0.443
68.5200,0.436
68.5600,0.486
68.6000,0.505
68.6400,0.451
68.6800,0.434
68.7200,0.467
68.7600,0.446
68.8000,0.461
68.8400,0.459
68.8800,0.451
68.9200,0.437
68.9600,0.435
69.0000,0.469
69.0400,0.447
69.0800,0.437
69.1200,0.471
69.1600,0.451
69.2000,0.484
69.2400,0.442
69.2800,0.475
69.3200,0.461
69.3600,0.415
69.4000,0.496
69.4400,0.490
69.4800,0.474
69.5200,0.459
69.5600,0.500
69.6000,0.476
69.6400,0.531
69.6800,0.536
69.7200,0.488
69.7600,0.470
69.8000,0.476
69.8400,0.454
69.8800,0.439
69.9200,0.390
69.9600,0.460
70.0000,0.436
70.0400,0.423
70.0800,0.453
70.1200,0.448
70.1600,0.448
70.2000,0.393
70.2400,0.434
70.2800,0.485
70.3200,0.517
70.3600,0.529
70.4000,0.609
70.4400,0.574
70.4800,0.659
70.5200,0.727
70.5600,0.644
70.6000,0.705
70.6400,0.715
70.6800,0.734
70.7200,0.672
70.7600,0.687
70.8000,0.660
70.8400,0.691
70.8800,0.639
70.9200,0.559
70.9600,0.617
71.0000,0.587
71.0400,0.552
71.0800,0.544
71.1200,0.534
71.1600,0.506
71.2000,0.508
71.2400,0.487
71.2800,0.406
71.3200,0.408
71.3600,0.420
71.4000,0.410
71.4400,0.413
71.4800,0.395
71.5200,0.383
71.5600,0.396
71.6000,0.341
71.6400,0.413
71.6800,0.401
71.7200,0.414
71.7600,0.383
71.8000,0.380
71.8400,0.435
71.8800,0.397
71.9200,0.358
71.9600,0.394
72.0000,0.321
72.0400,0.368
72.0800,0.467
72.1200,0.404
72.1600,0.358
72.2000,0.385
72.2400,0.373
72.2800,0.416
72.3200,0.381
72.3600,0.397
72.4000,0.396
72.4400,0.371
72.4800,0.358
72.5200,0.336
72.5600,0.412
72.6000,0.440
72.6400,0.439
72.6800,0.440
72.7200,0.403
72.7600,0.430
72.8000,0.453
72.8400,0.453
72.8800,0.404
72.9200,0.376
72.9600,0.406
73.0000,0.381
73.0400,0.385
73.0800,0.356
73.1200,0.359
73.1600,0.376
73.2000,0.376
73.2400,0.392
73.2800,0.414
73.3200,0.400
73.3600,0.366
73.4000,0.335
73.4400,0.377
73.4800,0.391
73.5200,0.379
73.5600,0.331
73.6000,0.377
73.6400,0.356
73.6800,0.373
73.7200,0.337
73.7600,0.360
73.8000,0.396
73.8400,0.380
73.8800,0.358
73.9200,0.300
73.9600,0.347
74.0000,0.386
74.0400,0.369
74.0800,0.376
74.1200,0.406
74.1600,0.342
74.2000,0.332
74.2400,0.340
74.2800,0.371
74.3200,0.367
74.3600,0.346
74.4000,0.362
74.4400,0.405
74.4800,0.356
74.5200,0.322
74.5600,0.353
74.6000,0.357
74.6400,0.371
74.6800,0.352
74.7200,0.337
74.7600,0.391
74.8000,0.366
74.8400,0.331
74.8800,0.320
74.9200,0.385
74.9600,0.336
75.0000,0.339
75.0400,0.317
75.0800,0.336
75.1200,0.360
75.1600,0.329
75.2000,0.367
75.2400,0.313
75.2800,0.388
75.3200,0.372
75.3600,0.315
75.4000,0.385
75.4400,0.396
75.4800,0.334
75.5200,0.322
75.5600,0.391
75.6000,0.310
75.6400,0.342
75.6800,0.424
75.7200,0.358
75.7600,0.386
75.8000,0.346
75.8400,0.350
75.8800,0.377
75.9200,0.337
75.9600,0.320
76.0000,0.294
76.0400,0.316
76.0800,0.347
76.1200,0.353
76.1600,0.327
76.2000,0.341
76.2400,0.376
76.2800,0.356
76.3200,0.324
76.3600,0.355
76.4000,0.363
76.4400,0.369
76.4800,0.357
76.5200,0.376
76.5600,0.368
76.6000,0.356
76.6400,0.348
76.6800,0.395
76.7200,0.392
76.7600,0.340
76.8000,0.349
76.8400,0.353
76.8800,0.327
76.9200,0.381
76.9600,0.404
77.0000,0.378
77.0400,0.362
77.0800,0.355
77.1200,0.318
77.1600,0.373
77.2000,0.363
77.2400,0.299
77.2800,0.329
77.3200,0.296
77.3600,0.349
77.4000,0.311
77.4400,0.335
77.4800,0.292
77.5200,0.347
77.5600,0.360
77.6000,0.351
77.6400,0.309
77.6800,0.336
77.7200,0.334
77.7600,0.360
77.8000,0.399
77.8400,0.314
77.8800,0.317
77.9200,0.350
77.9600,0.347
78.0000,0.299
78.0400,0.324
78.0800,0.315
78.1200,0.361
78.1600,0.322
78.2000,0.367
78.2400,0.302
78.2800,0.287
78.3200,0.313
78.3600,0.290
78.4000,0.298
78.4400,0.317
78.4800,0.304
78.5200,0.320
78.5600,0.286
78.6000,0.361
78.6400,0.363
78.6800,0.342
78.7200,0.311
78.7600,0.308
78.8000,0.363
78.8400,0.361
78.8800,0.406
78.9200,0.355
78.9600,0.341
79.0000,0.343
79.0400,0.375
79.0800,0.385
79.1200,0.370
79.1600,0.337
79.2000,0.377
79.2400,0.391
79.2800,0.390
79.3200,0.437
79.3600,0.389
79.4000,0.404
79.4400,0.395
79.4800,0.428
79.5200,0.467
79.5600,0.449
79.6000,0.501
79.6400,0.354
79.6800,0.405
79.7200,0.405
79.7600,0.444
79.8000,0.364
79.8400,0.395
79.8800,0.291
79.9200,0.309
79.9600,0.387
80.0000,0.381
