theta,intensity
5.0000,2.201
5.0400,2.115
5.0800,2.175
5.1200,2.094
5.1600,2.148
5.2000,2.081
5.2400,2.071
5.2800,2.128
5.3200,2.105
5.3600,2.070
5.4000,2.069
5.4400,2.048
5.4800,2.021
5.5200,2.025
5.5600,1.994
5.6000,2.041
5.6400,1.889
5.6800,1.978
5.7200,2.006
5.7600,1.933
5.8000,1.914
5.8400,1.889
5.8800,1.914
5.9200,1.909
5.9600,1.864
6.0000,1.840
6.0400,1.834
6.0800,1.864
6.1200,1.839
6.1600,1.788
6.2000,1.746
6.2400,1.766
6.2800,1.712
6.3200,1.684
6.3600,1.675
6.4000,1.728
6.4400,1.642
6.4800,1.669
6.5200,1.638
6.5600,1.638
6.6000,1.549
6.6400,1.626
6.6800,1.589
6.7200,1.551
6.7600,1.533
6.8000,1.546
6.8400,1.537
6.8800,1.484
6.9200,1.539
6.9600,1.526
7.0000,1.478
7.0400,1.456
7.0800,1.510
7.1200,1.559
7.1600,1.443
7.2000,1.483
7.2400,1.527
7.2800,1.468
7.3200,1.462
7.3600,1.419
7.4000,1.439
7.4400,1.446
7.4800,1.472
7.5200,1.457
7.5600,1.423
7.6000,1.427
7.6400,1.408
7.6800,1.452
7.7200,1.496
7.7600,1.473
7.8000,1.460
7.8400,1.459
7.8800,1.459
7.9200,1.432
7.9600,1.452
8.0000,1.439
8.0400,1.449
8.0800,1.417
8.1200,1.440
8.1600,1.376
8.2000,1.459
8.2400,1.474
8.2800,1.405
8.3200,1.436
8.3600,1.416
8.4000,1.409
8.4400,1.376
8.4800,1.425
8.5200,1.410
8.5600,1.432
8.6000,1.392
8.6400,1.432
8.6800,1.489
8.7200,1.407
8.7600,1.398
8.8000,1.436
8.8400,1.419
8.8800,1.446
8.9200,1.387
8.9600,1.389
9.0000,1.394
9.0400,1.444
9.0800,1.419
9.1200,1.388
9.1600,1.370
9.2000,1.392
9.2400,1.333
9.2800,1.357
9.3200,1.416
9.3600,1.424
9.4000,1.379
9.4400,1.401
9.4800,1.373
9.5200,1.388
9.5600,1.352
9.6000,1.399
9.6400,1.384
9.6800,1.415
9.7200,1.392
9.7600,1.426
9.8000,1.410
9.8400,1.402
9.8800,1.419
9.9200,1.409
9.9600,1.353
10.0000,1.386
10.0400,1.392
10.0800,1.376
10.1200,1.335
10.1600,1.367
10.2000,1.356
10.2400,1.358
10.2800,1.395
10.3200,1.386
10.3600,1.368
10.4000,1.362
10.4400,1.387
10.4800,1.378
10.5200,1.329
10.5600,1.371
10.6000,1.354
10.6400,1.345
10.6800,1.326
10.7200,1.348
10.7600,1.374
10.8000,1.376
10.8400,1.334
10.8800,1.329
10.9200,1.373
10.9600,1.368
11.0000,1.339
11.0400,1.355
11.0800,1.360
11.1200,1.317
11.1600,1.328
11.2000,1.351
11.2400,1.351
11.2800,1.334
11.3200,1.303
11.3600,1.294
11.4000,1.290
11.4400,1.305
11.4800,1.343
11.5200,1.282
11.5600,1.329
11.6000,1.341
11.6400,1.318
11.6800,1.331
11.7200,1.333
11.7600,1.341
11.8000,1.322
11.8400,1.308
11.8800,1.283
11.9200,1.285
11.9600,1.302
12.0000,1.338
12.0400,1.285
12.0800,1.269
12.1200,1.330
12.1600,1.279
12.2000,1.289
12.2400,1.301
12.2800,1.282
12.3200,1.265
12.3600,1.307
12.4000,1.253
12.4400,1.297
12.4800,1.329
12.5200,1.327
12.5600,1.268
12.6000,1.234
12.6400,1.310
12.6800,1.284
12.7200,1.293
12.7600,1.276
12.8000,1.314
12.8400,1.342
12.8800,1.298
12.9200,1.212
12.9600,1.270
13.0000,1.300
13.0400,1.296
13.0800,1.299
13.1200,1.291
13.1600,1.252
13.2000,1.252
13.2400,1.282
13.2800,1.242
13.3200,1.241
13.3600,1.259
13.4000,1.213
13.4400,1.218
13.4800,1.269
13.5200,1.350
13.5600,1.265
13.6000,1.248
13.6400,1.214
13.6800,1.252
13.7200,1.237
13.7600,1.242
13.8000,1.230
13.8400,1.213
13.8800,1.258
13.9200,1.208
13.9600,1.244
14.0000,1.256
14.0400,1.234
14.0800,1.253
14.1200,1.259
14.1600,1.238
14.2000,1.261
14.2400,1.235
14.2800,1.189
14.3200,1.190
14.3600,1.244
14.4000,1.231
14.4400,1.229
14.4800,1.270
14.5200,1.198
14.5600,1.225
14.6000,1.221
14.6400,1.220
14.6800,1.250
14.7200,1.236
14.7600,1.217
14.8000,1.208
14.8400,1.225
14.8800,1.256
14.9200,1.227
14.9600,1.250
15.0000,1.274
15.0400,1.252
15.0800,1.166
15.1200,1.220
15.1600,1.265
15.2000,1.204
15.2400,1.231
15.2800,1.190
15.3200,1.220
15.3600,1.225
15.4000,1.160
15.4400,1.192
15.4800,1.231
15.5200,1.203
15.5600,1.162
15.6000,1.194
15.6400,1.191
15.6800,1.216
15.7200,1.166
15.7600,1.182
15.8000,1.228
15.8400,1.220
15.8800,1.138
15.9200,1.215
15.9600,1.166
16.0000,1.164
16.0400,1.152
16.0800,1.125
16.1200,1.116
16.1600,1.215
16.2000,1.171
16.2400,1.169
16.2800,1.126
16.3200,1.159
16.3600,1.230
16.4000,1.146
16.4400,1.168
16.4800,1.180
16.5200,1.171
16.5600,1.208
16.6000,1.211
16.6400,1.094
16.6800,1.192
16.7200,1.165
16.7600,1.178
16.8000,1.142
16.8400,1.179
16.8800,1.159
16.9200,1.156
16.9600,1.166
17.0000,1.110
17.0400,1.156
17.0800,1.183
17.1200,1.125
17.1600,1.157
17.2000,1.175
17.2400,1.148
17.2800,1.154
17.3200,1.161
17.3600,1.112
17.4000,1.156
17.4400,1.144
17.4800,1.137
17.5200,1.141
17.5600,1.165
17.6000,1.050
17.6400,1.156
17.6800,1.137
17.7200,1.167
17.7600,1.152
17.8000,1.125
17.8400,1.127
17.8800,1.139
17.9200,1.101
17.9600,1.129
18.0000,1.165
18.0400,1.116
18.0800,1.136
18.1200,1.163
18.1600,1.118
18.2000,1.141
18.2400,1.130
18.2800,1.150
18.3200,1.162
18.3600,1.127
18.4000,1.125
18.4400,1.128
18.4800,1.115
18.5200,1.120
18.5600,1.123
18.6000,1.112
18.6400,1.155
18.6800,1.131
18.7200,1.116
18.7600,1.137
18.8000,1.126
18.8400,1.117
18.8800,1.091
18.9200,1.107
18.9600,1.099
19.0000,1.063
19.0400,1.172
19.0800,1.117
19.1200,1.136
19.1600,1.153
19.2000,1.123
19.2400,1.122
19.2800,1.112
19.3200,1.067
19.3600,1.083
19.4000,1.099
19.4400,1.094
19.4800,1.119
19.5200,1.095
19.5600,1.138
19.6000,1.103
19.6400,1.099
19.6800,1.099
19.7200,1.083
19.7600,1.092
19.8000,1.104
19.8400,1.076
19.8800,1.104
19.9200,1.122
19.9600,1.078
20.0000,1.091
20.0400,1.066
20.0800,1.081
20.1200,1.067
20.1600,1.055
20.2000,1.096
20.2400,1.095
20.2800,1.077
20.3200,1.085
20.3600,1.067
20.4000,1.035
20.4400,1.089
20.4800,1.042
20.5200,1.086
20.5600,1.071
20.6000,1.037
20.6400,1.099
20.6800,1.082
20.7200,1.093
20.7600,1.108
20.8000,1.064
20.8400,1.053
20.8800,1.076
20.9200,1.065
20.9600,1.047
21.0000,1.076
21.0400,1.030
21.0800,1.036
21.1200,1.045
21.1600,1.066
21.2000,1.056
21.2400,1.061
21.2800,0.999
21.3200,1.042
21.3600,1.016
21.4000,1.080
21.4400,1.085
21.4800,1.035
21.5200,1.047
21.5600,0.999
21.6000,1.035
21.6400,1.018
21.6800,1.042
21.7200,0.939
21.7600,1.003
21.8000,1.019
21.8400,1.033
21.8800,1.030
21.9200,0.999
21.9600,0.988
22.0000,1.004
22.0400,1.018
22.0800,1.002
22.1200,1.039
22.1600,0.985
22.2000,0.973
22.2400,1.015
22.2800,0.990
22.3200,0.990
22.3600,1.008
22.4000,0.975
22.4400,1.015
22.4800,1.010
22.5200,0.952
22.5600,1.008
22.6000,0.973
22.6400,0.966
22.6800,1.019
22.7200,0.994
22.7600,0.975
22.8000,0.955
22.8400,0.950
22.8800,0.965
22.9200,1.009
22.9600,0.942
23.0000,0.950
23.0400,0.955
23.0800,0.962
23.1200,0.918
23.1600,0.961
23.2000,0.946
23.2400,0.938
23.2800,0.937
23.3200,0.937
23.3600,0.919
23.4000,0.974
23.4400,0.961
23.4800,0.968
23.5200,0.952
23.5600,0.953
23.6000,0.968
23.6400,0.963
23.6800,0.888
23.7200,0.918
23.7600,0.929
23.8000,0.904
23.8400,0.935
23.8800,0.925
23.9200,0.931
23.9600,0.927
24.0000,0.927
24.0400,0.904
24.0800,0.892
24.1200,0.930
24.1600,0.908
24.2000,0.929
24.2400,0.964
24.2800,0.943
24.3200,0.883
24.3600,0.916
24.4000,0.905
24.4400,0.897
24.4800,0.863
24.5200,0.876
24.5600,0.879
24.6000,0.915
24.6400,0.944
24.6800,0.864
24.7200,0.864
24.7600,0.942
24.8000,0.924
24.8400,0.896
24.8800,0.906
24.9200,0.867
24.9600,0.863
25.0000,0.870
25.0400,0.899
25.0800,0.836
25.1200,0.873
25.1600,0.850
25.2000,0.916
25.2400,0.893
25.2800,0.858
25.3200,0.892
25.3600,0.874
25.4000,0.868
25.4400,0.850
25.4800,0.866
25.5200,0.873
25.5600,0.871
25.6000,0.874
25.6400,0.839
25.6800,0.864
25.7200,0.846
25.7600,0.828
25.8000,0.835
25.8400,0.851
25.8800,0.844
25.9200,0.827
25.9600,0.775
26.0000,0.842
26.0400,0.826
26.0800,0.822
26.1200,0.848
26.1600,0.831
26.2000,0.816
26.2400,0.803
26.2800,0.778
26.3200,0.774
26.3600,0.777
26.4000,0.823
26.4400,0.828
26.4800,0.779
26.5200,0.811
26.5600,0.786
26.6000,0.812
26.6400,0.811
26.6800,0.771
26.7200,0.767
26.7600,0.774
26.8000,0.762
26.8400,0.800
26.8800,0.722
26.9200,0.784
26.9600,0.784
27.0000,0.789
27.0400,0.795
27.0800,0.761
27.1200,0.744
27.1600,0.798
27.2000,0.752
27.2400,0.773
27.2800,0.746
27.3200,0.760
27.3600,0.763
27.4000,0.739
27.4400,0.752
27.4800,0.761
27.5200,0.751
27.5600,0.736
27.6000,0.734
27.6400,0.733
27.6800,0.739
27.7200,0.757
27.7600,0.712
27.8000,0.713
27.8400,0.725
27.8800,0.709
27.9200,0.715
27.9600,0.719
28.0000,0.759
28.0400,0.741
28.0800,0.719
28.1200,0.744
28.1600,0.729
28.2000,0.719
28.2400,0.709
28.2800,0.724
28.3200,0.731
28.3600,0.718
28.4000,0.713
28.4400,0.686
28.4800,0.695
28.5200,0.666
28.5600,0.669
28.6000,0.687
28.6400,0.699
28.6800,0.708
28.7200,0.660
28.7600,0.685
28.8000,0.690
28.8400,0.687
28.8800,0.701
28.9200,0.711
28.9600,0.660
29.0000,0.699
29.0400,0.675
29.0800,0.668
29.1200,0.665
29.1600,0.659
29.2000,0.683
29.2400,0.650
29.2800,0.640
29.3200,0.669
29.3600,0.675
29.4000,0.679
29.4400,0.661
29.4800,0.693
29.5200,0.667
29.5600,0.685
29.6000,0.673
29.6400,0.681
29.6800,0.627
29.7200,0.647
29.7600,0.649
29.8000,0.658
29.8400,0.677
29.8800,0.654
29.9200,0.646
29.9600,0.684
30.0000,0.683
30.0400,0.666
30.0800,0.651
30.1200,0.636
30.1600,0.644
30.2000,0.671
30.2400,0.613
30.2800,0.600
30.3200,0.629
30.3600,0.642
30.4000,0.680
30.4400,0.634
30.4800,0.632
30.5200,0.649
30.5600,0.644
30.6000,0.615
30.6400,0.587
30.6800,0.675
30.7200,0.605
30.7600,0.616
30.8000,0.592
30.8400,0.666
30.8800,0.616
30.9200,0.586
30.9600,0.647
31.0000,0.644
31.0400,0.621
31.0800,0.640
31.1200,0.617
31.1600,0.673
31.2000,0.593
31.2400,0.618
31.2800,0.619
31.3200,0.606
31.3600,0.592
31.4000,0.559
31.4400,0.613
31.4800,0.615
31.5200,0.609
31.5600,0.579
31.6000,0.569
31.6400,0.601
31.6800,0.594
31.7200,0.614
31.7600,0.572
31.8000,0.563
31.8400,0.557
31.8800,0.556
31.9200,0.589
31.9600,0.608
32.0000,0.591
32.0400,0.598
32.0800,0.617
32.1200,0.590
32.1600,0.578
32.2000,0.584
32.2400,0.584
32.2800,0.610
32.3200,0.584
32.3600,0.546
32.4000,0.592
32.4400,0.606
32.4800,0.572
32.5200,0.532
32.5600,0.611
32.6000,0.573
32.6400,0.566
32.6800,0.557
32.7200,0.551
32.7600,0.582
32.8000,0.538
32.8400,0.572
32.8800,0.542
32.9200,0.566
32.9600,0.594
33.0000,0.544
33.0400,0.534
33.0800,0.547
33.1200,0.560
33.1600,0.571
33.2000,0.562
33.2400,0.541
33.2800,0.580
33.3200,0.503
33.3600,0.531
33.4000,0.529
33.4400,0.571
33.4800,0.533
33.5200,0.533
33.5600,0.532
33.6000,0.540
33.6400,0.556
33.6800,0.547
33.7200,0.557
33.7600,0.551
33.8000,0.505
33.8400,0.510
33.8800,0.527
33.9200,0.510
33.9600,0.527
34.0000,0.510
34.0400,0.521
34.0800,0.522
34.1200,0.547
34.1600,0.545
34.2000,0.544
34.2400,0.563
34.2800,0.537
34.3200,0.570
34.3600,0.546
34.4000,0.552
34.4400,0.572
34.4800,0.524
34.5200,0.528
34.5600,0.523
34.6000,0.543
34.6400,0.520
34.6800,0.522
34.7200,0.531
34.7600,0.539
34.8000,0.529
34.8400,0.544
34.8800,0.543
34.9200,0.535
34.9600,0.522
35.0000,0.524
35.0400,0.549
35.0800,0.515
35.1200,0.505
35.1600,0.497
35.2000,0.500
35.2400,0.535
35.2800,0.524
35.3200,0.531
35.3600,0.520
35.4000,0.539
35.4400,0.524
35.4800,0.511
35.5200,0.505
35.5600,0.528
35.6000,0.529
35.6400,0.515
35.6800,0.517
35.7200,0.498
35.7600,0.523
35.8000,0.511
35.8400,0.521
35.8800,0.526
35.9200,0.496
35.9600,0.536
36.0000,0.509
36.0400,0.503
36.0800,0.517
36.1200,0.524
36.1600,0.482
36.2000,0.526
36.2400,0.518
36.2800,0.516
36.3200,0.512
36.3600,0.521
36.4000,0.537
36.4400,0.511
36.4800,0.480
36.5200,0.498
36.5600,0.531
36.6000,0.548
36.6400,0.530
36.6800,0.521
36.7200,0.520
36.7600,0.503
36.8000,0.539
36.8400,0.558
36.8800,0.517
36.9200,0.527
36.9600,0.588
37.0000,0.573
37.0400,0.570
37.0800,0.559
37.1200,0.554
37.1600,0.558
37.2000,0.560
37.2400,0.550
37.2800,0.568
37.3200,0.552
37.3600,0.535
37.4000,0.543
37.4400,0.567
37.4800,0.578
37.5200,0.546
37.5600,0.619
37.6000,0.592
37.6400,0.626
37.6800,0.621
37.7200,0.621
37.7600,0.632
37.8000,0.648
37.8400,0.662
37.8800,0.669
37.9200,0.655
37.9600,0.693
38.0000,0.695
38.0400,0.759
38.0800,0.791
38.1200,0.869
38.1600,0.865
38.2000,0.848
38.2400,0.904
38.2800,0.922
38.3200,0.942
38.3600,1.007
38.4000,1.073
38.4400,1.151
38.4800,1.246
38.5200,1.293
38.5600,1.530
38.6000,1.649
38.6400,1.800
38.6800,2.072
38.7200,2.359
38.7600,2.734
38.8000,3.162
38.8400,3.837
38.8800,4.543
38.9200,5.437
38.9600,6.233
39.0000,7.357
39.0400,8.461
39.0800,9.186
39.1200,9.594
39.1600,9.688
39.2000,9.299
39.2400,8.659
39.2800,7.749
39.3200,6.687
39.3600,5.765
39.4000,4.913
39.4400,4.132
39.4800,3.570
39.5200,3.084
39.5600,2.775
39.6000,2.399
39.6400,2.154
39.6800,1.980
39.7200,1.819
39.7600,1.665
39.8000,1.550
39.8400,1.451
39.8800,1.283
39.9200,1.272
39.9600,1.207
40.0000,1.097
40.0400,1.076
40.0800,1.024
40.1200,0.969
40.1600,0.882
40.2000,0.844
40.2400,0.787
40.2800,0.776
40.3200,0.748
40.3600,0.722
40.4000,0.712
40.4400,0.661
40.4800,0.650
40.5200,0.637
40.5600,0.627
40.6000,0.646
40.6400,0.654
40.6800,0.611
40.7200,0.610
40.7600,0.609
40.8000,0.604
40.8400,0.571
40.8800,0.541
40.9200,0.540
40.9600,0.530
41.0000,0.531
41.0400,0.532
41.0800,0.547
41.1200,0.498
41.1600,0.514
41.2000,0.499
41.2400,0.506
41.2800,0.486
41.3200,0.505
41.3600,0.475
41.4000,0.511
41.4400,0.478
41.4800,0.487
41.5200,0.469
41.5600,0.473
41.6000,0.460
41.6400,0.457
41.6800,0.480
41.7200,0.482
41.7600,0.453
41.8000,0.473
41.8400,0.460
41.8800,0.426
41.9200,0.453
41.9600,0.464
42.0000,0.452
42.0400,0.452
42.0800,0.457
42.1200,0.444
42.1600,0.429
42.2000,0.419
42.2400,0.467
42.2800,0.439
42.3200,0.453
42.3600,0.435
42.4000,0.445
42.4400,0.430
42.4800,0.455
42.5200,0.429
42.5600,0.437
42.6000,0.454
42.6400,0.442
42.6800,0.446
42.7200,0.441
42.7600,0.444
42.8000,0.441
42.8400,0.430
42.8800,0.449
42.9200,0.436
42.9600,0.466
43.0000,0.457
43.0400,0.444
43.0800,0.451
43.1200,0.424
43.1600,0.477
43.2000,0.469
43.2400,0.448
43.2800,0.463
43.3200,0.449
43.3600,0.479
43.4000,0.476
43.4400,0.437
43.4800,0.467
43.5200,0.456
43.5600,0.465
43.6000,0.454
43.6400,0.463
43.6800,0.472
43.7200,0.478
43.7600,0.483
43.8000,0.480
43.8400,0.482
43.8800,0.488
43.9200,0.490
43.9600,0.478
44.0000,0.522
44.0400,0.544
44.0800,0.488
44.1200,0.528
44.1600,0.509
44.2000,0.562
44.2400,0.565
44.2800,0.584
44.3200,0.619
44.3600,0.585
44.4000,0.608
44.4400,0.618
44.4800,0.640
44.5200,0.655
44.5600,0.700
44.6000,0.705
44.6400,0.718
44.6800,0.768
44.7200,0.773
44.7600,0.776
44.8000,0.902
44.8400,0.902
44.8800,0.981
44.9200,1.045
44.9600,1.181
45.0000,1.230
45.0400,1.362
45.0800,1.465
45.1200,1.688
45.1600,1.784
45.2000,2.022
45.2400,2.119
45.2800,2.394
45.3200,2.622
45.3600,2.861
45.4000,3.001
45.4400,3.092
45.4800,3.202
45.5200,3.230
45.5600,3.086
45.6000,3.066
45.6400,2.822
45.6800,2.529
45.7200,2.313
45.7600,2.197
45.8000,2.001
45.8400,1.809
45.8800,1.634
45.9200,1.515
45.9600,1.332
46.0000,1.243
46.0400,1.078
46.0800,1.043
46.1200,0.977
46.1600,0.910
46.2000,0.838
46.2400,0.849
46.2800,0.773
46.3200,0.748
46.3600,0.629
46.4000,0.664
46.4400,0.631
46.4800,0.602
46.5200,0.600
46.5600,0.547
46.6000,0.534
46.6400,0.537
46.6800,0.524
46.7200,0.476
46.7600,0.497
46.8000,0.513
46.8400,0.465
46.8800,0.448
46.9200,0.425
46.9600,0.413
47.0000,0.413
47.0400,0.408
47.0800,0.394
47.1200,0.376
47.1600,0.374
47.2000,0.376
47.2400,0.358
47.2800,0.359
47.3200,0.370
47.3600,0.363
47.4000,0.359
47.4400,0.330
47.4800,0.353
47.5200,0.331
47.5600,0.341
47.6000,0.335
47.6400,0.331
47.6800,0.326
47.7200,0.333
47.7600,0.334
47.8000,0.322
47.8400,0.345
47.8800,0.339
47.9200,0.308
47.9600,0.299
48.0000,0.324
48.0400,0.316
48.0800,0.319
48.1200,0.313
48.1600,0.309
48.2000,0.322
48.2400,0.313
48.2800,0.303
48.3200,0.318
48.3600,0.319
48.4000,0.310
48.4400,0.288
48.4800,0.302
48.5200,0.295
48.5600,0.310
48.6000,0.297
48.6400,0.293
48.6800,0.318
48.7200,0.313
48.7600,0.276
48.8000,0.304
48.8400,0.286
48.8800,0.298
48.9200,0.292
48.9600,0.313
49.0000,0.265
49.0400,0.281
49.0800,0.294
49.1200,0.296
49.1600,0.283
49.2000,0.277
49.2400,0.298
49.2800,0.274
49.3200,0.277
49.3600,0.271
49.4000,0.269
49.4400,0.283
49.4800,0.286
49.5200,0.301
49.5600,0.289
49.6000,0.280
49.6400,0.284
49.6800,0.282
49.7200,0.296
49.7600,0.265
49.8000,0.260
49.8400,0.283
49.8800,0.269
49.9200,0.272
49.9600,0.270
50.0000,0.275
50.0400,0.262
50.0800,0.247
50.1200,0.263
50.1600,0.251
50.2000,0.262
50.2400,0.242
50.2800,0.305
50.3200,0.264
50.3600,0.272
50.4000,0.261
50.4400,0.265
50.4800,0.270
50.5200,0.245
50.5600,0.249
50.6000,0.253
50.6400,0.294
50.6800,0.252
50.7200,0.237
50.7600,0.263
50.8000,0.252
50.8400,0.257
50.8800,0.256
50.9200,0.263
50.9600,0.267
51.0000,0.263
51.0400,0.252
51.0800,0.254
51.1200,0.252
51.1600,0.256
51.2000,0.258
51.2400,0.242
51.2800,0.249
51.3200,0.263
51.3600,0.239
51.4000,0.271
51.4400,0.265
51.4800,0.222
51.5200,0.263
51.5600,0.266
51.6000,0.244
51.6400,0.251
51.6800,0.244
51.7200,0.248
51.7600,0.248
51.8000,0.257
51.8400,0.255
51.8800,0.247
51.9200,0.251
51.9600,0.266
52.0000,0.243
52.0400,0.258
52.0800,0.239
52.1200,0.244
52.1600,0.247
52.2000,0.253
52.2400,0.254
52.2800,0.238
52.3200,0.240
52.3600,0.256
52.4000,0.260
52.4400,0.231
52.4800,0.256
52.5200,0.248
52.5600,0.247
52.6000,0.220
52.6400,0.225
52.6800,0.239
52.7200,0.229
52.7600,0.245
52.8000,0.233
52.8400,0.237
52.8800,0.235
52.9200,0.221
52.9600,0.217
53.0000,0.233
53.0400,0.243
53.0800,0.225
53.1200,0.222
53.1600,0.224
53.2000,0.238
53.2400,0.235
53.2800,0.249
53.3200,0.249
53.3600,0.275
53.4000,0.232
53.4400,0.242
53.4800,0.232
53.5200,0.237
53.5600,0.229
53.6000,0.250
53.6400,0.243
53.6800,0.229
53.7200,0.245
53.7600,0.235
53.8000,0.245
53.8400,0.238
53.8800,0.236
53.9200,0.211
53.9600,0.230
54.0000,0.231
54.0400,0.220
54.0800,0.240
54.1200,0.223
54.1600,0.233
54.2000,0.234
54.2400,0.220
54.2800,0.219
54.3200,0.224
54.3600,0.221
54.4000,0.233
54.4400,0.229
54.4800,0.234
54.5200,0.203
54.5600,0.212
54.6000,0.216
54.6400,0.209
54.6800,0.223
54.7200,0.225
54.7600,0.242
54.8000,0.237
54.8400,0.228
54.8800,0.219
54.9200,0.229
54.9600,0.229
55.0000,0.220
55.0400,0.216
55.0800,0.191
55.1200,0.222
55.1600,0.220
55.2000,0.219
55.2400,0.207
55.2800,0.206
55.3200,0.206
55.3600,0.214
55.4000,0.225
55.4400,0.220
55.4800,0.196
55.5200,0.225
55.5600,0.205
55.6000,0.198
55.6400,0.224
55.6800,0.206
55.7200,0.236
55.7600,0.214
55.8000,0.220
55.8400,0.226
55.8800,0.212
55.9200,0.208
55.9600,0.215
56.0000,0.215
56.0400,0.215
56.0800,0.212
56.1200,0.215
56.1600,0.219
56.2000,0.206
56.2400,0.211
56.2800,0.213
56.3200,0.216
56.3600,0.219
56.4000,0.208
56.4400,0.205
56.4800,0.221
56.5200,0.198
56.5600,0.215
56.6000,0.187
56.6400,0.194
56.6800,0.199
56.7200,0.231
56.7600,0.200
56.8000,0.220
56.8400,0.224
56.8800,0.226
56.9200,0.211
56.9600,0.219
57.0000,0.225
57.0400,0.219
57.0800,0.189
57.1200,0.197
57.1600,0.208
57.2000,0.201
57.2400,0.227
57.2800,0.210
57.3200,0.205
57.3600,0.218
57.4000,0.216
57.4400,0.226
57.4800,0.232
57.5200,0.217
57.5600,0.205
57.6000,0.216
57.6400,0.202
57.6800,0.203
57.7200,0.200
57.7600,0.201
57.8000,0.211
57.8400,0.208
57.8800,0.204
57.9200,0.224
57.9600,0.214
58.0000,0.214
58.0400,0.202
58.0800,0.212
58.1200,0.190
58.1600,0.214
58.2000,0.182
58.2400,0.211
58.2800,0.203
58.3200,0.188
58.3600,0.187
58.4000,0.200
58.4400,0.207
58.4800,0.211
58.5200,0.221
58.5600,0.213
58.6000,0.197
58.6400,0.179
58.6800,0.178
58.7200,0.206
58.7600,0.192
58.8000,0.201
58.8400,0.202
58.8800,0.201
58.9200,0.213
58.9600,0.212
59.0000,0.187
59.0400,0.200
59.0800,0.200
59.1200,0.194
59.1600,0.209
59.2000,0.217
59.2400,0.199
59.2800,0.181
59.3200,0.198
59.3600,0.212
59.4000,0.202
59.4400,0.210
59.4800,0.214
59.5200,0.189
59.5600,0.206
59.6000,0.203
59.6400,0.213
59.6800,0.211
59.7200,0.200
59.7600,0.208
59.8000,0.205
59.8400,0.219
59.8800,0.194
59.9200,0.198
59.9600,0.210
60.0000,0.203
60.0400,0.209
60.0800,0.177
60.1200,0.201
60.1600,0.214
60.2000,0.204
60.2400,0.202
60.2800,0.189
60.3200,0.209
60.3600,0.204
60.4000,0.201
60.4400,0.215
60.4800,0.206
60.5200,0.197
60.5600,0.195
60.6000,0.201
60.6400,0.202
60.6800,0.187
60.7200,0.192
60.7600,0.195
60.8000,0.197
60.8400,0.200
60.8800,0.175
60.9200,0.207
60.9600,0.198
61.0000,0.194
61.0400,0.211
61.0800,0.195
61.1200,0.193
61.1600,0.211
61.2000,0.194
61.2400,0.206
61.2800,0.203
61.3200,0.185
61.3600,0.209
61.4000,0.203
61.4400,0.224
61.4800,0.183
61.5200,0.188
61.5600,0.195
61.6000,0.198
61.6400,0.212
61.6800,0.210
61.7200,0.220
61.7600,0.226
61.8000,0.213
61.8400,0.198
61.8800,0.203
61.9200,0.219
61.9600,0.197
62.0000,0.188
62.0400,0.196
62.0800,0.197
62.1200,0.201
62.1600,0.196
62.2000,0.222
62.2400,0.201
62.2800,0.209
62.3200,0.200
62.3600,0.206
62.4000,0.207
62.4400,0.204
62.4800,0.193
62.5200,0.208
62.5600,0.192
62.6000,0.219
62.6400,0.195
62.6800,0.210
62.7200,0.204
62.7600,0.228
62.8000,0.190
62.8400,0.213
62.8800,0.205
62.9200,0.215
62.9600,0.205
63.0000,0.226
63.0400,0.194
63.0800,0.206
63.1200,0.218
63.1600,0.223
63.2000,0.222
63.2400,0.218
63.2800,0.211
63.3200,0.224
63.3600,0.211
63.4000,0.223
63.4400,0.195
63.4800,0.229
63.5200,0.214
63.5600,0.225
63.6000,0.224
63.6400,0.196
63.6800,0.226
63.7200,0.227
63.7600,0.232
63.8000,0.210
63.8400,0.226
63.8800,0.204
63.9200,0.232
63.9600,0.224
64.0000,0.235
64.0400,0.250
64.0800,0.240
64.1200,0.235
64.1600,0.220
64.2000,0.236
64.2400,0.248
64.2800,0.242
64.3200,0.249
64.3600,0.266
64.4000,0.285
64.4400,0.256
64.4800,0.259
64.5200,0.269
64.5600,0.250
64.6000,0.239
64.6400,0.264
64.6800,0.256
64.7200,0.253
64.7600,0.284
64.8000,0.283
64.8400,0.286
64.8800,0.284
64.9200,0.308
64.9600,0.284
65.0000,0.298
65.0400,0.325
65.0800,0.300
65.1200,0.311
65.1600,0.324
65.2000,0.326
65.2400,0.351
65.2800,0.353
65.3200,0.359
65.3600,0.371
65.4000,0.394
65.4400,0.419
65.4800,0.445
65.5200,0.438
65.5600,0.436
65.6000,0.472
65.6400,0.547
65.6800,0.532
65.7200,0.603
65.7600,0.625
65.8000,0.691
65.8400,0.699
65.8800,0.812
65.9200,0.818
65.9600,0.944
66.0000,0.996
66.0400,1.099
66.0800,1.179
66.1200,1.249
66.1600,1.349
66.2000,1.431
66.2400,1.479
66.2800,1.545
66.3200,1.529
66.3600,1.527
66.4000,1.552
66.4400,1.515
66.4800,1.492
66.5200,1.314
66.5600,1.301
66.6000,1.178
66.6400,1.079
66.6800,1.039
66.7200,0.969
66.7600,0.885
66.8000,0.821
66.8400,0.773
66.8800,0.743
66.9200,0.685
66.9600,0.662
67.0000,0.611
67.0400,0.596
67.0800,0.573
67.1200,0.548
67.1600,0.565
67.2000,0.567
67.2400,0.508
67.2800,0.497
67.3200,0.497
67.3600,0.501
67.4000,0.500
67.4400,0.493
67.4800,0.487
67.5200,0.488
67.5600,0.475
67.6000,0.492
67.6400,0.513
67.6800,0.489
67.7200,0.474
67.7600,0.451
67.8000,0.474
67.8400,0.423
67.8800,0.473
67.9200,0.497
67.9600,0.502
68.0000,0.521
68.0400,0.502
68.0800,0.507
68.1200,0.518
68.1600,0.509
68.2000,0.474
68.2400,0.479
68.2800,0.547
68.3200,0.540
68.3600,0.539
68.4000,0.573
68.4400,0.593
68.4800,0.631
68.5200,0.597
68.5600,0.678
68.6000,0.703
68.6400,0.738
68.6800,0.867
68.7200,0.997
68.7600,1.243
68.8000,1.372
68.8400,1.598
68.8800,1.739
68.9200,1.926
68.9600,2.569
69.0000,4.132
69.0400,9.295
69.0800,28.234
69.1200,59.479
69.1600,72.715
69.2000,61.761
69.2400,30.928
69.2800,21.788
69.3200,33.509
69.3600,39.146
69.4000,31.809
69.4400,14.146
69.4800,4.718
69.5200,2.595
69.5600,1.852
69.6000,1.444
69.6400,1.244
69.6800,1.093
69.7200,0.941
69.7600,0.879
69.8000,0.809
69.8400,0.739
69.8800,0.704
69.9200,0.642
69.9600,0.613
70.0000,0.632
70.0400,0.601
70.0800,0.568
70.1200,0.559
70.1600,0.533
70.2000,0.522
70.2400,0.526
70.2800,0.511
70.3200,0.507
70.3600,0.474
70.4000,0.475
70.4400,0.469
70.4800,0.471
70.5200,0.453
70.5600,0.413
70.6000,0.421
70.6400,0.414
70.6800,0.413
70.7200,0.371
70.7600,0.384
70.8000,0.366
70.8400,0.408
70.8800,0.371
70.9200,0.422
70.9600,0.364
71.0000,0.369
71.0400,0.360
71.0800,0.341
71.1200,0.373
71.1600,0.341
71.2000,0.356
71.2400,0.339
71.2800,0.320
71.3200,0.310
71.3600,0.337
71.4000,0.309
71.4400,0.323
71.4800,0.311
71.5200,0.324
71.5600,0.301
71.6000,0.320
71.6400,0.301
71.6800,0.290
71.7200,0.285
71.7600,0.259
71.8000,0.252
71.8400,0.285
71.8800,0.280
71.9200,0.284
71.9600,0.251
72.0000,0.253
72.0400,0.254
72.0800,0.274
72.1200,0.255
72.1600,0.253
72.2000,0.247
72.2400,0.244
72.2800,0.252
72.3200,0.253
72.3600,0.237
72.4000,0.210
72.4400,0.229
72.4800,0.234
72.5200,0.246
72.5600,0.237
72.6000,0.247
72.6400,0.245
72.6800,0.221
72.7200,0.223
72.7600,0.224
72.8000,0.217
72.8400,0.226
72.8800,0.217
72.9200,0.234
72.9600,0.229
73.0000,0.219
73.0400,0.228
73.0800,0.235
73.1200,0.201
73.1600,0.203
73.2000,0.213
73.2400,0.208
73.2800,0.215
73.3200,0.214
73.3600,0.213
73.4000,0.215
73.4400,0.208
73.4800,0.206
73.5200,0.221
73.5600,0.219
73.6000,0.203
73.6400,0.203
73.6800,0.206
73.7200,0.206
73.7600,0.199
73.8000,0.211
73.8400,0.199
73.8800,0.184
73.9200,0.208
73.9600,0.196
74.0000,0.198
74.0400,0.186
74.0800,0.205
74.1200,0.182
74.1600,0.211
74.2000,0.185
74.2400,0.204
74.2800,0.205
74.3200,0.217
74.3600,0.184
74.4000,0.199
74.4400,0.191
74.4800,0.179
74.5200,0.182
74.5600,0.191
74.6000,0.180
74.6400,0.180
74.6800,0.219
74.7200,0.205
74.7600,0.208
74.8000,0.215
74.8400,0.197
74.8800,0.199
74.9200,0.173
74.9600,0.162
75.0000,0.194
75.0400,0.202
75.0800,0.186
75.1200,0.193
75.1600,0.204
75.2000,0.179
75.2400,0.184
75.2800,0.190
75.3200,0.186
75.3600,0.212
75.4000,0.175
75.4400,0.194
75.4800,0.190
75.5200,0.188
75.5600,0.178
75.6000,0.167
75.6400,0.172
75.6800,0.189
75.7200,0.191
75.7600,0.179
75.8000,0.186
75.8400,0.178
75.8800,0.175
75.9200,0.175
75.9600,0.198
76.0000,0.179
76.0400,0.194
76.0800,0.188
76.1200,0.176
76.1600,0.200
76.2000,0.192
76.2400,0.188
76.2800,0.174
76.3200,0.190
76.3600,0.197
76.4000,0.162
76.4400,0.200
76.4800,0.192
76.5200,0.187
76.5600,0.191
76.6000,0.183
76.6400,0.175
76.6800,0.144
76.7200,0.178
76.7600,0.187
76.8000,0.189
76.8400,0.165
76.8800,0.165
76.9200,0.185
76.9600,0.183
77.0000,0.189
77.0400,0.195
77.0800,0.200
77.1200,0.176
77.1600,0.200
77.2000,0.174
77.2400,0.165
77.2800,0.222
77.3200,0.189
77.3600,0.205
77.4000,0.223
77.4400,0.200
77.4800,0.198
77.5200,0.199
77.5600,0.215
77.6000,0.215
77.6400,0.203
77.6800,0.194
77.7200,0.202
77.7600,0.205
77.8000,0.217
77.8400,0.203
77.8800,0.208
77.9200,0.227
77.9600,0.216
78.0000,0.198
78.0400,0.216
78.0800,0.210
78.1200,0.215
78.1600,0.229
78.2000,0.211
78.2400,0.223
78.2800,0.215
78.3200,0.248
78.3600,0.234
78.4000,0.253
78.4400,0.257
78.4800,0.264
78.5200,0.300
78.5600,0.280
78.6000,0.297
78.6400,0.302
78.6800,0.288
78.7200,0.294
78.7600,0.295
78.8000,0.317
78.8400,0.375
78.8800,0.360
78.9200,0.401
78.9600,0.399
79.0000,0.423
79.0400,0.467
79.0800,0.460
79.1200,0.489
79.1600,0.535
79.2000,0.562
79.2400,0.588
79.2800,0.656
79.3200,0.704
79.3600,0.733
79.4000,0.817
79.4400,0.875
79.4800,0.913
79.5200,0.956
79.5600,1.074
79.6000,1.080
79.6400,1.167
79.6800,1.192
79.7200,1.214
79.7600,1.274
79.8000,1.267
79.8400,1.221
79.8800,1.258
79.9200,1.186
79.9600,1.164
80.0000,1.120
