theta,intensity
5.0000,2.366
5.0400,2.389
5.0800,2.515
5.1200,2.350
5.1600,2.500
5.2000,2.460
5.2400,2.485
5.2800,2.434
5.3200,2.438
5.3600,2.388
5.4000,2.380
5.4400,2.412
5.4800,2.426
5.5200,2.365
5.5600,2.349
5.6000,2.255
5.6400,2.208
5.6800,2.278
5.7200,2.361
5.7600,2.261
5.8000,2.269
5.8400,2.251
5.8800,2.233
5.9200,2.227
5.9600,2.196
6.0000,2.243
6.0400,2.144
6.0800,2.167
6.1200,2.166
6.1600,2.061
6.2000,2.107
6.2400,2.100
6.2800,2.046
6.3200,2.031
6.3600,1.976
6.4000,2.061
6.4400,1.998
6.4800,1.983
6.5200,1.926
6.5600,1.888
6.6000,1.936
6.6400,1.870
6.6800,1.824
6.7200,1.890
6.7600,1.843
6.8000,1.812
6.8400,1.787
6.8800,1.739
6.9200,1.728
6.9600,1.721
7.0000,1.690
7.0400,1.684
7.0800,1.689
7.1200,1.705
7.1600,1.583
7.2000,1.592
7.2400,1.633
7.2800,1.627
7.3200,1.581
7.3600,1.564
7.4000,1.651
7.4400,1.539
7.4800,1.528
7.5200,1.502
7.5600,1.550
7.6000,1.480
7.6400,1.514
7.6800,1.467
7.7200,1.492
7.7600,1.440
7.8000,1.488
7.8400,1.463
7.8800,1.435
7.9200,1.455
7.9600,1.474
8.0000,1.455
8.0400,1.458
8.0800,1.506
8.1200,1.495
8.1600,1.419
8.2000,1.459
8.2400,1.420
8.2800,1.400
8.3200,1.393
8.3600,1.416
8.4000,1.373
8.4400,1.429
8.4800,1.406
8.5200,1.437
8.5600,1.412
8.6000,1.432
8.6400,1.435
8.6800,1.380
8.7200,1.396
8.7600,1.383
8.8000,1.394
8.8400,1.419
8.8800,1.452
8.9200,1.400
8.9600,1.426
9.0000,1.385
9.0400,1.387
9.0800,1.384
9.1200,1.362
9.1600,1.420
9.2000,1.367
9.2400,1.403
9.2800,1.394
9.3200,1.448
9.3600,1.400
9.4000,1.374
9.4400,1.380
9.4800,1.371
9.5200,1.369
9.5600,1.391
9.6000,1.423
9.6400,1.391
9.6800,1.355
9.7200,1.367
9.7600,1.361
9.8000,1.338
9.8400,1.344
9.8800,1.377
9.9200,1.381
9.9600,1.344
10.0000,1.383
10.0400,1.369
10.0800,1.349
10.1200,1.374
10.1600,1.335
10.2000,1.311
10.2400,1.354
10.2800,1.354
10.3200,1.356
10.3600,1.314
10.4000,1.360
10.4400,1.397
10.4800,1.377
10.5200,1.310
10.5600,1.312
10.6000,1.315
10.6400,1.285
10.6800,1.352
10.7200,1.322
10.7600,1.294
10.8000,1.346
10.8400,1.351
10.8800,1.362
10.9200,1.362
10.9600,1.341
11.0000,1.375
11.0400,1.372
11.0800,1.354
11.1200,1.328
11.1600,1.312
11.2000,1.346
11.2400,1.315
11.2800,1.343
11.3200,1.354
11.3600,1.259
11.4000,1.323
11.4400,1.280
11.4800,1.286
11.5200,1.366
11.5600,1.256
11.6000,1.347
11.6400,1.331
11.6800,1.245
11.7200,1.345
11.7600,1.316
11.8000,1.286
11.8400,1.319
11.8800,1.336
11.9200,1.343
11.9600,1.371
12.0000,1.263
12.0400,1.254
12.0800,1.267
12.1200,1.322
12.1600,1.280
12.2000,1.267
12.2400,1.263
12.2800,1.296
12.3200,1.271
12.3600,1.280
12.4000,1.259
12.4400,1.267
12.4800,1.271
12.5200,1.211
12.5600,1.294
12.6000,1.223
12.6400,1.256
12.6800,1.236
12.7200,1.260
12.7600,1.289
12.8000,1.274
12.8400,1.191
12.8800,1.272
12.9200,1.277
12.9600,1.276
13.0000,1.279
13.0400,1.248
13.0800,1.232
13.1200,1.260
13.1600,1.251
13.2000,1.243
13.2400,1.256
13.2800,1.258
13.3200,1.216
13.3600,1.223
13.4000,1.262
13.4400,1.295
13.4800,1.242
13.5200,1.194
13.5600,1.241
13.6000,1.227
13.6400,1.258
13.6800,1.254
13.7200,1.267
13.7600,1.250
13.8000,1.260
13.8400,1.227
13.8800,1.215
13.9200,1.222
13.9600,1.172
14.0000,1.219
14.0400,1.246
14.0800,1.277
14.1200,1.244
14.1600,1.208
14.2000,1.229
14.2400,1.243
14.2800,1.217
14.3200,1.201
14.3600,1.214
14.4000,1.200
14.4400,1.210
14.4800,1.214
14.5200,1.183
14.5600,1.240
14.6000,1.192
14.6400,1.165
14.6800,1.218
14.7200,1.233
14.7600,1.184
14.8000,1.176
14.8400,1.165
14.8800,1.232
14.9200,1.189
14.9600,1.198
15.0000,1.196
15.0400,1.182
15.0800,1.157
15.1200,1.251
15.1600,1.230
15.2000,1.184
15.2400,1.203
15.2800,1.273
15.3200,1.172
15.3600,1.162
15.4000,1.244
15.4400,1.220
15.4800,1.176
15.5200,1.147
15.5600,1.209
15.6000,1.182
15.6400,1.121
15.6800,1.139
15.7200,1.188
15.7600,1.221
15.8000,1.193
15.8400,1.165
15.8800,1.214
15.9200,1.213
15.9600,1.152
16.0000,1.168
16.0400,1.158
16.0800,1.186
16.1200,1.141
16.1600,1.172
16.2000,1.182
16.2400,1.171
16.2800,1.177
16.3200,1.200
16.3600,1.141
16.4000,1.142
16.4400,1.175
16.4800,1.144
16.5200,1.171
16.5600,1.178
16.6000,1.120
16.6400,1.180
16.6800,1.161
16.7200,1.175
16.7600,1.161
16.8000,1.199
16.8400,1.103
16.8800,1.117
16.9200,1.121
16.9600,1.122
17.0000,1.150
17.0400,1.165
17.0800,1.120
17.1200,1.144
17.1600,1.140
17.2000,1.173
17.2400,1.228
17.2800,1.165
17.3200,1.123
17.3600,1.158
17.4000,1.165
17.4400,1.152
17.4800,1.117
17.5200,1.141
17.5600,1.143
17.6000,1.148
17.6400,1.105
17.6800,1.155
17.7200,1.139
17.7600,1.170
17.8000,1.140
17.8400,1.090
17.8800,1.139
17.9200,1.144
17.9600,1.154
18.0000,1.134
18.0400,1.089
18.0800,1.147
18.1200,1.154
18.1600,1.139
18.2000,1.111
18.2400,1.177
18.2800,1.135
18.3200,1.116
18.3600,1.137
18.4000,1.123
18.4400,1.094
18.4800,1.079
18.5200,1.097
18.5600,1.073
18.6000,1.147
18.6400,1.177
18.6800,1.126
18.7200,1.144
18.7600,1.095
18.8000,1.081
18.8400,1.133
18.8800,1.094
18.9200,1.122
18.9600,1.088
19.0000,1.092
19.0400,1.106
19.0800,1.085
19.1200,1.072
19.1600,1.081
19.2000,1.070
19.2400,1.149
19.2800,1.126
19.3200,1.084
19.3600,1.120
19.4000,1.110
19.4400,1.107
19.4800,1.084
19.5200,1.097
19.5600,1.123
19.6000,1.110
19.6400,1.059
19.6800,1.096
19.7200,1.077
19.7600,1.102
19.8000,1.071
19.8400,1.054
19.8800,1.135
19.9200,1.125
19.9600,1.075
20.0000,1.122
20.0400,1.072
20.0800,1.078
20.1200,1.102
20.1600,1.049
20.2000,1.106
20.2400,1.027
20.2800,1.062
20.3200,1.078
20.3600,1.079
20.4000,1.125
20.4400,1.100
20.4800,1.098
20.5200,1.066
20.5600,1.061
20.6000,1.098
20.6400,1.056
20.6800,1.043
20.7200,1.070
20.7600,1.045
20.8000,1.088
20.8400,1.047
20.8800,1.062
20.9200,1.064
20.9600,1.089
21.0000,1.090
21.0400,1.103
21.0800,1.086
21.1200,1.082
21.1600,1.074
21.2000,1.063
21.2400,1.055
21.2800,1.045
21.3200,1.012
21.3600,0.987
21.4000,1.043
21.4400,1.059
21.4800,1.030
21.5200,1.076
21.5600,1.054
21.6000,1.013
21.6400,1.059
21.6800,1.028
21.7200,1.023
21.7600,1.015
21.8000,1.075
21.8400,1.067
21.8800,1.072
21.9200,1.002
21.9600,1.094
22.0000,1.039
22.0400,1.081
22.0800,1.020
22.1200,1.032
22.1600,1.024
22.2000,1.029
22.2400,0.999
22.2800,1.033
22.3200,1.088
22.3600,1.057
22.4000,1.054
22.4400,1.035
22.4800,1.064
22.5200,1.026
22.5600,1.058
22.6000,1.029
22.6400,1.049
22.6800,1.054
22.7200,1.023
22.7600,0.989
22.8000,1.019
22.8400,1.049
22.8800,1.069
22.9200,1.026
22.9600,1.052
23.0000,1.028
23.0400,1.071
23.0800,1.076
23.1200,1.077
23.1600,1.124
23.2000,1.020
23.2400,1.012
23.2800,1.089
23.3200,1.046
23.3600,1.044
23.4000,1.060
23.4400,1.065
23.4800,1.098
23.5200,1.121
23.5600,1.153
23.6000,1.157
23.6400,1.182
23.6800,1.194
23.7200,1.196
23.7600,1.263
23.8000,1.276
23.8400,1.332
23.8800,1.394
23.9200,1.476
23.9600,1.556
24.0000,1.688
24.0400,1.837
24.0800,2.055
24.1200,2.173
24.1600,2.335
24.2000,2.492
24.2400,2.479
24.2800,2.336
24.3200,2.203
24.3600,2.014
24.4000,1.742
24.4400,1.603
24.4800,1.438
24.5200,1.353
24.5600,1.192
24.6000,1.170
24.6400,1.114
24.6800,1.069
24.7200,1.102
24.7600,1.093
24.8000,1.039
24.8400,1.060
24.8800,1.033
24.9200,1.037
24.9600,1.037
25.0000,0.948
25.0400,1.009
25.0800,0.972
25.1200,1.009
25.1600,0.943
25.2000,0.987
25.2400,0.942
25.2800,0.923
25.3200,0.887
25.3600,0.976
25.4000,0.997
25.4400,0.937
25.4800,0.944
25.5200,0.926
25.5600,0.928
25.6000,0.978
25.6400,0.894
25.6800,0.907
25.7200,0.925
25.7600,0.922
25.8000,0.922
25.8400,0.864
25.8800,0.927
25.9200,0.950
25.9600,0.873
26.0000,0.855
26.0400,0.879
26.0800,0.881
26.1200,0.892
26.1600,0.891
26.2000,0.857
26.2400,0.876
26.2800,0.860
26.3200,0.870
26.3600,0.884
26.4000,0.887
26.4400,0.855
26.4800,0.863
26.5200,0.833
26.5600,0.883
26.6000,0.857
26.6400,0.884
26.6800,0.877
26.7200,0.867
26.7600,0.872
26.8000,0.816
26.8400,0.838
26.8800,0.864
26.9200,0.833
26.9600,0.825
27.0000,0.817
27.0400,0.884
27.0800,0.830
27.1200,0.807
27.1600,0.832
27.2000,0.852
27.2400,0.823
27.2800,0.816
27.3200,0.775
27.3600,0.830
27.4000,0.882
27.4400,0.810
27.4800,0.837
27.5200,0.835
27.5600,0.825
27.6000,0.796
27.6400,0.802
27.6800,0.815
27.7200,0.779
27.7600,0.800
27.8000,0.790
27.8400,0.792
27.8800,0.783
27.9200,0.811
27.9600,0.781
28.0000,0.768
28.0400,0.821
28.0800,0.795
28.1200,0.800
28.1600,0.827
28.2000,0.770
28.2400,0.748
28.2800,0.767
28.3200,0.722
28.3600,0.738
28.4000,0.770
28.4400,0.776
28.4800,0.736
28.5200,0.792
28.5600,0.769
28.6000,0.749
28.6400,0.742
28.6800,0.727
28.7200,0.775
28.7600,0.754
28.8000,0.772
28.8400,0.728
28.8800,0.777
28.9200,0.776
28.9600,0.770
29.0000,0.749
29.0400,0.731
29.0800,0.709
29.1200,0.750
29.1600,0.725
29.2000,0.734
29.2400,0.702
29.2800,0.706
29.3200,0.718
29.3600,0.749
29.4000,0.759
29.4400,0.746
29.4800,0.740
29.5200,0.722
29.5600,0.730
29.6000,0.692
29.6400,0.742
29.6800,0.725
29.7200,0.694
29.7600,0.704
29.8000,0.722
29.8400,0.697
29.8800,0.711
29.9200,0.740
29.9600,0.706
30.0000,0.706
30.0400,0.729
30.0800,0.752
30.1200,0.761
30.1600,0.752
30.2000,0.768
30.2400,0.774
30.2800,0.753
30.3200,0.805
30.3600,0.759
30.4000,0.762
30.4400,0.727
30.4800,0.772
30.5200,0.781
30.5600,0.755
30.6000,0.762
30.6400,0.758
30.6800,0.778
30.7200,0.774
30.7600,0.781
30.8000,0.762
30.8400,0.710
30.8800,0.744
30.9200,0.753
30.9600,0.781
31.0000,0.736
31.0400,0.726
31.0800,0.772
31.1200,0.771
31.1600,0.754
31.2000,0.758
31.2400,0.746
31.2800,0.794
31.3200,0.810
31.3600,0.834
31.4000,0.812
31.4400,0.824
31.4800,0.870
31.5200,0.893
31.5600,0.965
31.6000,0.990
31.6400,1.036
31.6800,1.140
31.7200,1.328
31.7600,1.495
31.8000,1.772
31.8400,1.994
31.8800,2.234
31.9200,2.209
31.9600,2.145
32.0000,1.951
32.0400,1.697
32.0800,1.463
32.1200,1.268
32.1600,1.109
32.2000,1.031
32.2400,0.969
32.2800,0.941
32.3200,0.870
32.3600,0.859
32.4000,0.824
32.4400,0.742
32.4800,0.766
32.5200,0.733
32.5600,0.759
32.6000,0.734
32.6400,0.745
32.6800,0.715
32.7200,0.740
32.7600,0.742
32.8000,0.729
32.8400,0.705
32.8800,0.715
32.9200,0.702
32.9600,0.678
33.0000,0.702
33.0400,0.714
33.0800,0.692
33.1200,0.686
33.1600,0.730
33.2000,0.713
33.2400,0.680
33.2800,0.721
33.3200,0.759
33.3600,0.696
33.4000,0.681
33.4400,0.710
33.4800,0.656
33.5200,0.683
33.5600,0.671
33.6000,0.637
33.6400,0.707
33.6800,0.654
33.7200,0.699
33.7600,0.683
33.8000,0.653
33.8400,0.679
33.8800,0.668
33.9200,0.604
33.9600,0.656
34.0000,0.617
34.0400,0.601
34.0800,0.637
34.1200,0.619
34.1600,0.634
34.2000,0.604
34.2400,0.627
34.2800,0.632
34.3200,0.614
34.3600,0.592
34.4000,0.613
34.4400,0.589
34.4800,0.602
34.5200,0.591
34.5600,0.605
34.6000,0.590
34.6400,0.601
34.6800,0.615
34.7200,0.580
34.7600,0.588
34.8000,0.621
34.8400,0.575
34.8800,0.588
34.9200,0.599
34.9600,0.572
35.0000,0.580
35.0400,0.593
35.0800,0.570
35.1200,0.564
35.1600,0.578
35.2000,0.557
35.2400,0.556
35.2800,0.579
35.3200,0.547
35.3600,0.545
35.4000,0.603
35.4400,0.543
35.4800,0.586
35.5200,0.550
35.5600,0.536
35.6000,0.547
35.6400,0.544
35.6800,0.540
35.7200,0.539
35.7600,0.560
35.8000,0.560
35.8400,0.559
35.8800,0.562
35.9200,0.531
35.9600,0.573
36.0000,0.562
36.0400,0.547
36.0800,0.574
36.1200,0.570
36.1600,0.584
36.2000,0.596
36.2400,0.618
36.2800,0.568
36.3200,0.580
36.3600,0.606
36.4000,0.554
36.4400,0.565
36.4800,0.593
36.5200,0.530
36.5600,0.549
36.6000,0.592
36.6400,0.561
36.6800,0.553
36.7200,0.560
36.7600,0.530
36.8000,0.545
36.8400,0.552
36.8800,0.574
36.9200,0.589
36.9600,0.563
37.0000,0.532
37.0400,0.537
37.0800,0.543
37.1200,0.554
37.1600,0.545
37.2000,0.555
37.2400,0.567
37.2800,0.582
37.3200,0.562
37.3600,0.589
37.4000,0.554
37.4400,0.576
37.4800,0.572
37.5200,0.576
37.5600,0.597
37.6000,0.555
37.6400,0.519
37.6800,0.592
37.7200,0.585
37.7600,0.585
37.8000,0.557
37.8400,0.609
37.8800,0.617
37.9200,0.566
37.9600,0.568
38.0000,0.618
38.0400,0.642
38.0800,0.686
38.1200,0.669
38.1600,0.683
38.2000,0.706
38.2400,0.737
38.2800,0.758
38.3200,0.872
38.3600,0.923
38.4000,1.006
38.4400,1.139
38.4800,1.161
38.5200,1.249
38.5600,1.355
38.6000,1.390
38.6400,1.551
38.6800,1.540
38.7200,1.578
38.7600,1.569
38.8000,1.617
38.8400,1.578
38.8800,1.650
38.9200,1.575
38.9600,1.569
39.0000,1.614
39.0400,1.631
39.0800,1.599
39.1200,1.647
39.1600,1.669
39.2000,1.718
39.2400,1.726
39.2800,1.840
39.3200,1.981
39.3600,2.011
39.4000,2.143
39.4400,2.261
39.4800,2.358
39.5200,2.553
39.5600,2.708
39.6000,2.889
39.6400,2.977
39.6800,3.221
39.7200,3.237
39.7600,3.323
39.8000,3.407
39.8400,3.342
39.8800,3.359
39.9200,3.167
39.9600,3.061
40.0000,2.955
40.0400,3.042
40.0800,3.292
40.1200,3.521
40.1600,3.952
40.2000,4.422
40.2400,5.204
40.2800,5.975
40.3200,6.718
40.3600,7.673
40.4000,8.198
40.4400,8.263
40.4800,8.435
40.5200,7.789
40.5600,6.901
40.6000,5.743
40.6400,4.843
40.6800,3.875
40.7200,3.025
40.7600,2.545
40.8000,2.174
40.8400,1.966
40.8800,1.685
40.9200,1.541
40.9600,1.421
41.0000,1.327
41.0400,1.234
41.0800,1.140
41.1200,1.015
41.1600,0.982
41.2000,0.918
41.2400,0.888
41.2800,0.830
41.3200,0.791
41.3600,0.829
41.4000,0.754
41.4400,0.725
41.4800,0.719
41.5200,0.704
41.5600,0.737
41.6000,0.702
41.6400,0.663
41.6800,0.648
41.7200,0.682
41.7600,0.653
41.8000,0.608
41.8400,0.607
41.8800,0.594
41.9200,0.592
41.9600,0.578
42.0000,0.575
42.0400,0.545
42.0800,0.527
42.1200,0.536
42.1600,0.540
42.2000,0.537
42.2400,0.536
42.2800,0.532
42.3200,0.504
42.3600,0.462
42.4000,0.517
42.4400,0.489
42.4800,0.517
42.5200,0.483
42.5600,0.492
42.6000,0.490
42.6400,0.508
42.6800,0.512
42.7200,0.487
42.7600,0.492
42.8000,0.484
42.8400,0.504
42.8800,0.512
42.9200,0.503
42.9600,0.460
43.0000,0.470
43.0400,0.485
43.0800,0.458
43.1200,0.482
43.1600,0.476
43.2000,0.440
43.2400,0.498
43.2800,0.457
43.3200,0.490
43.3600,0.477
43.4000,0.473
43.4400,0.442
43.4800,0.453
43.5200,0.449
43.5600,0.481
43.6000,0.477
43.6400,0.465
43.6800,0.469
43.7200,0.468
43.7600,0.452
43.8000,0.457
43.8400,0.483
43.8800,0.469
43.9200,0.445
43.9600,0.473
44.0000,0.439
44.0400,0.469
44.0800,0.470
44.1200,0.507
44.1600,0.468
44.2000,0.486
44.2400,0.466
44.2800,0.491
44.3200,0.509
44.3600,0.552
44.4000,0.540
44.4400,0.545
44.4800,0.588
44.5200,0.574
44.5600,0.633
44.6000,0.617
44.6400,0.648
44.6800,0.701
44.7200,0.739
44.7600,0.732
44.8000,0.793
44.8400,0.757
44.8800,0.837
44.9200,0.878
44.9600,0.933
45.0000,0.907
45.0400,0.925
45.0800,0.905
45.1200,0.940
45.1600,1.001
45.2000,1.005
45.2400,1.075
45.2800,1.128
45.3200,1.262
45.3600,1.360
45.4000,1.532
45.4400,1.674
45.4800,1.850
45.5200,2.190
45.5600,2.494
45.6000,2.840
45.6400,3.149
45.6800,3.317
45.7200,3.348
45.7600,3.365
45.8000,3.218
45.8400,2.993
45.8800,2.770
45.9200,2.556
45.9600,2.386
46.0000,2.086
46.0400,1.896
46.0800,1.677
46.1200,1.492
46.1600,1.357
46.2000,1.272
46.2400,1.113
46.2800,1.045
46.3200,0.927
46.3600,0.831
46.4000,0.769
46.4400,0.712
46.4800,0.681
46.5200,0.666
46.5600,0.646
46.6000,0.559
46.6400,0.544
46.6800,0.531
46.7200,0.529
46.7600,0.534
46.8000,0.510
46.8400,0.531
46.8800,0.521
46.9200,0.487
46.9600,0.507
47.0000,0.473
47.0400,0.465
47.0800,0.474
47.1200,0.457
47.1600,0.476
47.2000,0.424
47.2400,0.418
47.2800,0.458
47.3200,0.442
47.3600,0.451
47.4000,0.481
47.4400,0.491
47.4800,0.481
47.5200,0.473
47.5600,0.513
47.6000,0.465
47.6400,0.476
47.6800,0.507
47.7200,0.503
47.7600,0.475
47.8000,0.517
47.8400,0.472
47.8800,0.492
47.9200,0.475
47.9600,0.456
48.0000,0.473
48.0400,0.449
48.0800,0.451
48.1200,0.435
48.1600,0.451
48.2000,0.448
48.2400,0.423
48.2800,0.424
48.3200,0.421
48.3600,0.424
48.4000,0.449
48.4400,0.437
48.4800,0.440
48.5200,0.440
48.5600,0.439
48.6000,0.431
48.6400,0.422
48.6800,0.425
48.7200,0.449
48.7600,0.486
48.8000,0.444
48.8400,0.464
48.8800,0.433
48.9200,0.460
48.9600,0.502
49.0000,0.518
49.0400,0.558
49.0800,0.567
49.1200,0.547
49.1600,0.576
49.2000,0.593
49.2400,0.609
49.2800,0.679
49.3200,0.650
49.3600,0.668
49.4000,0.742
49.4400,0.727
49.4800,0.775
49.5200,0.794
49.5600,0.810
49.6000,0.806
49.6400,0.837
49.6800,0.837
49.7200,0.810
49.7600,0.730
49.8000,0.771
49.8400,0.646
49.8800,0.591
49.9200,0.585
49.9600,0.519
50.0000,0.464
50.0400,0.460
50.0800,0.378
50.1200,0.368
50.1600,0.432
50.2000,0.382
50.2400,0.369
50.2800,0.348
50.3200,0.338
50.3600,0.353
50.4000,0.338
50.4400,0.363
50.4800,0.310
50.5200,0.343
50.5600,0.330
50.6000,0.337
50.6400,0.336
50.6800,0.343
50.7200,0.329
50.7600,0.334
50.8000,0.318
50.8400,0.304
50.8800,0.302
50.9200,0.326
50.9600,0.301
51.0000,0.323
51.0400,0.320
51.0800,0.297
51.1200,0.299
51.1600,0.312
51.2000,0.304
51.2400,0.311
51.2800,0.314
51.3200,0.299
51.3600,0.342
51.4000,0.295
51.4400,0.300
51.4800,0.341
51.5200,0.325
51.5600,0.313
51.6000,0.328
51.6400,0.306
51.6800,0.358
51.7200,0.378
51.7600,0.325
51.8000,0.330
51.8400,0.342
51.8800,0.379
51.9200,0.362
51.9600,0.367
52.0000,0.403
52.0400,0.398
52.0800,0.444
52.1200,0.520
52.1600,0.547
52.2000,0.628
52.2400,0.678
52.2800,0.769
52.3200,0.862
52.3600,0.890
52.4000,0.906
52.4400,0.850
52.4800,0.839
52.5200,0.795
52.5600,0.710
52.6000,0.604
52.6400,0.575
52.6800,0.515
52.7200,0.479
52.7600,0.440
52.8000,0.420
52.8400,0.411
52.8800,0.384
52.9200,0.339
52.9600,0.350
53.0000,0.332
53.0400,0.335
53.0800,0.322
53.1200,0.288
53.1600,0.307
53.2000,0.299
53.2400,0.299
53.2800,0.315
53.3200,0.313
53.3600,0.302
53.4000,0.280
53.4400,0.300
53.4800,0.287
53.5200,0.296
53.5600,0.293
53.6000,0.301
53.6400,0.273
53.6800,0.279
53.7200,0.279
53.7600,0.277
53.8000,0.290
53.8400,0.274
53.8800,0.278
53.9200,0.292
53.9600,0.286
54.0000,0.300
54.0400,0.292
54.0800,0.271
54.1200,0.294
54.1600,0.288
54.2000,0.290
54.2400,0.278
54.2800,0.262
54.3200,0.267
54.3600,0.303
54.4000,0.265
54.4400,0.278
54.4800,0.272
54.5200,0.269
54.5600,0.256
54.6000,0.244
54.6400,0.284
54.6800,0.282
54.7200,0.268
54.7600,0.261
54.8000,0.284
54.8400,0.282
54.8800,0.289
54.9200,0.267
54.9600,0.241
55.0000,0.245
55.0400,0.265
55.0800,0.277
55.1200,0.260
55.1600,0.243
55.2000,0.237
55.2400,0.260
55.2800,0.250
55.3200,0.251
55.3600,0.239
55.4000,0.261
55.4400,0.250
55.4800,0.261
55.5200,0.249
55.5600,0.251
55.6000,0.250
55.6400,0.238
55.6800,0.218
55.7200,0.251
55.7600,0.261
55.8000,0.245
55.8400,0.250
55.8800,0.251
55.9200,0.247
55.9600,0.253
56.0000,0.245
56.0400,0.241
56.0800,0.251
56.1200,0.249
56.1600,0.236
56.2000,0.241
56.2400,0.248
56.2800,0.279
56.3200,0.253
56.3600,0.257
56.4000,0.231
56.4400,0.226
56.4800,0.243
56.5200,0.233
56.5600,0.235
56.6000,0.269
56.6400,0.264
56.6800,0.255
56.7200,0.238
56.7600,0.243
56.8000,0.259
56.8400,0.239
56.8800,0.231
56.9200,0.240
56.9600,0.244
57.0000,0.241
57.0400,0.223
57.0800,0.247
57.1200,0.208
57.1600,0.239
57.2000,0.246
57.2400,0.224
57.2800,0.247
57.3200,0.253
57.3600,0.231
57.4000,0.243
57.4400,0.227
57.4800,0.251
57.5200,0.228
57.5600,0.238
57.6000,0.244
57.6400,0.271
57.6800,0.244
57.7200,0.255
57.7600,0.251
57.8000,0.243
57.8400,0.251
57.8800,0.244
57.9200,0.238
57.9600,0.233
58.0000,0.241
58.0400,0.245
58.0800,0.250
58.1200,0.240
58.1600,0.248
58.2000,0.251
58.2400,0.236
58.2800,0.253
58.3200,0.228
58.3600,0.245
58.4000,0.244
58.4400,0.231
58.4800,0.246
58.5200,0.269
58.5600,0.261
58.6000,0.258
58.6400,0.249
58.6800,0.249
58.7200,0.252
58.7600,0.230
58.8000,0.241
58.8400,0.259
58.8800,0.237
58.9200,0.248
58.9600,0.250
59.0000,0.268
59.0400,0.236
59.0800,0.257
59.1200,0.244
59.1600,0.235
59.2000,0.262
59.2400,0.261
59.2800,0.265
59.3200,0.282
59.3600,0.281
59.4000,0.265
59.4400,0.275
59.4800,0.279
59.5200,0.272
59.5600,0.280
59.6000,0.318
59.6400,0.287
59.6800,0.270
59.7200,0.310
59.7600,0.319
59.8000,0.334
59.8400,0.371
59.8800,0.351
59.9200,0.362
59.9600,0.393
60.0000,0.417
60.0400,0.397
60.0800,0.427
60.1200,0.449
60.1600,0.472
60.2000,0.446
60.2400,0.496
60.2800,0.474
60.3200,0.465
60.3600,0.403
60.4000,0.420
60.4400,0.402
60.4800,0.335
60.5200,0.357
60.5600,0.393
60.6000,0.316
60.6400,0.312
60.6800,0.308
60.7200,0.285
60.7600,0.265
60.8000,0.269
60.8400,0.281
60.8800,0.294
60.9200,0.280
60.9600,0.255
61.0000,0.254
61.0400,0.250
61.0800,0.265
61.1200,0.269
61.1600,0.233
61.2000,0.249
61.2400,0.245
61.2800,0.250
61.3200,0.271
61.3600,0.241
61.4000,0.260
61.4400,0.262
61.4800,0.243
61.5200,0.263
61.5600,0.236
61.6000,0.249
61.6400,0.239
61.6800,0.224
61.7200,0.240
61.7600,0.220
61.8000,0.231
61.8400,0.236
61.8800,0.256
61.9200,0.255
61.9600,0.249
62.0000,0.229
62.0400,0.234
62.0800,0.247
62.1200,0.252
62.1600,0.262
62.2000,0.253
62.2400,0.230
62.2800,0.232
62.3200,0.248
62.3600,0.248
62.4000,0.204
62.4400,0.251
62.4800,0.247
62.5200,0.234
62.5600,0.262
62.6000,0.235
62.6400,0.238
62.6800,0.218
62.7200,0.202
62.7600,0.228
62.8000,0.213
62.8400,0.232
62.8800,0.238
62.9200,0.229
62.9600,0.244
63.0000,0.220
63.0400,0.214
63.0800,0.248
63.1200,0.227
63.1600,0.223
63.2000,0.224
63.2400,0.243
63.2800,0.218
63.3200,0.247
63.3600,0.253
63.4000,0.245
63.4400,0.227
63.4800,0.231
63.5200,0.211
63.5600,0.238
63.6000,0.243
63.6400,0.247
63.6800,0.254
63.7200,0.271
63.7600,0.244
63.8000,0.255
63.8400,0.224
63.8800,0.246
63.9200,0.235
63.9600,0.240
64.0000,0.247
64.0400,0.252
64.0800,0.245
64.1200,0.246
64.1600,0.256
64.2000,0.252
64.2400,0.248
64.2800,0.249
64.3200,0.274
64.3600,0.253
64.4000,0.254
64.4400,0.282
64.4800,0.251
64.5200,0.271
64.5600,0.310
64.6000,0.256
64.6400,0.277
64.6800,0.315
64.7200,0.286
64.7600,0.284
64.8000,0.323
64.8400,0.308
64.8800,0.321
64.9200,0.326
64.9600,0.336
65.0000,0.320
65.0400,0.325
65.0800,0.333
65.1200,0.341
65.1600,0.352
65.2000,0.368
65.2400,0.400
65.2800,0.382
65.3200,0.385
65.3600,0.377
65.4000,0.395
65.4400,0.367
65.4800,0.385
65.5200,0.399
65.5600,0.416
65.6000,0.434
65.6400,0.396
65.6800,0.382
65.7200,0.414
65.7600,0.405
65.8000,0.416
65.8400,0.441
65.8800,0.417
65.9200,0.453
65.9600,0.486
66.0000,0.439
66.0400,0.452
66.0800,0.458
66.1200,0.479
66.1600,0.511
66.2000,0.559
66.2400,0.603
66.2800,0.629
66.3200,0.658
66.3600,0.653
66.4000,0.704
66.4400,0.751
66.4800,0.810
66.5200,0.830
66.5600,0.843
66.6000,0.892
66.6400,0.898
66.6800,0.902
66.7200,0.898
66.7600,0.935
66.8000,0.924
66.8400,0.874
66.8800,0.828
66.9200,0.829
66.9600,0.813
67.0000,0.800
67.0400,0.750
67.0800,0.753
67.1200,0.738
67.1600,0.732
67.2000,0.738
67.2400,0.693
67.2800,0.668
67.3200,0.658
67.3600,0.639
67.4000,0.617
67.4400,0.606
67.4800,0.588
67.5200,0.613
67.5600,0.606
67.6000,0.574
67.6400,0.520
67.6800,0.544
67.7200,0.556
67.7600,0.568
67.8000,0.550
67.8400,0.597
67.8800,0.586
67.9200,0.561
67.9600,0.598
68.0000,0.576
68.0400,0.561
68.0800,0.601
68.1200,0.604
68.1600,0.586
68.2000,0.657
68.2400,0.654
68.2800,0.656
68.3200,0.656
68.3600,0.673
68.4000,0.685
68.4400,0.709
68.4800,0.753
68.5200,0.704
68.5600,0.782
68.6000,0.815
68.6400,0.886
68.6800,0.965
68.7200,1.163
68.7600,1.390
68.8000,1.570
68.8400,1.688
68.8800,1.801
68.9200,2.066
68.9600,2.795
69.0000,4.684
69.0400,13.538
69.0800,40.396
69.1200,66.291
69.1600,69.350
69.2000,51.274
69.2400,25.685
69.2800,26.160
69.3200,36.388
69.3600,37.212
69.4000,26.375
69.4400,10.788
69.4800,4.194
69.5200,2.604
69.5600,2.153
69.6000,1.870
69.6400,1.699
69.6800,1.577
69.7200,1.561
69.7600,1.449
69.8000,1.385
69.8400,1.316
69.8800,1.265
69.9200,1.158
69.9600,1.145
70.0000,1.087
70.0400,1.049
70.0800,0.992
70.1200,0.923
70.1600,0.811
70.2000,0.799
70.2400,0.756
70.2800,0.704
70.3200,0.699
70.3600,0.666
70.4000,0.622
70.4400,0.570
70.4800,0.570
70.5200,0.561
70.5600,0.544
70.6000,0.519
70.6400,0.494
70.6800,0.455
70.7200,0.514
70.7600,0.490
70.8000,0.476
70.8400,0.436
70.8800,0.428
70.9200,0.431
70.9600,0.472
71.0000,0.432
71.0400,0.424
71.0800,0.410
71.1200,0.408
71.1600,0.405
71.2000,0.397
71.2400,0.395
71.2800,0.383
71.3200,0.373
71.3600,0.385
71.4000,0.392
71.4400,0.376
71.4800,0.400
71.5200,0.343
71.5600,0.404
71.6000,0.373
71.6400,0.371
71.6800,0.395
71.7200,0.390
71.7600,0.401
71.8000,0.376
71.8400,0.378
71.8800,0.424
71.9200,0.418
71.9600,0.417
72.0000,0.417
72.0400,0.413
72.0800,0.409
72.1200,0.412
72.1600,0.431
72.2000,0.416
72.2400,0.410
72.2800,0.392
72.3200,0.389
72.3600,0.384
72.4000,0.336
72.4400,0.341
72.4800,0.307
72.5200,0.303
72.5600,0.308
72.6000,0.307
72.6400,0.311
72.6800,0.294
72.7200,0.291
72.7600,0.294
72.8000,0.288
72.8400,0.278
72.8800,0.266
72.9200,0.279
72.9600,0.296
73.0000,0.264
73.0400,0.271
73.0800,0.304
73.1200,0.253
73.1600,0.272
73.2000,0.269
73.2400,0.256
73.2800,0.241
73.3200,0.256
73.3600,0.252
73.4000,0.268
73.4400,0.238
73.4800,0.260
73.5200,0.248
73.5600,0.229
73.6000,0.241
73.6400,0.246
73.6800,0.254
73.7200,0.251
73.7600,0.225
73.8000,0.225
73.8400,0.230
73.8800,0.212
73.9200,0.214
73.9600,0.245
74.0000,0.225
74.0400,0.232
74.0800,0.236
74.1200,0.236
74.1600,0.228
74.2000,0.229
74.2400,0.238
74.2800,0.228
74.3200,0.240
74.3600,0.229
74.4000,0.242
74.4400,0.223
74.4800,0.238
74.5200,0.244
74.5600,0.234
74.6000,0.243
74.6400,0.216
74.6800,0.214
74.7200,0.231
74.7600,0.220
74.8000,0.237
74.8400,0.234
74.8800,0.204
74.9200,0.229
74.9600,0.234
75.0000,0.238
75.0400,0.250
75.0800,0.220
75.1200,0.251
75.1600,0.249
75.2000,0.226
75.2400,0.227
75.2800,0.230
75.3200,0.224
75.3600,0.266
75.4000,0.255
75.4400,0.267
75.4800,0.243
75.5200,0.282
75.5600,0.251
75.6000,0.285
75.6400,0.302
75.6800,0.314
75.7200,0.287
75.7600,0.305
75.8000,0.321
75.8400,0.303
75.8800,0.320
75.9200,0.300
75.9600,0.307
76.0000,0.301
76.0400,0.298
76.0800,0.282
76.1200,0.291
76.1600,0.263
76.2000,0.254
76.2400,0.269
76.2800,0.257
76.3200,0.270
76.3600,0.246
76.4000,0.255
76.4400,0.256
76.4800,0.221
76.5200,0.231
76.5600,0.209
76.6000,0.236
76.6400,0.248
76.6800,0.218
76.7200,0.225
76.7600,0.244
76.8000,0.223
76.8400,0.225
76.8800,0.231
76.9200,0.228
76.9600,0.233
77.0000,0.223
77.0400,0.226
77.0800,0.191
77.1200,0.238
77.1600,0.247
77.2000,0.226
77.2400,0.231
77.2800,0.244
77.3200,0.222
77.3600,0.226
77.4000,0.236
77.4400,0.253
77.4800,0.229
77.5200,0.227
77.5600,0.227
77.6000,0.235
77.6400,0.249
77.6800,0.244
77.7200,0.238
77.7600,0.219
77.8000,0.238
77.8400,0.245
77.8800,0.233
77.9200,0.267
77.9600,0.260
78.0000,0.265
78.0400,0.277
78.0800,0.256
78.1200,0.271
78.1600,0.283
78.2000,0.291
78.2400,0.281
78.2800,0.267
78.3200,0.287
78.3600,0.282
78.4000,0.279
78.4400,0.303
78.4800,0.288
78.5200,0.279
78.5600,0.297
78.6000,0.287
78.6400,0.307
78.6800,0.283
78.7200,0.300
78.7600,0.323
78.8000,0.320
78.8400,0.315
78.8800,0.312
78.9200,0.294
78.9600,0.290
79.0000,0.332
79.0400,0.313
79.0800,0.305
79.1200,0.335
79.1600,0.307
79.2000,0.296
79.2400,0.334
79.2800,0.274
79.3200,0.293
79.3600,0.309
79.4000,0.305
79.4400,0.316
79.4800,0.318
79.5200,0.330
79.5600,0.309
79.6000,0.311
79.6400,0.300
79.6800,0.313
79.7200,0.340
79.7600,0.330
79.8000,0.329
79.8400,0.365
79.8800,0.329
79.9200,0.382
79.9600,0.352
80.0000,0.359
