theta,intensity
5.0000,4.240
5.0400,4.253
5.0800,4.298
5.1200,4.481
5.1600,4.246
5.2000,4.318
5.2400,4.213
5.2800,4.221
5.3200,4.238
5.3600,4.181
5.4000,4.199
5.4400,4.184
5.4800,4.329
5.5200,4.209
5.5600,4.179
5.6000,4.180
5.6400,4.289
5.6800,4.056
5.7200,4.085
5.7600,4.192
5.8000,4.172
5.8400,4.141
5.8800,4.184
5.9200,4.167
5.9600,3.975
6.0000,4.185
6.0400,4.133
6.0800,4.148
6.1200,4.006
6.1600,4.121
6.2000,4.143
6.2400,4.158
6.2800,4.084
6.3200,4.065
6.3600,4.073
6.4000,4.057
6.4400,4.114
6.4800,4.134
6.5200,3.995
6.5600,4.092
6.6000,4.015
6.6400,3.876
6.6800,4.006
6.7200,3.996
6.7600,4.060
6.8000,4.033
6.8400,3.961
6.8800,3.964
6.9200,4.070
6.9600,4.189
7.0000,4.060
7.0400,3.999
7.0800,3.931
7.1200,4.025
7.1600,4.057
7.2000,3.902
7.2400,3.886
7.2800,3.931
7.3200,4.039
7.3600,3.933
7.4000,3.913
7.4400,3.888
7.4800,3.960
7.5200,4.073
7.5600,3.934
7.6000,4.038
7.6400,4.045
7.6800,4.046
7.7200,3.960
7.7600,4.035
7.8000,4.009
7.8400,3.886
7.8800,3.863
7.9200,3.973
7.9600,3.901
8.0000,3.904
8.0400,3.755
8.0800,3.972
8.1200,3.944
8.1600,3.867
8.2000,3.822
8.2400,3.889
8.2800,3.839
8.3200,3.946
8.3600,3.869
8.4000,3.851
8.4400,3.791
8.4800,3.711
8.5200,3.871
8.5600,3.797
8.6000,3.908
8.6400,3.805
8.6800,3.779
8.7200,3.783
8.7600,3.836
8.8000,3.736
8.8400,3.814
8.8800,3.655
8.9200,3.829
8.9600,3.905
9.0000,3.873
9.0400,3.880
9.0800,3.886
9.1200,3.746
9.1600,3.739
9.2000,3.688
9.2400,3.732
9.2800,3.699
9.3200,3.682
9.3600,3.723
9.4000,3.656
9.4400,3.784
9.4800,3.635
9.5200,3.792
9.5600,3.613
9.6000,3.722
9.6400,3.665
9.6800,3.811
9.7200,3.786
9.7600,3.639
9.8000,3.701
9.8400,3.711
9.8800,3.589
9.9200,3.573
9.9600,3.577
10.0000,3.580
10.0400,3.683
10.0800,3.667
10.1200,3.703
10.1600,3.640
10.2000,3.652
10.2400,3.681
10.2800,3.576
10.3200,3.631
10.3600,3.705
10.4000,3.694
10.4400,3.676
10.4800,3.693
10.5200,3.598
10.5600,3.507
10.6000,3.651
10.6400,3.645
10.6800,3.613
10.7200,3.505
10.7600,3.615
10.8000,3.696
10.8400,3.476
10.8800,3.540
10.9200,3.626
10.9600,3.574
11.0000,3.518
11.0400,3.378
11.0800,3.442
11.1200,3.537
11.1600,3.493
11.2000,3.389
11.2400,3.538
11.2800,3.730
11.3200,3.521
11.3600,3.591
11.4000,3.507
11.4400,3.365
11.4800,3.555
11.5200,3.455
11.5600,3.517
11.6000,3.476
11.6400,3.467
11.6800,3.508
11.7200,3.473
11.7600,3.439
11.8000,3.454
11.8400,3.516
11.8800,3.552
11.9200,3.487
11.9600,3.409
12.0000,3.427
12.0400,3.499
12.0800,3.456
12.1200,3.536
12.1600,3.494
12.2000,3.440
12.2400,3.550
12.2800,3.496
12.3200,3.445
12.3600,3.528
12.4000,3.329
12.4400,3.462
12.4800,3.439
12.5200,3.440
12.5600,3.519
12.6000,3.427
12.6400,3.463
12.6800,3.362
12.7200,3.297
12.7600,3.360
12.8000,3.379
12.8400,3.476
12.8800,3.442
12.9200,3.400
12.9600,3.313
13.0000,3.415
13.0400,3.410
13.0800,3.422
13.1200,3.332
13.1600,3.361
13.2000,3.282
13.2400,3.441
13.2800,3.345
13.3200,3.336
13.3600,3.307
13.4000,3.354
13.4400,3.336
13.4800,3.301
13.5200,3.378
13.5600,3.367
13.6000,3.381
13.6400,3.358
13.6800,3.397
13.7200,3.303
13.7600,3.363
13.8000,3.298
13.8400,3.153
13.8800,3.294
13.9200,3.251
13.9600,3.299
14.0000,3.439
14.0400,3.258
14.0800,3.325
14.1200,3.232
14.1600,3.244
14.2000,3.286
14.2400,3.270
14.2800,3.240
14.3200,3.274
14.3600,3.329
14.4000,3.294
14.4400,3.290
14.4800,3.227
14.5200,3.161
14.5600,3.242
14.6000,3.197
14.6400,3.337
14.6800,3.191
14.7200,3.335
14.7600,3.187
14.8000,3.270
14.8400,3.197
14.8800,3.195
14.9200,3.199
14.9600,3.200
15.0000,3.247
15.0400,3.223
15.0800,3.183
15.1200,3.160
15.1600,3.245
15.2000,3.245
15.2400,3.174
15.2800,3.265
15.3200,3.163
15.3600,3.230
15.4000,3.174
15.4400,3.265
15.4800,3.235
15.5200,3.125
15.5600,3.304
15.6000,3.115
15.6400,3.178
15.6800,3.298
15.7200,3.191
15.7600,3.151
15.8000,3.204
15.8400,3.262
15.8800,3.232
15.9200,3.191
15.9600,3.231
16.0000,3.175
16.0400,3.275
16.0800,3.097
16.1200,3.187
16.1600,3.211
16.2000,3.128
16.2400,3.156
16.2800,3.084
16.3200,3.169
16.3600,3.162
16.4000,3.299
16.4400,3.065
16.4800,3.118
16.5200,3.170
16.5600,3.037
16.6000,3.109
16.6400,3.126
16.6800,3.117
16.7200,3.034
16.7600,3.184
16.8000,3.085
16.8400,3.123
16.8800,3.120
16.9200,3.124
16.9600,3.045
17.0000,3.021
17.0400,3.092
17.0800,3.089
17.1200,3.023
17.1600,3.066
17.2000,2.973
17.2400,3.032
17.2800,3.065
17.3200,3.067
17.3600,2.985
17.4000,3.070
17.4400,2.940
17.4800,3.000
17.5200,3.030
17.5600,3.027
17.6000,2.974
17.6400,2.931
17.6800,3.067
17.7200,3.023
17.7600,2.998
17.8000,2.950
17.8400,2.897
17.8800,2.910
17.9200,2.867
17.9600,2.936
18.0000,3.080
18.0400,2.993
18.0800,2.989
18.1200,2.959
18.1600,2.958
18.2000,3.043
18.2400,3.007
18.2800,3.010
18.3200,2.903
18.3600,3.012
18.4000,2.858
18.4400,2.958
18.4800,3.034
18.5200,2.912
18.5600,2.910
18.6000,2.932
18.6400,2.875
18.6800,2.981
18.7200,2.927
18.7600,2.844
18.8000,2.779
18.8400,2.867
18.8800,2.912
18.9200,2.927
18.9600,3.023
19.0000,2.880
19.0400,2.914
19.0800,2.952
19.1200,2.918
19.1600,2.849
19.2000,2.870
19.2400,2.919
19.2800,2.988
19.3200,2.764
19.3600,2.771
19.4000,2.796
19.4400,2.809
19.4800,2.778
19.5200,2.913
19.5600,2.812
19.6000,2.732
19.6400,2.872
19.6800,2.859
19.7200,2.853
19.7600,2.777
19.8000,2.831
19.8400,2.822
19.8800,2.768
19.9200,2.711
19.9600,2.771
20.0000,2.806
20.0400,2.812
20.0800,2.873
20.1200,2.783
20.1600,2.793
20.2000,2.704
20.2400,2.827
20.2800,2.735
20.3200,2.759
20.3600,2.798
20.4000,2.774
20.4400,2.858
20.4800,2.844
20.5200,2.820
20.5600,2.806
20.6000,2.850
20.6400,2.732
20.6800,2.751
20.7200,2.772
20.7600,2.831
20.8000,2.770
20.8400,2.670
20.8800,2.668
20.9200,2.748
20.9600,2.749
21.0000,2.781
21.0400,2.773
21.0800,2.715
21.1200,2.661
21.1600,2.696
21.2000,2.681
21.2400,2.698
21.2800,2.790
21.3200,2.798
21.3600,2.761
21.4000,2.715
21.4400,2.691
21.4800,2.622
21.5200,2.691
21.5600,2.625
21.6000,2.628
21.6400,2.674
21.6800,2.642
21.7200,2.686
21.7600,2.683
21.8000,2.639
21.8400,2.677
21.8800,2.694
21.9200,2.661
21.9600,2.709
22.0000,2.686
22.0400,2.670
22.0800,2.637
22.1200,2.721
22.1600,2.632
22.2000,2.759
22.2400,2.659
22.2800,2.651
22.3200,2.631
22.3600,2.687
22.4000,2.686
22.4400,2.745
22.4800,2.651
22.5200,2.567
22.5600,2.703
22.6000,2.692
22.6400,2.668
22.6800,2.559
22.7200,2.644
22.7600,2.550
22.8000,2.693
22.8400,2.618
22.8800,2.648
22.9200,2.656
22.9600,2.709
23.0000,2.649
23.0400,2.666
23.0800,2.831
23.1200,3.139
23.1600,3.670
23.2000,3.509
23.2400,3.194
23.2800,2.857
23.3200,2.754
23.3600,2.696
23.4000,2.742
23.4400,2.723
23.4800,2.812
23.5200,2.858
23.5600,2.811
23.6000,2.845
23.6400,2.723
23.6800,2.705
23.7200,2.668
23.7600,2.731
23.8000,2.666
23.8400,2.544
23.8800,2.582
23.9200,2.521
23.9600,2.655
24.0000,2.657
24.0400,2.574
24.0800,2.628
24.1200,2.578
24.1600,2.701
24.2000,2.561
24.2400,2.551
24.2800,2.594
24.3200,2.680
24.3600,2.528
24.4000,2.561
24.4400,2.637
24.4800,2.632
24.5200,2.518
24.5600,2.576
24.6000,2.539
24.6400,2.585
24.6800,2.631
24.7200,2.602
24.7600,2.525
24.8000,2.601
24.8400,2.555
24.8800,2.626
24.9200,2.637
24.9600,2.601
25.0000,2.509
25.0400,2.550
25.0800,2.474
25.1200,2.475
25.1600,2.589
25.2000,2.508
25.2400,2.443
25.2800,2.501
25.3200,2.590
25.3600,2.545
25.4000,2.531
25.4400,2.497
25.4800,2.476
25.5200,2.486
25.5600,2.495
25.6000,2.458
25.6400,2.580
25.6800,2.514
25.7200,2.424
25.7600,2.336
25.8000,2.498
25.8400,2.488
25.8800,2.517
25.9200,2.342
25.9600,2.417
26.0000,2.402
26.0400,2.432
26.0800,2.507
26.1200,2.473
26.1600,2.389
26.2000,2.441
26.2400,2.409
26.2800,2.430
26.3200,2.501
26.3600,2.424
26.4000,2.345
26.4400,2.490
26.4800,2.509
26.5200,2.373
26.5600,2.310
26.6000,2.331
26.6400,2.382
26.6800,2.413
26.7200,2.375
26.7600,2.300
26.8000,2.418
26.8400,2.268
26.8800,2.288
26.9200,2.325
26.9600,2.361
27.0000,2.336
27.0400,2.444
27.0800,2.332
27.1200,2.406
27.1600,2.352
27.2000,2.319
27.2400,2.345
27.2800,2.286
27.3200,2.351
27.3600,2.274
27.4000,2.318
27.4400,2.276
27.4800,2.269
27.5200,2.243
27.5600,2.298
27.6000,2.283
27.6400,2.293
27.6800,2.399
27.7200,2.292
27.7600,2.450
27.8000,2.363
27.8400,2.291
27.8800,2.341
27.9200,2.406
27.9600,2.436
28.0000,2.292
28.0400,2.267
28.0800,2.320
28.1200,2.332
28.1600,2.305
28.2000,2.367
28.2400,2.328
28.2800,2.300
28.3200,2.324
28.3600,2.326
28.4000,2.341
28.4400,2.383
28.4800,2.421
28.5200,2.360
28.5600,2.395
28.6000,2.444
28.6400,2.440
28.6800,2.493
28.7200,2.368
28.7600,2.360
28.8000,2.349
28.8400,2.332
28.8800,2.396
28.9200,2.335
28.9600,2.316
29.0000,2.341
29.0400,2.379
29.0800,2.414
29.1200,2.294
29.1600,2.339
29.2000,2.251
29.2400,2.201
29.2800,2.225
29.3200,2.270
29.3600,2.254
29.4000,2.227
29.4400,2.178
29.4800,2.261
29.5200,2.186
29.5600,2.210
29.6000,2.168
29.6400,2.185
29.6800,2.243
29.7200,2.170
29.7600,2.203
29.8000,2.189
29.8400,2.122
29.8800,2.123
29.9200,2.127
29.9600,2.113
30.0000,2.166
30.0400,2.210
30.0800,2.177
30.1200,2.141
30.1600,2.157
30.2000,2.267
30.2400,2.303
30.2800,2.277
30.3200,2.344
30.3600,2.274
30.4000,2.346
30.4400,2.333
30.4800,2.258
30.5200,2.223
30.5600,2.157
30.6000,2.081
30.6400,2.113
30.6800,2.072
30.7200,2.058
30.7600,2.099
30.8000,1.949
30.8400,1.976
30.8800,2.020
30.9200,2.071
30.9600,2.104
31.0000,2.056
31.0400,2.017
31.0800,1.971
31.1200,1.935
31.1600,2.003
31.2000,2.032
31.2400,1.984
31.2800,1.995
31.3200,2.027
31.3600,1.891
31.4000,1.959
31.4400,1.915
31.4800,1.948
31.5200,1.989
31.5600,1.860
31.6000,1.869
31.6400,1.920
31.6800,1.953
31.7200,1.923
31.7600,1.905
31.8000,1.869
31.8400,2.043
31.8800,2.001
31.9200,1.971
31.9600,1.986
32.0000,2.012
32.0400,2.071
32.0800,2.004
32.1200,1.882
32.1600,1.948
32.2000,2.015
32.2400,1.939
32.2800,1.913
32.3200,1.891
32.3600,1.966
32.4000,2.000
32.4400,1.967
32.4800,2.022
32.5200,2.051
32.5600,2.050
32.6000,2.108
32.6400,2.181
32.6800,2.143
32.7200,2.428
32.7600,2.533
32.8000,2.880
32.8400,3.259
32.8800,4.045
32.9200,5.257
32.9600,7.633
33.0000,11.196
33.0400,14.664
33.0800,16.518
33.1200,16.043
33.1600,13.714
33.2000,10.269
33.2400,7.490
33.2800,5.378
33.3200,3.949
33.3600,3.220
33.4000,2.790
33.4400,2.495
33.4800,2.304
33.5200,2.192
33.5600,2.041
33.6000,1.937
33.6400,1.977
33.6800,2.000
33.7200,1.888
33.7600,1.899
33.8000,1.949
33.8400,1.819
33.8800,1.789
33.9200,1.797
33.9600,1.794
34.0000,1.788
34.0400,1.800
34.0800,1.828
34.1200,1.789
34.1600,1.768
34.2000,1.655
34.2400,1.667
34.2800,1.676
34.3200,1.690
34.3600,1.686
34.4000,1.627
34.4400,1.708
34.4800,1.695
34.5200,1.631
34.5600,1.659
34.6000,1.612
34.6400,1.639
34.6800,1.626
34.7200,1.619
34.7600,1.735
34.8000,1.701
34.8400,1.739
34.8800,1.690
34.9200,1.675
34.9600,1.652
35.0000,1.613
35.0400,1.562
35.0800,1.613
35.1200,1.585
35.1600,1.564
35.2000,1.583
35.2400,1.581
35.2800,1.566
35.3200,1.568
35.3600,1.565
35.4000,1.543
35.4400,1.612
35.4800,1.578
35.5200,1.568
35.5600,1.522
35.6000,1.515
35.6400,1.572
35.6800,1.577
35.7200,1.581
35.7600,1.558
35.8000,1.588
35.8400,1.530
35.8800,1.456
35.9200,1.550
35.9600,1.508
36.0000,1.564
36.0400,1.565
36.0800,1.641
36.1200,1.511
36.1600,1.545
36.2000,1.612
36.2400,1.614
36.2800,1.503
36.3200,1.596
36.3600,1.609
36.4000,1.551
36.4400,1.572
36.4800,1.603
36.5200,1.534
36.5600,1.562
36.6000,1.517
36.6400,1.488
36.6800,1.494
36.7200,1.462
36.7600,1.468
36.8000,1.525
36.8400,1.476
36.8800,1.456
36.9200,1.539
36.9600,1.499
37.0000,1.496
37.0400,1.530
37.0800,1.544
37.1200,1.427
37.1600,1.483
37.2000,1.446
37.2400,1.537
37.2800,1.509
37.3200,1.473
37.3600,1.530
37.4000,1.580
37.4400,1.457
37.4800,1.498
37.5200,1.451
37.5600,1.542
37.6000,1.439
37.6400,1.460
37.6800,1.504
37.7200,1.571
37.7600,1.580
37.8000,1.596
37.8400,1.583
37.8800,1.656
37.9200,1.720
37.9600,1.784
38.0000,1.873
38.0400,1.997
38.0800,2.227
38.1200,2.599
38.1600,3.104
38.2000,4.086
38.2400,5.161
38.2800,7.195
38.3200,9.320
38.3600,11.133
38.4000,11.614
38.4400,10.889
38.4800,9.349
38.5200,7.389
38.5600,5.327
38.6000,3.926
38.6400,3.113
38.6800,2.624
38.7200,2.320
38.7600,2.093
38.8000,1.887
38.8400,1.762
38.8800,1.704
38.9200,1.672
38.9600,1.506
39.0000,1.540
39.0400,1.502
39.0800,1.441
39.1200,1.379
39.1600,1.464
39.2000,1.398
39.2400,1.369
39.2800,1.361
39.3200,1.337
39.3600,1.319
39.4000,1.359
39.4400,1.322
39.4800,1.305
39.5200,1.342
39.5600,1.333
39.6000,1.370
39.6400,1.386
39.6800,1.356
39.7200,1.328
39.7600,1.257
39.8000,1.375
39.8400,1.425
39.8800,1.335
39.9200,1.298
39.9600,1.288
40.0000,1.347
40.0400,1.299
40.0800,1.283
40.1200,1.312
40.1600,1.330
40.2000,1.287
40.2400,1.308
40.2800,1.259
40.3200,1.326
40.3600,1.345
40.4000,1.255
40.4400,1.246
40.4800,1.265
40.5200,1.227
40.5600,1.326
40.6000,1.258
40.6400,1.298
40.6800,1.324
40.7200,1.276
40.7600,1.344
40.8000,1.289
40.8400,1.269
40.8800,1.273
40.9200,1.261
40.9600,1.227
41.0000,1.250
41.0400,1.231
41.0800,1.233
41.1200,1.237
41.1600,1.237
41.2000,1.241
41.2400,1.154
41.2800,1.218
41.3200,1.238
41.3600,1.187
41.4000,1.209
41.4400,1.214
41.4800,1.225
41.5200,1.203
41.5600,1.238
41.6000,1.198
41.6400,1.254
41.6800,1.199
41.7200,1.152
41.7600,1.201
41.8000,1.188
41.8400,1.196
41.8800,1.174
41.9200,1.240
41.9600,1.200
42.0000,1.151
42.0400,1.183
42.0800,1.100
42.1200,1.185
42.1600,1.160
42.2000,1.195
42.2400,1.216
42.2800,1.184
42.3200,1.143
42.3600,1.153
42.4000,1.181
42.4400,1.163
42.4800,1.171
42.5200,1.174
42.5600,1.219
42.6000,1.164
42.6400,1.087
42.6800,1.108
42.7200,1.152
42.7600,1.174
42.8000,1.111
42.8400,1.135
42.8800,1.197
42.9200,1.171
42.9600,1.119
43.0000,1.178
43.0400,1.145
43.0800,1.118
43.1200,1.076
43.1600,1.145
43.2000,1.133
43.2400,1.165
43.2800,1.091
43.3200,1.202
43.3600,1.181
43.4000,1.227
43.4400,1.104
43.4800,1.170
43.5200,1.179
43.5600,1.193
43.6000,1.148
43.6400,1.168
43.6800,1.156
43.7200,1.208
43.7600,1.201
43.8000,1.230
43.8400,1.182
43.8800,1.183
43.9200,1.161
43.9600,1.123
44.0000,1.122
44.0400,1.090
44.0800,1.131
44.1200,1.118
44.1600,1.116
44.2000,1.102
44.2400,1.135
44.2800,1.060
44.3200,1.185
44.3600,1.120
44.4000,1.127
44.4400,1.076
44.4800,1.097
44.5200,1.106
44.5600,1.123
44.6000,1.160
44.6400,1.039
44.6800,1.052
44.7200,1.036
44.7600,1.063
44.8000,1.045
44.8400,1.057
44.8800,1.052
44.9200,1.019
44.9600,1.091
45.0000,1.057
45.0400,1.051
45.0800,1.043
45.1200,1.041
45.1600,1.117
45.2000,1.097
45.2400,1.062
45.2800,1.011
45.3200,1.036
45.3600,1.042
45.4000,1.091
45.4400,1.037
45.4800,0.986
45.5200,1.052
45.5600,1.093
45.6000,0.930
45.6400,0.993
45.6800,1.034
45.7200,1.005
45.7600,0.968
45.8000,1.045
45.8400,1.006
45.8800,1.095
45.9200,1.028
45.9600,0.983
46.0000,0.958
46.0400,1.021
46.0800,0.950
46.1200,0.958
46.1600,0.999
46.2000,0.930
46.2400,0.933
46.2800,0.928
46.3200,0.958
46.3600,1.004
46.4000,1.033
46.4400,0.993
46.4800,0.956
46.5200,0.961
46.5600,0.994
46.6000,0.985
46.6400,0.974
46.6800,0.962
46.7200,0.949
46.7600,1.000
46.8000,0.934
46.8400,0.938
46.8800,0.987
46.9200,0.936
46.9600,0.982
47.0000,0.991
47.0400,0.985
47.0800,0.939
47.1200,0.903
47.1600,0.980
47.2000,0.951
47.2400,0.969
47.2800,1.018
47.3200,1.023
47.3600,0.995
47.4000,0.986
47.4400,0.943
47.4800,1.003
47.5200,0.945
47.5600,0.917
47.6000,0.896
47.6400,0.996
47.6800,0.921
47.7200,0.994
47.7600,0.886
47.8000,0.984
47.8400,0.989
47.8800,1.014
47.9200,0.971
47.9600,1.012
48.0000,0.980
48.0400,0.968
48.0800,0.948
48.1200,0.939
48.1600,0.886
48.2000,0.951
48.2400,0.937
48.2800,0.896
48.3200,0.978
48.3600,0.962
48.4000,0.897
48.4400,0.910
48.4800,0.928
48.5200,0.942
48.5600,0.917
48.6000,0.866
48.6400,0.944
48.6800,0.906
48.7200,0.930
48.7600,0.853
48.8000,0.892
48.8400,0.868
48.8800,0.904
48.9200,0.941
48.9600,0.919
49.0000,0.891
49.0400,0.895
49.0800,0.955
49.1200,0.907
49.1600,0.864
49.2000,0.890
49.2400,0.906
49.2800,0.893
49.3200,0.944
49.3600,0.894
49.4000,0.922
49.4400,0.895
49.4800,0.974
49.5200,0.930
49.5600,0.923
49.6000,0.951
49.6400,0.976
49.6800,0.887
49.7200,0.932
49.7600,0.914
49.8000,0.888
49.8400,1.001
49.8800,0.941
49.9200,0.938
49.9600,0.921
50.0000,0.925
50.0400,0.879
50.0800,0.900
50.1200,0.878
50.1600,0.933
50.2000,0.892
50.2400,0.933
50.2800,0.859
50.3200,0.847
50.3600,0.851
50.4000,0.894
50.4400,0.834
50.4800,0.847
50.5200,0.861
50.5600,0.845
50.6000,0.857
50.6400,0.842
50.6800,0.913
50.7200,0.877
50.7600,0.879
50.8000,0.811
50.8400,0.866
50.8800,0.879
50.9200,0.847
50.9600,0.868
51.0000,0.849
51.0400,0.898
51.0800,0.842
51.1200,0.814
51.1600,0.823
51.2000,0.809
51.2400,0.814
51.2800,0.860
51.3200,0.889
51.3600,0.826
51.4000,0.803
51.4400,0.830
51.4800,0.842
51.5200,0.805
51.5600,0.859
51.6000,0.831
51.6400,0.796
51.6800,0.814
51.7200,0.815
51.7600,0.802
51.8000,0.800
51.8400,0.749
51.8800,0.781
51.9200,0.770
51.9600,0.843
52.0000,0.827
52.0400,0.782
52.0800,0.776
52.1200,0.823
52.1600,0.800
52.2000,0.825
52.2400,0.795
52.2800,0.821
52.3200,0.781
52.3600,0.744
52.4000,0.787
52.4400,0.757
52.4800,0.847
52.5200,0.881
52.5600,0.796
52.6000,0.762
52.6400,0.845
52.6800,0.753
52.7200,0.777
52.7600,0.736
52.8000,0.836
52.8400,0.824
52.8800,0.787
52.9200,0.787
52.9600,0.716
53.0000,0.766
53.0400,0.823
53.0800,0.794
53.1200,0.774
53.1600,0.770
53.2000,0.815
53.2400,0.835
53.2800,0.884
53.3200,0.899
53.3600,0.876
53.4000,0.829
53.4400,0.779
53.4800,0.866
53.5200,0.774
53.5600,0.785
53.6000,0.780
53.6400,0.719
53.6800,0.768
53.7200,0.774
53.7600,0.755
53.8000,0.757
53.8400,0.738
53.8800,0.756
53.9200,0.763
53.9600,0.744
54.0000,0.785
54.0400,0.787
54.0800,0.759
54.1200,0.742
54.1600,0.773
54.2000,0.753
54.2400,0.789
54.2800,0.825
54.3200,0.831
54.3600,0.802
54.4000,0.786
54.4400,0.805
54.4800,0.808
54.5200,0.767
54.5600,0.757
54.6000,0.819
54.6400,0.844
54.6800,0.854
54.7200,0.830
54.7600,0.828
54.8000,0.881
54.8400,0.925
54.8800,0.913
54.9200,0.992
54.9600,1.060
55.0000,1.174
55.0400,1.289
55.0800,1.408
55.1200,1.728
55.1600,2.110
55.2000,2.513
55.2400,3.263
55.2800,3.947
55.3200,4.538
55.3600,4.783
55.4000,4.635
55.4400,4.388
55.4800,3.940
55.5200,3.366
55.5600,2.780
55.6000,2.319
55.6400,1.948
55.6800,1.577
55.7200,1.369
55.7600,1.137
55.8000,1.119
55.8400,1.082
55.8800,0.935
55.9200,0.952
55.9600,0.889
56.0000,0.848
56.0400,0.866
56.0800,0.785
56.1200,0.747
56.1600,0.809
56.2000,0.764
56.2400,0.732
56.2800,0.790
56.3200,0.691
56.3600,0.722
56.4000,0.712
56.4400,0.722
56.4800,0.688
56.5200,0.712
56.5600,0.716
56.6000,0.658
56.6400,0.671
56.6800,0.630
56.7200,0.683
56.7600,0.716
56.8000,0.680
56.8400,0.688
56.8800,0.678
56.9200,0.661
56.9600,0.725
57.0000,0.691
57.0400,0.648
57.0800,0.698
57.1200,0.686
57.1600,0.676
57.2000,0.648
57.2400,0.710
57.2800,0.679
57.3200,0.703
57.3600,0.622
57.4000,0.649
57.4400,0.640
57.4800,0.714
57.5200,0.613
57.5600,0.645
57.6000,0.621
57.6400,0.642
57.6800,0.638
57.7200,0.671
57.7600,0.623
57.8000,0.673
57.8400,0.610
57.8800,0.641
57.9200,0.695
57.9600,0.674
58.0000,0.686
58.0400,0.677
58.0800,0.668
58.1200,0.669
58.1600,0.678
58.2000,0.650
58.2400,0.653
58.2800,0.669
58.3200,0.658
58.3600,0.676
58.4000,0.661
58.4400,0.663
58.4800,0.623
58.5200,0.675
58.5600,0.696
58.6000,0.691
58.6400,0.691
58.6800,0.697
58.7200,0.694
58.7600,0.735
58.8000,0.762
58.8400,0.807
58.8800,0.851
58.9200,0.773
58.9600,0.749
59.0000,0.719
59.0400,0.755
59.0800,0.689
59.1200,0.631
59.1600,0.620
59.2000,0.621
59.2400,0.602
59.2800,0.594
59.3200,0.575
59.3600,0.590
59.4000,0.604
59.4400,0.615
59.4800,0.619
59.5200,0.579
59.5600,0.642
59.6000,0.614
59.6400,0.593
59.6800,0.628
59.7200,0.585
59.7600,0.618
59.8000,0.569
59.8400,0.599
59.8800,0.598
59.9200,0.573
59.9600,0.611
60.0000,0.616
60.0400,0.571
60.0800,0.606
60.1200,0.610
60.1600,0.573
60.2000,0.612
60.2400,0.604
60.2800,0.615
60.3200,0.576
60.3600,0.576
60.4000,0.598
60.4400,0.565
60.4800,0.578
60.5200,0.580
60.5600,0.555
60.6000,0.538
60.6400,0.550
60.6800,0.589
60.7200,0.589
60.7600,0.606
60.8000,0.587
60.8400,0.570
60.8800,0.583
60.9200,0.605
60.9600,0.596
61.0000,0.525
61.0400,0.545
61.0800,0.586
61.1200,0.526
61.1600,0.642
61.2000,0.601
61.2400,0.558
61.2800,0.562
61.3200,0.597
61.3600,0.537
61.4000,0.603
61.4400,0.578
61.4800,0.612
61.5200,0.539
61.5600,0.577
61.6000,0.565
61.6400,0.554
61.6800,0.606
61.7200,0.571
61.7600,0.578
61.8000,0.586
61.8400,0.551
61.8800,0.552
61.9200,0.574
61.9600,0.548
62.0000,0.535
62.0400,0.561
62.0800,0.496
62.1200,0.543
62.1600,0.541
62.2000,0.523
62.2400,0.552
62.2800,0.536
62.3200,0.509
62.3600,0.577
62.4000,0.573
62.4400,0.521
62.4800,0.572
62.5200,0.608
62.5600,0.566
62.6000,0.504
62.6400,0.543
62.6800,0.532
62.7200,0.517
62.7600,0.501
62.8000,0.500
62.8400,0.504
62.8800,0.532
62.9200,0.518
62.9600,0.505
63.0000,0.549
63.0400,0.493
63.0800,0.466
63.1200,0.529
63.1600,0.510
63.2000,0.529
63.2400,0.554
63.2800,0.572
63.3200,0.501
63.3600,0.502
63.4000,0.484
63.4400,0.494
63.4800,0.521
63.5200,0.522
63.5600,0.495
63.6000,0.504
63.6400,0.534
63.6800,0.500
63.7200,0.511
63.7600,0.494
63.8000,0.502
63.8400,0.496
63.8800,0.497
63.9200,0.486
63.9600,0.498
64.0000,0.481
64.0400,0.482
64.0800,0.515
64.1200,0.496
64.1600,0.494
64.2000,0.524
64.2400,0.524
64.2800,0.540
64.3200,0.486
64.3600,0.493
64.4000,0.498
64.4400,0.476
64.4800,0.485
64.5200,0.477
64.5600,0.522
64.6000,0.485
64.6400,0.477
64.6800,0.483
64.7200,0.479
64.7600,0.485
64.8000,0.486
64.8400,0.504
64.8800,0.464
64.9200,0.504
64.9600,0.487
65.0000,0.551
65.0400,0.480
65.0800,0.498
65.1200,0.481
65.1600,0.498
65.2000,0.503
65.2400,0.536
65.2800,0.494
65.3200,0.553
65.3600,0.563
65.4000,0.578
65.4400,0.607
65.4800,0.632
65.5200,0.651
65.5600,0.697
65.6000,0.735
65.6400,0.891
65.6800,0.880
65.7200,0.947
65.7600,1.135
65.8000,1.369
65.8400,1.655
65.8800,2.044
65.9200,2.392
65.9600,2.636
66.0000,2.636
66.0400,2.492
66.0800,2.401
66.1200,2.172
66.1600,2.089
66.2000,1.742
66.2400,1.516
66.2800,1.325
66.3200,1.051
66.3600,0.952
66.4000,0.881
66.4400,0.743
66.4800,0.702
66.5200,0.655
66.5600,0.650
66.6000,0.601
66.6400,0.550
66.6800,0.558
66.7200,0.501
66.7600,0.502
66.8000,0.488
66.8400,0.526
66.8800,0.512
66.9200,0.438
66.9600,0.475
67.0000,0.466
67.0400,0.486
67.0800,0.461
67.1200,0.442
67.1600,0.449
67.2000,0.441
67.2400,0.448
67.2800,0.474
67.3200,0.461
67.3600,0.425
67.4000,0.473
67.4400,0.414
67.4800,0.435
67.5200,0.474
67.5600,0.409
67.6000,0.436
67.6400,0.438
67.6800,0.459
67.7200,0.450
67.7600,0.442
67.8000,0.386
67.8400,0.441
67.8800,0.426
67.9200,0.426
67.9600,0.449
68.0000,0.385
68.0400,0.423
68.0800,0.434
68.1200,0.439
68.1600,0.418
68.2000,0.412
68.2400,0.441
68.2800,0.424
68.3200,0.406
68.3600,0.413
68.4000,0.428
68.4400,0.451
68.4800,0.421
68.5200,0.432
68.5600,0.404
68.6000,0.450
68.6400,0.472
68.6800,0.491
68.7200,0.493
68.7600,0.497
68.8000,0.504
68.8400,0.520
68.8800,0.507
68.9200,0.520
68.9600,0.544
69.0000,0.606
69.0400,0.686
69.0800,0.690
69.1200,0.846
69.1600,0.971
69.2000,1.148
69.2400,1.213
69.2800,1.406
69.3200,1.415
69.3600,1.287
69.4000,1.204
69.4400,1.187
69.4800,1.153
69.5200,0.980
69.5600,0.938
69.6000,0.792
69.6400,0.719
69.6800,0.666
69.7200,0.583
69.7600,0.551
69.8000,0.477
69.8400,0.431
69.8800,0.485
69.9200,0.467
69.9600,0.430
70.0000,0.402
70.0400,0.407
70.0800,0.447
70.1200,0.370
70.1600,0.399
70.2000,0.381
70.2400,0.389
70.2800,0.388
70.3200,0.408
70.3600,0.409
70.4000,0.433
70.4400,0.393
70.4800,0.341
70.5200,0.352
70.5600,0.396
70.6000,0.393
70.6400,0.352
70.6800,0.393
70.7200,0.390
70.7600,0.391
70.8000,0.359
70.8400,0.390
70.8800,0.360
70.9200,0.418
70.9600,0.393
71.0000,0.354
71.0400,0.357
71.0800,0.380
71.1200,0.409
71.1600,0.403
71.2000,0.377
71.2400,0.370
71.2800,0.373
71.3200,0.400
71.3600,0.374
71.4000,0.361
71.4400,0.360
71.4800,0.390
71.5200,0.385
71.5600,0.337
71.6000,0.365
71.6400,0.390
71.6800,0.376
71.7200,0.342
71.7600,0.359
71.8000,0.370
71.8400,0.366
71.8800,0.350
71.9200,0.393
71.9600,0.346
72.0000,0.343
72.0400,0.379
72.0800,0.348
72.1200,0.394
72.1600,0.352
72.2000,0.344
72.2400,0.361
72.2800,0.318
72.3200,0.351
72.3600,0.342
72.4000,0.343
72.4400,0.361
72.4800,0.340
72.5200,0.340
72.5600,0.355
72.6000,0.332
72.6400,0.365
72.6800,0.343
72.7200,0.347
72.7600,0.326
72.8000,0.321
72.8400,0.377
72.8800,0.347
72.9200,0.359
72.9600,0.330
73.0000,0.353
73.0400,0.355
73.0800,0.313
73.1200,0.358
73.1600,0.299
73.2000,0.360
73.2400,0.381
73.2800,0.340
73.3200,0.363
73.3600,0.383
73.4000,0.325
73.4400,0.354
73.4800,0.332
73.5200,0.358
73.5600,0.347
73.6000,0.392
73.6400,0.326
73.6800,0.372
73.7200,0.334
73.7600,0.321
73.8000,0.335
73.8400,0.346
73.8800,0.362
73.9200,0.386
73.9600,0.366
74.0000,0.364
74.0400,0.353
74.0800,0.350
74.1200,0.324
74.1600,0.309
74.2000,0.312
74.2400,0.356
74.2800,0.355
74.3200,0.373
74.3600,0.298
74.4000,0.341
74.4400,0.342
74.4800,0.328
74.5200,0.330
74.5600,0.335
74.6000,0.348
74.6400,0.391
74.6800,0.366
74.7200,0.352
74.7600,0.343
74.8000,0.353
74.8400,0.365
74.8800,0.362
74.9200,0.371
74.9600,0.350
75.0000,0.300
75.0400,0.305
75.0800,0.315
75.1200,0.318
75.1600,0.348
75.2000,0.359
75.2400,0.305
75.2800,0.319
75.3200,0.350
75.3600,0.308
75.4000,0.311
75.4400,0.338
75.4800,0.315
75.5200,0.357
75.5600,0.334
75.6000,0.347
75.6400,0.327
75.6800,0.310
75.7200,0.332
75.7600,0.331
75.8000,0.326
75.8400,0.306
75.8800,0.310
75.9200,0.314
75.9600,0.322
76.0000,0.340
76.0400,0.324
76.0800,0.288
76.1200,0.319
76.1600,0.294
76.2000,0.337
76.2400,0.319
76.2800,0.330
76.3200,0.307
76.3600,0.301
76.4000,0.301
76.4400,0.313
76.4800,0.319
76.5200,0.319
76.5600,0.331
76.6000,0.323
76.6400,0.336
76.6800,0.358
76.7200,0.314
76.7600,0.341
76.8000,0.304
76.8400,0.344
76.8800,0.295
76.9200,0.319
76.9600,0.289
77.0000,0.309
77.0400,0.339
77.0800,0.320
77.1200,0.317
77.1600,0.308
77.2000,0.302
77.2400,0.325
77.2800,0.299
77.3200,0.337
77.3600,0.350
77.4000,0.339
77.4400,0.301
77.4800,0.308
77.5200,0.305
77.5600,0.298
77.6000,0.306
77.6400,0.302
77.6800,0.297
77.7200,0.343
77.7600,0.273
77.8000,0.287
77.8400,0.302
77.8800,0.318
77.9200,0.322
77.9600,0.344
78.0000,0.328
78.0400,0.309
78.0800,0.307
78.1200,0.316
78.1600,0.304
78.2000,0.318
78.2400,0.294
78.2800,0.340
78.3200,0.323
78.3600,0.316
78.4000,0.278
78.4400,0.316
78.4800,0.332
78.5200,0.341
78.5600,0.337
78.6000,0.332
78.6400,0.326
78.6800,0.345
78.7200,0.347
78.7600,0.366
78.8000,0.318
78.8400,0.315
78.8800,0.317
78.9200,0.332
78.9600,0.300
79.0000,0.305
79.0400,0.331
79.0800,0.291
79.1200,0.295
79.1600,0.293
79.2000,0.310
79.2400,0.341
79.2800,0.292
79.3200,0.302
79.3600,0.320
79.4000,0.306
79.4400,0.253
79.4800,0.310
79.5200,0.286
79.5600,0.303
79.6000,0.305
79.6400,0.329
79.6800,0.289
79.7200,0.299
79.7600,0.317
79.8000,0.337
79.8400,0.289
79.8800,0.294
79.9200,0.288
79.9600,0.298
80.0000,0.329
