theta,intensity
5.0000,4.927
5.0400,4.871
5.0800,4.987
5.1200,4.796
5.1600,4.933
5.2000,4.865
5.2400,4.771
5.2800,4.853
5.3200,4.897
5.3600,4.758
5.4000,4.591
5.4400,4.510
5.4800,4.736
5.5200,4.557
5.5600,4.652
5.6000,4.554
5.6400,4.480
5.6800,4.508
5.7200,4.504
5.7600,4.381
5.8000,4.286
5.8400,4.319
5.8800,4.298
5.9200,4.333
5.9600,4.293
6.0000,4.349
6.0400,4.374
6.0800,4.236
6.1200,4.143
6.1600,4.237
6.2000,4.179
6.2400,4.084
6.2800,4.033
6.3200,4.205
6.3600,4.209
6.4000,4.183
6.4400,4.183
6.4800,4.154
6.5200,4.043
6.5600,4.102
6.6000,4.109
6.6400,4.099
6.6800,4.056
6.7200,4.083
6.7600,4.284
6.8000,4.020
6.8400,4.125
6.8800,4.155
6.9200,4.178
6.9600,4.150
7.0000,4.184
7.0400,4.047
7.0800,4.184
7.1200,4.098
7.1600,4.064
7.2000,3.978
7.2400,4.055
7.2800,3.980
7.3200,4.015
7.3600,3.925
7.4000,3.929
7.4400,4.081
7.4800,4.046
7.5200,4.100
7.5600,3.927
7.6000,4.044
7.6400,4.030
7.6800,3.900
7.7200,3.989
7.7600,3.895
7.8000,3.987
7.8400,3.931
7.8800,3.960
7.9200,3.899
7.9600,4.084
8.0000,3.973
8.0400,4.114
8.0800,3.984
8.1200,4.020
8.1600,3.923
8.2000,3.907
8.2400,3.986
8.2800,3.952
8.3200,3.847
8.3600,3.832
8.4000,3.901
8.4400,3.887
8.4800,3.815
8.5200,3.923
8.5600,3.895
8.6000,3.890
8.6400,3.894
8.6800,3.874
8.7200,3.813
8.7600,3.727
8.8000,3.822
8.8400,3.799
8.8800,3.855
8.9200,3.913
8.9600,3.780
9.0000,3.831
9.0400,3.896
9.0800,3.814
9.1200,3.804
9.1600,3.802
9.2000,3.889
9.2400,3.759
9.2800,3.929
9.3200,3.801
9.3600,3.782
9.4000,3.873
9.4400,3.854
9.4800,3.821
9.5200,3.832
9.5600,3.698
9.6000,3.775
9.6400,3.792
9.6800,3.718
9.7200,3.822
9.7600,3.811
9.8000,3.756
9.8400,3.832
9.8800,3.677
9.9200,3.733
9.9600,3.707
10.0000,3.672
10.0400,3.748
10.0800,3.723
10.1200,3.627
10.1600,3.656
10.2000,3.620
10.2400,3.687
10.2800,3.637
10.3200,3.748
10.3600,3.726
10.4000,3.622
10.4400,3.724
10.4800,3.682
10.5200,3.701
10.5600,3.736
10.6000,3.714
10.6400,3.572
10.6800,3.728
10.7200,3.634
10.7600,3.684
10.8000,3.689
10.8400,3.536
10.8800,3.728
10.9200,3.708
10.9600,3.662
11.0000,3.599
11.0400,3.591
11.0800,3.701
11.1200,3.560
11.1600,3.593
11.2000,3.583
11.2400,3.551
11.2800,3.627
11.3200,3.685
11.3600,3.545
11.4000,3.616
11.4400,3.568
11.4800,3.580
11.5200,3.575
11.5600,3.582
11.6000,3.598
11.6400,3.470
11.6800,3.511
11.7200,3.639
11.7600,3.625
11.8000,3.655
11.8400,3.585
11.8800,3.587
11.9200,3.549
11.9600,3.521
12.0000,3.575
12.0400,3.542
12.0800,3.534
12.1200,3.408
12.1600,3.625
12.2000,3.602
12.2400,3.379
12.2800,3.567
12.3200,3.513
12.3600,3.551
12.4000,3.410
12.4400,3.486
12.4800,3.563
12.5200,3.555
12.5600,3.517
12.6000,3.459
12.6400,3.526
12.6800,3.473
12.7200,3.504
12.7600,3.471
12.8000,3.445
12.8400,3.434
12.8800,3.394
12.9200,3.406
12.9600,3.459
13.0000,3.535
13.0400,3.331
13.0800,3.499
13.1200,3.405
13.1600,3.445
13.2000,3.315
13.2400,3.545
13.2800,3.464
13.3200,3.551
13.3600,3.443
13.4000,3.356
13.4400,3.415
13.4800,3.399
13.5200,3.368
13.5600,3.405
13.6000,3.327
13.6400,3.337
13.6800,3.480
13.7200,3.387
13.7600,3.370
13.8000,3.409
13.8400,3.341
13.8800,3.402
13.9200,3.417
13.9600,3.411
14.0000,3.466
14.0400,3.357
14.0800,3.359
14.1200,3.365
14.1600,3.253
14.2000,3.389
14.2400,3.304
14.2800,3.296
14.3200,3.379
14.3600,3.342
14.4000,3.252
14.4400,3.456
14.4800,3.341
14.5200,3.273
14.5600,3.218
14.6000,3.225
14.6400,3.223
14.6800,3.284
14.7200,3.339
14.7600,3.313
14.8000,3.295
14.8400,3.323
14.8800,3.191
14.9200,3.325
14.9600,3.258
15.0000,3.273
15.0400,3.268
15.0800,3.242
15.1200,3.234
15.1600,3.240
15.2000,3.226
15.2400,3.244
15.2800,3.111
15.3200,3.223
15.3600,3.210
15.4000,3.264
15.4400,3.239
15.4800,3.117
15.5200,3.153
15.5600,3.140
15.6000,3.183
15.6400,3.219
15.6800,3.225
15.7200,3.160
15.7600,3.265
15.8000,3.174
15.8400,3.187
15.8800,3.208
15.9200,3.069
15.9600,3.237
16.0000,3.118
16.0400,3.122
16.0800,3.161
16.1200,3.197
16.1600,3.204
16.2000,3.048
16.2400,3.122
16.2800,3.262
16.3200,3.205
16.3600,3.117
16.4000,3.127
16.4400,3.141
16.4800,3.126
16.5200,3.133
16.5600,2.995
16.6000,3.127
16.6400,3.170
16.6800,3.008
16.7200,3.070
16.7600,3.188
16.8000,3.102
16.8400,3.086
16.8800,2.988
16.9200,3.148
16.9600,3.089
17.0000,2.977
17.0400,3.007
17.0800,3.032
17.1200,3.050
17.1600,2.926
17.2000,2.981
17.2400,3.189
17.2800,3.076
17.3200,3.102
17.3600,3.021
17.4000,3.090
17.4400,3.002
17.4800,3.099
17.5200,3.083
17.5600,3.004
17.6000,3.057
17.6400,2.974
17.6800,3.064
17.7200,2.995
17.7600,2.979
17.8000,2.970
17.8400,2.950
17.8800,2.986
17.9200,2.989
17.9600,2.990
18.0000,2.890
18.0400,3.044
18.0800,2.985
18.1200,3.024
18.1600,2.877
18.2000,2.969
18.2400,2.975
18.2800,3.015
18.3200,2.964
18.3600,2.867
18.4000,2.949
18.4400,2.986
18.4800,2.944
18.5200,2.939
18.5600,2.877
18.6000,2.927
18.6400,3.027
18.6800,2.879
18.7200,2.906
18.7600,2.897
18.8000,2.924
18.8400,3.056
18.8800,2.877
18.9200,2.881
18.9600,2.901
19.0000,2.926
19.0400,2.857
19.0800,2.912
19.1200,2.849
19.1600,2.940
19.2000,2.862
19.2400,2.919
19.2800,2.969
19.3200,2.910
19.3600,2.890
19.4000,2.946
19.4400,2.963
19.4800,2.905
19.5200,2.813
19.5600,2.892
19.6000,2.849
19.6400,2.817
19.6800,2.869
19.7200,2.716
19.7600,2.837
19.8000,2.790
19.8400,2.906
19.8800,2.881
19.9200,2.935
19.9600,2.801
20.0000,2.763
20.0400,2.756
20.0800,2.875
20.1200,2.747
20.1600,2.772
20.2000,2.719
20.2400,2.822
20.2800,2.793
20.3200,2.780
20.3600,2.754
20.4000,2.760
20.4400,2.751
20.4800,2.756
20.5200,2.770
20.5600,2.764
20.6000,2.745
20.6400,2.837
20.6800,2.717
20.7200,2.825
20.7600,2.764
20.8000,2.753
20.8400,2.766
20.8800,2.689
20.9200,2.597
20.9600,2.824
21.0000,2.770
21.0400,2.661
21.0800,2.677
21.1200,2.781
21.1600,2.681
21.2000,2.604
21.2400,2.693
21.2800,2.696
21.3200,2.753
21.3600,2.633
21.4000,2.719
21.4400,2.684
21.4800,2.745
21.5200,2.669
21.5600,2.672
21.6000,2.644
21.6400,2.566
21.6800,2.588
21.7200,2.619
21.7600,2.672
21.8000,2.679
21.8400,2.585
21.8800,2.639
21.9200,2.642
21.9600,2.666
22.0000,2.561
22.0400,2.584
22.0800,2.657
22.1200,2.626
22.1600,2.459
22.2000,2.620
22.2400,2.563
22.2800,2.512
22.3200,2.525
22.3600,2.619
22.4000,2.599
22.4400,2.577
22.4800,2.635
22.5200,2.640
22.5600,2.516
22.6000,2.612
22.6400,2.562
22.6800,2.547
22.7200,2.563
22.7600,2.532
22.8000,2.559
22.8400,2.517
22.8800,2.471
22.9200,2.465
22.9600,2.523
23.0000,2.488
23.0400,2.536
23.0800,2.479
23.1200,2.510
23.1600,2.528
23.2000,2.508
23.2400,2.508
23.2800,2.599
23.3200,2.533
23.3600,2.458
23.4000,2.556
23.4400,2.505
23.4800,2.582
23.5200,2.557
23.5600,2.456
23.6000,2.461
23.6400,2.381
23.6800,2.507
23.7200,2.496
23.7600,2.468
23.8000,2.438
23.8400,2.423
23.8800,2.472
23.9200,2.478
23.9600,2.493
24.0000,2.485
24.0400,2.456
24.0800,2.439
24.1200,2.411
24.1600,2.420
24.2000,2.454
24.2400,2.408
24.2800,2.337
24.3200,2.430
24.3600,2.303
24.4000,2.393
24.4400,2.500
24.4800,2.410
24.5200,2.388
24.5600,2.383
24.6000,2.377
24.6400,2.431
24.6800,2.410
24.7200,2.359
24.7600,2.394
24.8000,2.405
24.8400,2.417
24.8800,2.416
24.9200,2.389
24.9600,2.408
25.0000,2.333
25.0400,2.320
25.0800,2.356
25.1200,2.236
25.1600,2.307
25.2000,2.341
25.2400,2.382
25.2800,2.349
25.3200,2.350
25.3600,2.367
25.4000,2.315
25.4400,2.368
25.4800,2.253
25.5200,2.152
25.5600,2.355
25.6000,2.294
25.6400,2.279
25.6800,2.307
25.7200,2.238
25.7600,2.233
25.8000,2.254
25.8400,2.307
25.8800,2.265
25.9200,2.302
25.9600,2.254
26.0000,2.255
26.0400,2.193
26.0800,2.247
26.1200,2.168
26.1600,2.209
26.2000,2.288
26.2400,2.302
26.2800,2.273
26.3200,2.252
26.3600,2.299
26.4000,2.234
26.4400,2.277
26.4800,2.244
26.5200,2.173
26.5600,2.228
26.6000,2.256
26.6400,2.206
26.6800,2.049
26.7200,2.155
26.7600,2.218
26.8000,2.252
26.8400,2.207
26.8800,2.176
26.9200,2.246
26.9600,2.244
27.0000,2.170
27.0400,2.180
27.0800,2.157
27.1200,2.107
27.1600,2.230
27.2000,2.180
27.2400,2.161
27.2800,2.163
27.3200,2.136
27.3600,2.168
27.4000,2.204
27.4400,2.081
27.4800,2.156
27.5200,2.086
27.5600,2.135
27.6000,2.198
27.6400,2.097
27.6800,2.164
27.7200,2.136
27.7600,2.084
27.8000,2.067
27.8400,2.181
27.8800,2.112
27.9200,2.104
27.9600,2.050
28.0000,2.084
28.0400,2.034
28.0800,2.029
28.1200,2.066
28.1600,2.175
28.2000,2.135
28.2400,2.186
28.2800,2.091
28.3200,2.095
28.3600,2.145
28.4000,2.095
28.4400,2.103
28.4800,2.024
28.5200,2.111
28.5600,2.116
28.6000,2.107
28.6400,2.102
28.6800,2.074
28.7200,2.024
28.7600,2.057
28.8000,2.091
28.8400,2.056
28.8800,2.026
28.9200,2.054
28.9600,2.064
29.0000,1.912
29.0400,1.936
29.0800,1.949
29.1200,2.091
29.1600,2.016
29.2000,2.004
29.2400,1.995
29.2800,1.964
29.3200,1.990
29.3600,1.964
29.4000,1.897
29.4400,1.978
29.4800,1.922
29.5200,1.943
29.5600,1.982
29.6000,1.975
29.6400,2.010
29.6800,2.016
29.7200,1.972
29.7600,1.938
29.8000,1.924
29.8400,1.998
29.8800,1.926
29.9200,1.847
29.9600,1.892
30.0000,1.976
30.0400,1.915
30.0800,1.977
30.1200,1.934
30.1600,1.980
30.2000,1.889
30.2400,1.866
30.2800,1.918
30.3200,1.926
30.3600,1.928
30.4000,1.852
30.4400,1.931
30.4800,1.900
30.5200,1.817
30.5600,1.888
30.6000,1.863
30.6400,1.889
30.6800,1.876
30.7200,1.829
30.7600,1.820
30.8000,1.839
30.8400,1.908
30.8800,1.853
30.9200,1.839
30.9600,1.848
31.0000,1.765
31.0400,1.807
31.0800,1.804
31.1200,1.847
31.1600,1.836
31.2000,1.839
31.2400,1.863
31.2800,1.830
31.3200,1.771
31.3600,1.872
31.4000,1.828
31.4400,1.802
31.4800,1.774
31.5200,1.808
31.5600,1.955
31.6000,1.826
31.6400,1.771
31.6800,1.845
31.7200,1.867
31.7600,1.873
31.8000,1.786
31.8400,1.813
31.8800,1.802
31.9200,1.809
31.9600,1.826
32.0000,1.830
32.0400,1.789
32.0800,1.790
32.1200,1.846
32.1600,1.740
32.2000,1.788
32.2400,1.785
32.2800,1.828
32.3200,1.701
32.3600,1.755
32.4000,1.713
32.4400,1.759
32.4800,1.796
32.5200,1.653
32.5600,1.812
32.6000,1.823
32.6400,1.748
32.6800,1.672
32.7200,1.776
32.7600,1.818
32.8000,1.801
32.8400,1.762
32.8800,1.747
32.9200,1.739
32.9600,1.663
33.0000,1.760
33.0400,1.734
33.0800,1.785
33.1200,1.721
33.1600,1.824
33.2000,1.716
33.2400,1.726
33.2800,1.714
33.3200,1.728
33.3600,1.656
33.4000,1.707
33.4400,1.655
33.4800,1.702
33.5200,1.698
33.5600,1.651
33.6000,1.689
33.6400,1.693
33.6800,1.656
33.7200,1.689
33.7600,1.691
33.8000,1.628
33.8400,1.718
33.8800,1.625
33.9200,1.710
33.9600,1.639
34.0000,1.646
34.0400,1.671
34.0800,1.665
34.1200,1.644
34.1600,1.674
34.2000,1.719
34.2400,1.643
34.2800,1.602
34.3200,1.678
34.3600,1.662
34.4000,1.792
34.4400,1.604
34.4800,1.666
34.5200,1.682
34.5600,1.635
34.6000,1.675
34.6400,1.611
34.6800,1.610
34.7200,1.598
34.7600,1.675
34.8000,1.620
34.8400,1.640
34.8800,1.631
34.9200,1.661
34.9600,1.706
35.0000,1.707
35.0400,1.590
35.0800,1.694
35.1200,1.684
35.1600,1.618
35.2000,1.615
35.2400,1.686
35.2800,1.680
35.3200,1.612
35.3600,1.641
35.4000,1.601
35.4400,1.591
35.4800,1.642
35.5200,1.633
35.5600,1.618
35.6000,1.689
35.6400,1.619
35.6800,1.680
35.7200,1.638
35.7600,1.612
35.8000,1.619
35.8400,1.686
35.8800,1.681
35.9200,1.693
35.9600,1.737
36.0000,1.618
36.0400,1.751
36.0800,1.755
36.1200,1.764
36.1600,1.727
36.2000,1.685
36.2400,1.738
36.2800,1.702
36.3200,1.718
36.3600,1.736
36.4000,1.733
36.4400,1.774
36.4800,1.770
36.5200,1.759
36.5600,1.686
36.6000,1.753
36.6400,1.725
36.6800,1.722
36.7200,1.804
36.7600,1.740
36.8000,1.733
36.8400,1.800
36.8800,1.859
36.9200,1.865
36.9600,1.762
37.0000,1.807
37.0400,1.904
37.0800,1.915
37.1200,1.898
37.1600,2.010
37.2000,1.953
37.2400,2.029
37.2800,2.061
37.3200,2.182
37.3600,2.200
37.4000,2.204
37.4400,2.273
37.4800,2.175
37.5200,2.411
37.5600,2.357
37.6000,2.605
37.6400,2.843
37.6800,2.878
37.7200,3.096
37.7600,3.287
37.8000,3.485
37.8400,3.917
37.8800,4.379
37.9200,4.967
37.9600,5.806
38.0000,6.856
38.0400,8.258
38.0800,10.589
38.1200,13.606
38.1600,18.313
38.2000,24.584
38.2400,29.737
38.2800,31.468
38.3200,29.872
38.3600,25.968
38.4000,21.248
38.4400,16.194
38.4800,12.486
38.5200,9.684
38.5600,7.689
38.6000,6.534
38.6400,5.515
38.6800,4.895
38.7200,4.354
38.7600,3.867
38.8000,3.601
38.8400,3.252
38.8800,3.013
38.9200,2.963
38.9600,2.796
39.0000,2.542
39.0400,2.555
39.0800,2.418
39.1200,2.288
39.1600,2.300
39.2000,2.187
39.2400,2.064
39.2800,2.031
39.3200,1.906
39.3600,1.969
39.4000,1.947
39.4400,1.790
39.4800,1.840
39.5200,1.816
39.5600,1.813
39.6000,1.753
39.6400,1.768
39.6800,1.719
39.7200,1.703
39.7600,1.664
39.8000,1.711
39.8400,1.648
39.8800,1.607
39.9200,1.682
39.9600,1.601
40.0000,1.499
40.0400,1.556
40.0800,1.598
40.1200,1.654
40.1600,1.516
40.2000,1.499
40.2400,1.503
40.2800,1.520
40.3200,1.498
40.3600,1.571
40.4000,1.510
40.4400,1.570
40.4800,1.604
40.5200,1.489
40.5600,1.539
40.6000,1.538
40.6400,1.517
40.6800,1.483
40.7200,1.416
40.7600,1.441
40.8000,1.447
40.8400,1.469
40.8800,1.480
40.9200,1.439
40.9600,1.411
41.0000,1.470
41.0400,1.446
41.0800,1.442
41.1200,1.460
41.1600,1.374
41.2000,1.361
41.2400,1.414
41.2800,1.411
41.3200,1.446
41.3600,1.392
41.4000,1.379
41.4400,1.408
41.4800,1.383
41.5200,1.363
41.5600,1.392
41.6000,1.398
41.6400,1.461
41.6800,1.444
41.7200,1.356
41.7600,1.341
41.8000,1.314
41.8400,1.376
41.8800,1.411
41.9200,1.300
41.9600,1.369
42.0000,1.336
42.0400,1.303
42.0800,1.338
42.1200,1.328
42.1600,1.362
42.2000,1.304
42.2400,1.364
42.2800,1.364
42.3200,1.375
42.3600,1.361
42.4000,1.364
42.4400,1.434
42.4800,1.326
42.5200,1.382
42.5600,1.335
42.6000,1.384
42.6400,1.401
42.6800,1.400
42.7200,1.295
42.7600,1.340
42.8000,1.380
42.8400,1.392
42.8800,1.448
42.9200,1.392
42.9600,1.475
43.0000,1.326
43.0400,1.403
43.0800,1.445
43.1200,1.429
43.1600,1.412
43.2000,1.430
43.2400,1.426
43.2800,1.538
43.3200,1.510
43.3600,1.473
43.4000,1.491
43.4400,1.586
43.4800,1.553
43.5200,1.604
43.5600,1.687
43.6000,1.605
43.6400,1.632
43.6800,1.764
43.7200,1.777
43.7600,1.786
43.8000,1.887
43.8400,1.891
43.8800,2.039
43.9200,2.184
43.9600,2.280
44.0000,2.324
44.0400,2.535
44.0800,2.658
44.1200,2.861
44.1600,3.023
44.2000,3.455
44.2400,3.830
44.2800,4.248
44.3200,4.828
44.3600,5.242
44.4000,6.069
44.4400,6.754
44.4800,7.398
44.5200,7.680
44.5600,7.364
44.6000,7.080
44.6400,6.630
44.6800,5.868
44.7200,5.248
44.7600,4.713
44.8000,4.112
44.8400,3.674
44.8800,3.322
44.9200,2.988
44.9600,2.690
45.0000,2.429
45.0400,2.192
45.0800,2.105
45.1200,1.956
45.1600,1.843
45.2000,1.805
45.2400,1.680
45.2800,1.676
45.3200,1.559
45.3600,1.479
45.4000,1.462
45.4400,1.510
45.4800,1.422
45.5200,1.417
45.5600,1.377
45.6000,1.309
45.6400,1.194
45.6800,1.347
45.7200,1.235
45.7600,1.275
45.8000,1.187
45.8400,1.177
45.8800,1.156
45.9200,1.161
45.9600,1.147
46.0000,1.138
46.0400,1.140
46.0800,1.105
46.1200,1.112
46.1600,1.060
46.2000,1.115
46.2400,1.149
46.2800,1.093
46.3200,1.156
46.3600,1.019
46.4000,1.030
46.4400,1.115
46.4800,1.109
46.5200,1.056
46.5600,1.033
46.6000,1.080
46.6400,1.053
46.6800,1.006
46.7200,1.025
46.7600,1.062
46.8000,1.006
46.8400,1.015
46.8800,1.021
46.9200,0.994
46.9600,0.995
47.0000,1.005
47.0400,1.024
47.0800,0.987
47.1200,0.981
47.1600,0.988
47.2000,1.038
47.2400,0.955
47.2800,0.973
47.3200,0.967
47.3600,0.986
47.4000,0.983
47.4400,0.988
47.4800,0.967
47.5200,1.019
47.5600,1.009
47.6000,0.973
47.6400,0.943
47.6800,0.951
47.7200,1.015
47.7600,0.937
47.8000,0.916
47.8400,0.906
47.8800,0.938
47.9200,0.905
47.9600,0.951
48.0000,0.944
48.0400,0.994
48.0800,0.900
48.1200,0.876
48.1600,0.904
48.2000,0.852
48.2400,0.916
48.2800,0.938
48.3200,0.973
48.3600,0.922
48.4000,0.929
48.4400,0.888
48.4800,0.872
48.5200,0.874
48.5600,0.892
48.6000,0.897
48.6400,0.933
48.6800,0.920
48.7200,0.901
48.7600,0.909
48.8000,0.910
48.8400,0.944
48.8800,0.932
48.9200,0.869
48.9600,0.862
49.0000,0.817
49.0400,0.892
49.0800,0.915
49.1200,0.854
49.1600,0.887
49.2000,0.897
49.2400,0.858
49.2800,0.819
49.3200,0.896
49.3600,0.878
49.4000,0.853
49.4400,0.860
49.4800,0.783
49.5200,0.867
49.5600,0.839
49.6000,0.879
49.6400,0.885
49.6800,0.848
49.7200,0.843
49.7600,0.809
49.8000,0.879
49.8400,0.866
49.8800,0.785
49.9200,0.838
49.9600,0.837
50.0000,0.814
50.0400,0.881
50.0800,0.838
50.1200,0.803
50.1600,0.827
50.2000,0.817
50.2400,0.801
50.2800,0.822
50.3200,0.811
50.3600,0.846
50.4000,0.857
50.4400,0.858
50.4800,0.828
50.5200,0.876
50.5600,0.807
50.6000,0.819
50.6400,0.901
50.6800,0.821
50.7200,0.828
50.7600,0.834
50.8000,0.847
50.8400,0.789
50.8800,0.775
50.9200,0.770
50.9600,0.789
51.0000,0.851
51.0400,0.838
51.0800,0.810
51.1200,0.771
51.1600,0.793
51.2000,0.840
51.2400,0.822
51.2800,0.783
51.3200,0.833
51.3600,0.818
51.4000,0.806
51.4400,0.769
51.4800,0.819
51.5200,0.754
51.5600,0.808
51.6000,0.808
51.6400,0.796
51.6800,0.773
51.7200,0.769
51.7600,0.810
51.8000,0.768
51.8400,0.790
51.8800,0.814
51.9200,0.776
51.9600,0.788
52.0000,0.777
52.0400,0.775
52.0800,0.789
52.1200,0.784
52.1600,0.788
52.2000,0.772
52.2400,0.785
52.2800,0.809
52.3200,0.792
52.3600,0.779
52.4000,0.744
52.4400,0.836
52.4800,0.725
52.5200,0.725
52.5600,0.833
52.6000,0.734
52.6400,0.758
52.6800,0.777
52.7200,0.730
52.7600,0.737
52.8000,0.810
52.8400,0.745
52.8800,0.750
52.9200,0.751
52.9600,0.757
53.0000,0.756
53.0400,0.756
53.0800,0.785
53.1200,0.741
53.1600,0.768
53.2000,0.752
53.2400,0.777
53.2800,0.713
53.3200,0.721
53.3600,0.760
53.4000,0.759
53.4400,0.737
53.4800,0.717
53.5200,0.707
53.5600,0.732
53.6000,0.733
53.6400,0.715
53.6800,0.727
53.7200,0.717
53.7600,0.736
53.8000,0.739
53.8400,0.708
53.8800,0.748
53.9200,0.739
53.9600,0.723
54.0000,0.782
54.0400,0.716
54.0800,0.711
54.1200,0.698
54.1600,0.708
54.2000,0.729
54.2400,0.719
54.2800,0.767
54.3200,0.708
54.3600,0.740
54.4000,0.713
54.4400,0.743
54.4800,0.701
54.5200,0.724
54.5600,0.715
54.6000,0.759
54.6400,0.713
54.6800,0.686
54.7200,0.701
54.7600,0.688
54.8000,0.694
54.8400,0.720
54.8800,0.755
54.9200,0.660
54.9600,0.680
55.0000,0.704
55.0400,0.703
55.0800,0.727
55.1200,0.646
55.1600,0.681
55.2000,0.696
55.2400,0.642
55.2800,0.671
55.3200,0.711
55.3600,0.676
55.4000,0.692
55.4400,0.744
55.4800,0.700
55.5200,0.716
55.5600,0.693
55.6000,0.736
55.6400,0.730
55.6800,0.643
55.7200,0.659
55.7600,0.703
55.8000,0.718
55.8400,0.688
55.8800,0.665
55.9200,0.730
55.9600,0.711
56.0000,0.692
56.0400,0.726
56.0800,0.714
56.1200,0.630
56.1600,0.650
56.2000,0.682
56.2400,0.710
56.2800,0.670
56.3200,0.639
56.3600,0.677
56.4000,0.709
56.4400,0.676
56.4800,0.666
56.5200,0.705
56.5600,0.680
56.6000,0.703
56.6400,0.636
56.6800,0.707
56.7200,0.648
56.7600,0.685
56.8000,0.713
56.8400,0.651
56.8800,0.691
56.9200,0.709
56.9600,0.661
57.0000,0.660
57.0400,0.646
57.0800,0.664
57.1200,0.660
57.1600,0.672
57.2000,0.714
57.2400,0.621
57.2800,0.602
57.3200,0.693
57.3600,0.643
57.4000,0.658
57.4400,0.679
57.4800,0.673
57.5200,0.652
57.5600,0.659
57.6000,0.616
57.6400,0.663
57.6800,0.661
57.7200,0.664
57.7600,0.675
57.8000,0.648
57.8400,0.622
57.8800,0.647
57.9200,0.672
57.9600,0.619
58.0000,0.705
58.0400,0.633
58.0800,0.685
58.1200,0.647
58.1600,0.634
58.2000,0.619
58.2400,0.661
58.2800,0.661
58.3200,0.665
58.3600,0.653
58.4000,0.697
58.4400,0.660
58.4800,0.661
58.5200,0.639
58.5600,0.646
58.6000,0.655
58.6400,0.683
58.6800,0.691
58.7200,0.638
58.7600,0.599
58.8000,0.658
58.8400,0.668
58.8800,0.637
58.9200,0.683
58.9600,0.645
59.0000,0.633
59.0400,0.638
59.0800,0.590
59.1200,0.598
59.1600,0.617
59.2000,0.642
59.2400,0.609
59.2800,0.622
59.3200,0.573
59.3600,0.676
59.4000,0.605
59.4400,0.574
59.4800,0.621
59.5200,0.631
59.5600,0.603
59.6000,0.623
59.6400,0.646
59.6800,0.645
59.7200,0.609
59.7600,0.629
59.8000,0.660
59.8400,0.601
59.8800,0.600
59.9200,0.611
59.9600,0.598
60.0000,0.637
60.0400,0.602
60.0800,0.632
60.1200,0.631
60.1600,0.584
60.2000,0.571
60.2400,0.645
60.2800,0.619
60.3200,0.615
60.3600,0.661
60.4000,0.621
60.4400,0.607
60.4800,0.619
60.5200,0.654
60.5600,0.573
60.6000,0.662
60.6400,0.640
60.6800,0.574
60.7200,0.591
60.7600,0.622
60.8000,0.604
60.8400,0.609
60.8800,0.601
60.9200,0.637
60.9600,0.577
61.0000,0.591
61.0400,0.622
61.0800,0.620
61.1200,0.670
61.1600,0.608
61.2000,0.596
61.2400,0.602
61.2800,0.573
61.3200,0.600
61.3600,0.572
61.4000,0.577
61.4400,0.561
61.4800,0.606
61.5200,0.627
61.5600,0.565
61.6000,0.627
61.6400,0.643
61.6800,0.672
61.7200,0.646
61.7600,0.639
61.8000,0.565
61.8400,0.585
61.8800,0.621
61.9200,0.617
61.9600,0.608
62.0000,0.566
62.0400,0.619
62.0800,0.567
62.1200,0.612
62.1600,0.591
62.2000,0.571
62.2400,0.572
62.2800,0.577
62.3200,0.582
62.3600,0.609
62.4000,0.584
62.4400,0.585
62.4800,0.593
62.5200,0.591
62.5600,0.560
62.6000,0.612
62.6400,0.590
62.6800,0.630
62.7200,0.606
62.7600,0.629
62.8000,0.600
62.8400,0.641
62.8800,0.642
62.9200,0.615
62.9600,0.672
63.0000,0.630
63.0400,0.676
63.0800,0.610
63.1200,0.653
63.1600,0.670
63.2000,0.668
63.2400,0.619
63.2800,0.627
63.3200,0.728
63.3600,0.617
63.4000,0.655
63.4400,0.707
63.4800,0.733
63.5200,0.635
63.5600,0.677
63.6000,0.705
63.6400,0.737
63.6800,0.727
63.7200,0.758
63.7600,0.722
63.8000,0.782
63.8400,0.803
63.8800,0.793
63.9200,0.840
63.9600,0.836
64.0000,0.900
64.0400,0.896
64.0800,0.961
64.1200,0.963
64.1600,0.999
64.2000,1.038
64.2400,1.152
64.2800,1.232
64.3200,1.341
64.3600,1.418
64.4000,1.539
64.4400,1.758
64.4800,2.016
64.5200,2.330
64.5600,2.758
64.6000,3.328
64.6400,3.765
64.6800,4.234
64.7200,4.305
64.7600,4.328
64.8000,4.228
64.8400,3.887
64.8800,3.644
64.9200,3.312
64.9600,2.958
65.0000,2.544
65.0400,2.190
65.0800,1.983
65.1200,1.761
65.1600,1.547
65.2000,1.412
65.2400,1.342
65.2800,1.235
65.3200,1.189
65.3600,1.087
65.4000,1.023
65.4400,1.059
65.4800,1.019
65.5200,0.904
65.5600,0.960
65.6000,0.907
65.6400,0.876
65.6800,0.836
65.7200,0.834
65.7600,0.857
65.8000,0.822
65.8400,0.812
65.8800,0.852
65.9200,0.818
65.9600,0.821
66.0000,0.783
66.0400,0.766
66.0800,0.808
66.1200,0.758
66.1600,0.779
66.2000,0.728
66.2400,0.819
66.2800,0.758
66.3200,0.824
66.3600,0.784
66.4000,0.784
66.4400,0.818
66.4800,0.778
66.5200,0.777
66.5600,0.759
66.6000,0.727
66.6400,0.798
66.6800,0.883
66.7200,0.810
66.7600,0.867
66.8000,0.858
66.8400,0.828
66.8800,0.802
66.9200,0.866
66.9600,0.871
67.0000,0.844
67.0400,0.881
67.0800,0.938
67.1200,0.943
67.1600,0.899
67.2000,0.953
67.2400,0.924
67.2800,0.960
67.3200,0.918
67.3600,0.893
67.4000,0.974
67.4400,1.056
67.4800,1.053
67.5200,1.040
67.5600,0.989
67.6000,1.033
67.6400,1.074
67.6800,1.107
67.7200,1.080
67.7600,1.092
67.8000,1.162
67.8400,1.163
67.8800,1.196
67.9200,1.213
67.9600,1.191
68.0000,1.255
68.0400,1.288
68.0800,1.357
68.1200,1.374
68.1600,1.353
68.2000,1.401
68.2400,1.420
68.2800,1.436
68.3200,1.555
68.3600,1.461
68.4000,1.660
68.4400,1.678
68.4800,1.834
68.5200,1.921
68.5600,1.918
68.6000,2.113
68.6400,2.204
68.6800,2.402
68.7200,2.829
68.7600,3.631
68.8000,4.316
68.8400,5.158
68.8800,5.236
68.9200,5.534
68.9600,6.643
69.0000,9.381
69.0400,15.491
69.0800,34.002
69.1200,150.615
69.1600,335.899
69.2000,240.682
69.2400,66.583
69.2800,36.351
69.3200,92.407
69.3600,172.563
69.4000,117.140
69.4400,32.684
69.4800,12.543
69.5200,7.736
69.5600,5.704
69.6000,4.498
69.6400,3.810
69.6800,3.330
69.7200,2.960
69.7600,2.726
69.8000,2.559
69.8400,2.295
69.8800,2.188
69.9200,2.051
69.9600,1.961
70.0000,1.880
70.0400,1.913
70.0800,1.783
70.1200,1.678
70.1600,1.616
70.2000,1.555
70.2400,1.500
70.2800,1.507
70.3200,1.469
70.3600,1.429
70.4000,1.356
70.4400,1.319
70.4800,1.317
70.5200,1.212
70.5600,1.178
70.6000,1.107
70.6400,1.157
70.6800,1.083
70.7200,1.074
70.7600,1.083
70.8000,1.095
70.8400,1.044
70.8800,1.000
70.9200,1.004
70.9600,0.972
71.0000,0.944
71.0400,0.927
71.0800,0.933
71.1200,0.910
71.1600,0.855
71.2000,0.878
71.2400,0.800
71.2800,0.798
71.3200,0.847
71.3600,0.800
71.4000,0.807
71.4400,0.804
71.4800,0.753
71.5200,0.712
71.5600,0.743
71.6000,0.653
71.6400,0.726
71.6800,0.693
71.7200,0.697
71.7600,0.707
71.8000,0.673
71.8400,0.676
71.8800,0.676
71.9200,0.684
71.9600,0.623
72.0000,0.623
72.0400,0.628
72.0800,0.613
72.1200,0.613
72.1600,0.595
72.2000,0.582
72.2400,0.608
72.2800,0.611
72.3200,0.574
72.3600,0.627
72.4000,0.581
72.4400,0.593
72.4800,0.564
72.5200,0.568
72.5600,0.565
72.6000,0.516
72.6400,0.571
72.6800,0.533
72.7200,0.553
72.7600,0.531
72.8000,0.564
72.8400,0.498
72.8800,0.484
72.9200,0.552
72.9600,0.548
73.0000,0.527
73.0400,0.478
73.0800,0.511
73.1200,0.446
73.1600,0.520
73.2000,0.490
73.2400,0.509
73.2800,0.473
73.3200,0.495
73.3600,0.487
73.4000,0.463
73.4400,0.505
73.4800,0.507
73.5200,0.489
73.5600,0.477
73.6000,0.479
73.6400,0.513
73.6800,0.436
73.7200,0.472
73.7600,0.426
73.8000,0.443
73.8400,0.475
73.8800,0.455
73.9200,0.470
73.9600,0.465
74.0000,0.455
74.0400,0.453
74.0800,0.452
74.1200,0.451
74.1600,0.419
74.2000,0.464
74.2400,0.496
74.2800,0.436
74.3200,0.473
74.3600,0.430
74.4000,0.466
74.4400,0.461
74.4800,0.461
74.5200,0.422
74.5600,0.481
74.6000,0.417
74.6400,0.395
74.6800,0.429
74.7200,0.449
74.7600,0.471
74.8000,0.467
74.8400,0.430
74.8800,0.418
74.9200,0.434
74.9600,0.410
75.0000,0.410
75.0400,0.440
75.0800,0.388
75.1200,0.412
75.1600,0.461
75.2000,0.405
75.2400,0.437
75.2800,0.447
75.3200,0.462
75.3600,0.487
75.4000,0.388
75.4400,0.431
75.4800,0.436
75.5200,0.439
75.5600,0.434
75.6000,0.458
75.6400,0.457
75.6800,0.432
75.7200,0.450
75.7600,0.445
75.8000,0.445
75.8400,0.447
75.8800,0.442
75.9200,0.464
75.9600,0.430
76.0000,0.476
76.0400,0.414
76.0800,0.451
76.1200,0.458
76.1600,0.450
76.2000,0.475
76.2400,0.499
76.2800,0.500
76.3200,0.518
76.3600,0.482
76.4000,0.498
76.4400,0.467
76.4800,0.536
76.5200,0.472
76.5600,0.523
76.6000,0.533
76.6400,0.515
76.6800,0.499
76.7200,0.539
76.7600,0.568
76.8000,0.579
76.8400,0.565
76.8800,0.590
76.9200,0.601
76.9600,0.647
77.0000,0.674
77.0400,0.667
77.0800,0.702
77.1200,0.758
77.1600,0.802
77.2000,0.909
77.2400,0.913
77.2800,1.052
77.3200,1.137
77.3600,1.151
77.4000,1.311
77.4400,1.469
77.4800,1.751
77.5200,1.907
77.5600,2.204
77.6000,2.466
77.6400,2.855
77.6800,3.133
77.7200,3.407
77.7600,3.557
77.8000,3.371
77.8400,3.317
77.8800,3.151
77.9200,2.930
77.9600,2.796
78.0000,2.555
78.0400,2.368
78.0800,2.053
78.1200,1.751
78.1600,1.484
78.2000,1.419
78.2400,1.250
78.2800,1.080
78.3200,1.035
78.3600,0.898
78.4000,0.841
78.4400,0.792
78.4800,0.757
78.5200,0.714
78.5600,0.649
78.6000,0.677
78.6400,0.609
78.6800,0.603
78.7200,0.610
78.7600,0.570
78.8000,0.567
78.8400,0.546
78.8800,0.541
78.9200,0.515
78.9600,0.482
79.0000,0.405
79.0400,0.465
79.0800,0.507
79.1200,0.510
79.1600,0.483
79.2000,0.476
79.2400,0.433
79.2800,0.421
79.3200,0.428
79.3600,0.414
79.4000,0.423
79.4400,0.467
79.4800,0.442
79.5200,0.423
79.5600,0.413
79.6000,0.369
79.6400,0.381
79.6800,0.442
79.7200,0.407
79.7600,0.425
79.8000,0.387
79.8400,0.372
79.8800,0.384
79.9200,0.388
79.9600,0.352
80.0000,0.387
