theta,intensity
5.0000,6.455
5.0400,6.349
5.0800,6.211
5.1200,6.072
5.1600,6.087
5.2000,6.045
5.2400,6.078
5.2800,5.837
5.3200,5.795
5.3600,5.620
5.4000,5.556
5.4400,5.634
5.4800,5.224
5.5200,5.276
5.5600,5.168
5.6000,5.064
5.6400,4.990
5.6800,4.953
5.7200,4.853
5.7600,4.836
5.8000,4.744
5.8400,4.682
5.8800,4.573
5.9200,4.621
5.9600,4.558
6.0000,4.428
6.0400,4.350
6.0800,4.415
6.1200,4.426
6.1600,4.357
6.2000,4.350
6.2400,4.360
6.2800,4.286
6.3200,4.216
6.3600,4.230
6.4000,4.237
6.4400,4.334
6.4800,4.216
6.5200,4.256
6.5600,4.232
6.6000,4.260
6.6400,4.249
6.6800,4.235
6.7200,4.223
6.7600,4.292
6.8000,4.163
6.8400,4.168
6.8800,4.161
6.9200,4.238
6.9600,4.109
7.0000,4.170
7.0400,4.155
7.0800,4.204
7.1200,4.037
7.1600,4.117
7.2000,4.052
7.2400,4.138
7.2800,4.027
7.3200,4.072
7.3600,3.999
7.4000,4.057
7.4400,4.056
7.4800,3.994
7.5200,4.171
7.5600,4.176
7.6000,4.046
7.6400,4.053
7.6800,4.149
7.7200,4.044
7.7600,4.053
7.8000,4.049
7.8400,4.097
7.8800,4.137
7.9200,4.001
7.9600,3.992
8.0000,4.048
8.0400,3.858
8.0800,3.919
8.1200,3.950
8.1600,3.972
8.2000,3.874
8.2400,3.940
8.2800,3.888
8.3200,3.967
8.3600,3.993
8.4000,4.002
8.4400,4.005
8.4800,3.931
8.5200,3.846
8.5600,3.848
8.6000,3.889
8.6400,3.912
8.6800,3.960
8.7200,3.874
8.7600,3.871
8.8000,3.915
8.8400,3.877
8.8800,3.850
8.9200,3.738
8.9600,3.872
9.0000,3.859
9.0400,3.857
9.0800,3.949
9.1200,3.872
9.1600,3.800
9.2000,3.877
9.2400,3.802
9.2800,3.863
9.3200,3.848
9.3600,3.825
9.4000,3.809
9.4400,3.809
9.4800,3.751
9.5200,3.826
9.5600,3.867
9.6000,3.721
9.6400,3.699
9.6800,3.774
9.7200,3.763
9.7600,3.738
9.8000,3.761
9.8400,3.750
9.8800,3.734
9.9200,3.734
9.9600,3.694
10.0000,3.809
10.0400,3.767
10.0800,3.682
10.1200,3.713
10.1600,3.711
10.2000,3.793
10.2400,3.645
10.2800,3.895
10.3200,3.669
10.3600,3.804
10.4000,3.764
10.4400,3.752
10.4800,3.643
10.5200,3.687
10.5600,3.753
10.6000,3.666
10.6400,3.681
10.6800,3.709
10.7200,3.712
10.7600,3.757
10.8000,3.584
10.8400,3.725
10.8800,3.663
10.9200,3.617
10.9600,3.673
11.0000,3.646
11.0400,3.620
11.0800,3.653
11.1200,3.700
11.1600,3.683
11.2000,3.581
11.2400,3.675
11.2800,3.606
11.3200,3.557
11.3600,3.698
11.4000,3.598
11.4400,3.635
11.4800,3.599
11.5200,3.662
11.5600,3.544
11.6000,3.588
11.6400,3.498
11.6800,3.651
11.7200,3.507
11.7600,3.543
11.8000,3.557
11.8400,3.546
11.8800,3.583
11.9200,3.667
11.9600,3.547
12.0000,3.629
12.0400,3.582
12.0800,3.511
12.1200,3.463
12.1600,3.482
12.2000,3.599
12.2400,3.589
12.2800,3.621
12.3200,3.465
12.3600,3.513
12.4000,3.518
12.4400,3.491
12.4800,3.372
12.5200,3.384
12.5600,3.494
12.6000,3.442
12.6400,3.363
12.6800,3.437
12.7200,3.430
12.7600,3.393
12.8000,3.442
12.8400,3.416
12.8800,3.388
12.9200,3.447
12.9600,3.455
13.0000,3.519
13.0400,3.510
13.0800,3.270
13.1200,3.336
13.1600,3.356
13.2000,3.337
13.2400,3.540
13.2800,3.455
13.3200,3.384
13.3600,3.433
13.4000,3.328
13.4400,3.429
13.4800,3.425
13.5200,3.379
13.5600,3.349
13.6000,3.429
13.6400,3.352
13.6800,3.427
13.7200,3.300
13.7600,3.315
13.8000,3.330
13.8400,3.312
13.8800,3.423
13.9200,3.245
13.9600,3.274
14.0000,3.317
14.0400,3.299
14.0800,3.240
14.1200,3.325
14.1600,3.375
14.2000,3.328
14.2400,3.256
14.2800,3.268
14.3200,3.252
14.3600,3.310
14.4000,3.278
14.4400,3.094
14.4800,3.151
14.5200,3.289
14.5600,3.253
14.6000,3.308
14.6400,3.200
14.6800,3.129
14.7200,3.256
14.7600,3.155
14.8000,3.183
14.8400,3.270
14.8800,3.228
14.9200,3.302
14.9600,3.269
15.0000,3.246
15.0400,3.227
15.0800,3.270
15.1200,3.147
15.1600,3.232
15.2000,3.191
15.2400,3.343
15.2800,3.197
15.3200,3.271
15.3600,3.205
15.4000,3.272
15.4400,3.197
15.4800,3.173
15.5200,3.190
15.5600,3.166
15.6000,3.220
15.6400,3.155
15.6800,3.219
15.7200,3.190
15.7600,3.137
15.8000,3.208
15.8400,3.106
15.8800,3.080
15.9200,3.094
15.9600,3.035
16.0000,3.088
16.0400,3.174
16.0800,3.128
16.1200,3.051
16.1600,3.214
16.2000,3.136
16.2400,2.982
16.2800,3.062
16.3200,3.095
16.3600,3.075
16.4000,3.044
16.4400,3.118
16.4800,3.114
16.5200,2.992
16.5600,3.100
16.6000,3.083
16.6400,3.210
16.6800,3.036
16.7200,2.961
16.7600,3.054
16.8000,3.102
16.8400,3.050
16.8800,3.011
16.9200,3.108
16.9600,3.002
17.0000,2.907
17.0400,3.119
17.0800,3.066
17.1200,3.084
17.1600,3.011
17.2000,3.025
17.2400,3.015
17.2800,3.037
17.3200,3.019
17.3600,2.954
17.4000,2.942
17.4400,3.070
17.4800,3.013
17.5200,3.059
17.5600,2.973
17.6000,2.964
17.6400,2.999
17.6800,3.027
17.7200,3.023
17.7600,2.927
17.8000,2.888
17.8400,2.949
17.8800,2.967
17.9200,2.893
17.9600,2.947
18.0000,2.954
18.0400,2.908
18.0800,2.941
18.1200,2.951
18.1600,2.911
18.2000,2.920
18.2400,2.955
18.2800,2.983
18.3200,2.922
18.3600,2.908
18.4000,2.935
18.4400,2.940
18.4800,2.975
18.5200,2.838
18.5600,2.927
18.6000,2.854
18.6400,2.887
18.6800,2.950
18.7200,2.884
18.7600,2.776
18.8000,2.906
18.8400,2.777
18.8800,2.861
18.9200,2.805
18.9600,2.833
19.0000,2.895
19.0400,2.679
19.0800,2.787
19.1200,2.822
19.1600,2.834
19.2000,2.834
19.2400,2.775
19.2800,2.839
19.3200,2.760
19.3600,2.775
19.4000,2.830
19.4400,2.780
19.4800,2.853
19.5200,2.827
19.5600,2.827
19.6000,2.712
19.6400,2.745
19.6800,2.792
19.7200,2.786
19.7600,2.877
19.8000,2.826
19.8400,2.747
19.8800,2.809
19.9200,2.718
19.9600,2.718
20.0000,2.712
20.0400,2.839
20.0800,2.774
20.1200,2.756
20.1600,2.698
20.2000,2.695
20.2400,2.713
20.2800,2.744
20.3200,2.723
20.3600,2.666
20.4000,2.708
20.4400,2.793
20.4800,2.744
20.5200,2.756
20.5600,2.786
20.6000,2.661
20.6400,2.718
20.6800,2.693
20.7200,2.765
20.7600,2.719
20.8000,2.686
20.8400,2.845
20.8800,2.705
20.9200,2.708
20.9600,2.781
21.0000,2.758
21.0400,2.761
21.0800,2.778
21.1200,2.666
21.1600,2.733
21.2000,2.637
21.2400,2.746
21.2800,2.830
21.3200,3.006
21.3600,3.048
21.4000,2.969
21.4400,3.087
21.4800,3.001
21.5200,3.053
21.5600,2.911
21.6000,2.837
21.6400,2.784
21.6800,2.828
21.7200,2.786
21.7600,2.732
21.8000,2.644
21.8400,2.685
21.8800,2.645
21.9200,2.616
21.9600,2.631
22.0000,2.713
22.0400,2.566
22.0800,2.591
22.1200,2.569
22.1600,2.560
22.2000,2.520
22.2400,2.572
22.2800,2.608
22.3200,2.645
22.3600,2.532
22.4000,2.582
22.4400,2.549
22.4800,2.654
22.5200,2.556
22.5600,2.526
22.6000,2.510
22.6400,2.469
22.6800,2.536
22.7200,2.526
22.7600,2.453
22.8000,2.529
22.8400,2.582
22.8800,2.462
22.9200,2.480
22.9600,2.478
23.0000,2.504
23.0400,2.553
23.0800,2.443
23.1200,2.519
23.1600,2.500
23.2000,2.418
23.2400,2.423
23.2800,2.496
23.3200,2.438
23.3600,2.493
23.4000,2.504
23.4400,2.382
23.4800,2.344
23.5200,2.431
23.5600,2.409
23.6000,2.477
23.6400,2.419
23.6800,2.448
23.7200,2.377
23.7600,2.483
23.8000,2.400
23.8400,2.383
23.8800,2.411
23.9200,2.317
23.9600,2.436
24.0000,2.415
24.0400,2.450
24.0800,2.395
24.1200,2.400
24.1600,2.356
24.2000,2.328
24.2400,2.333
24.2800,2.468
24.3200,2.361
24.3600,2.352
24.4000,2.281
24.4400,2.260
24.4800,2.293
24.5200,2.351
24.5600,2.307
24.6000,2.321
24.6400,2.340
24.6800,2.420
24.7200,2.313
24.7600,2.326
24.8000,2.324
24.8400,2.331
24.8800,2.373
24.9200,2.308
24.9600,2.232
25.0000,2.327
25.0400,2.327
25.0800,2.334
25.1200,2.281
25.1600,2.373
25.2000,2.369
25.2400,2.284
25.2800,2.306
25.3200,2.193
25.3600,2.208
25.4000,2.243
25.4400,2.316
25.4800,2.138
25.5200,2.249
25.5600,2.231
25.6000,2.221
25.6400,2.217
25.6800,2.209
25.7200,2.338
25.7600,2.218
25.8000,2.286
25.8400,2.281
25.8800,2.207
25.9200,2.253
25.9600,2.195
26.0000,2.206
26.0400,2.207
26.0800,2.210
26.1200,2.196
26.1600,2.275
26.2000,2.261
26.2400,2.271
26.2800,2.131
26.3200,2.187
26.3600,2.257
26.4000,2.168
26.4400,2.234
26.4800,2.237
26.5200,2.329
26.5600,2.258
26.6000,2.212
26.6400,2.127
26.6800,2.181
26.7200,2.160
26.7600,2.143
26.8000,2.135
26.8400,2.136
26.8800,2.198
26.9200,2.188
26.9600,2.241
27.0000,2.163
27.0400,2.174
27.0800,2.164
27.1200,2.182
27.1600,2.160
27.2000,2.158
27.2400,2.140
27.2800,2.154
27.3200,2.120
27.3600,2.192
27.4000,2.141
27.4400,2.060
27.4800,2.101
27.5200,2.097
27.5600,2.181
27.6000,2.109
27.6400,2.099
27.6800,2.042
27.7200,2.146
27.7600,2.097
27.8000,2.108
27.8400,2.092
27.8800,2.058
27.9200,2.168
27.9600,2.032
28.0000,2.103
28.0400,2.075
28.0800,2.082
28.1200,2.015
28.1600,2.158
28.2000,2.147
28.2400,2.000
28.2800,2.085
28.3200,2.156
28.3600,2.100
28.4000,2.081
28.4400,2.135
28.4800,2.003
28.5200,2.056
28.5600,2.102
28.6000,2.114
28.6400,2.065
28.6800,2.067
28.7200,2.138
28.7600,2.139
28.8000,2.046
28.8400,2.113
28.8800,2.132
28.9200,2.058
28.9600,2.048
29.0000,2.102
29.0400,2.030
29.0800,2.152
29.1200,2.157
29.1600,2.082
29.2000,2.066
29.2400,2.137
29.2800,2.110
29.3200,2.152
29.3600,2.208
29.4000,2.204
29.4400,2.227
29.4800,2.217
29.5200,2.162
29.5600,2.209
29.6000,2.287
29.6400,2.274
29.6800,2.336
29.7200,2.377
29.7600,2.423
29.8000,2.395
29.8400,2.401
29.8800,2.576
29.9200,2.507
29.9600,2.613
30.0000,2.751
30.0400,2.929
30.0800,2.958
30.1200,3.054
30.1600,3.174
30.2000,3.267
30.2400,3.459
30.2800,3.796
30.3200,3.883
30.3600,4.450
30.4000,4.771
30.4400,5.147
30.4800,5.594
30.5200,5.946
30.5600,5.861
30.6000,5.689
30.6400,5.354
30.6800,4.702
30.7200,4.295
30.7600,3.802
30.8000,3.555
30.8400,3.249
30.8800,3.106
30.9200,2.876
30.9600,2.824
31.0000,2.685
31.0400,2.626
31.0800,2.438
31.1200,2.454
31.1600,2.315
31.2000,2.284
31.2400,2.275
31.2800,2.294
31.3200,2.125
31.3600,2.146
31.4000,2.154
31.4400,2.041
31.4800,1.963
31.5200,2.050
31.5600,2.017
31.6000,2.011
31.6400,1.972
31.6800,2.035
31.7200,1.994
31.7600,1.965
31.8000,1.995
31.8400,1.977
31.8800,1.940
31.9200,2.166
31.9600,2.339
32.0000,2.390
32.0400,2.274
32.0800,2.110
32.1200,1.981
32.1600,2.018
32.2000,1.854
32.2400,1.905
32.2800,1.850
32.3200,1.790
32.3600,1.790
32.4000,1.759
32.4400,1.803
32.4800,1.828
32.5200,1.821
32.5600,1.764
32.6000,1.817
32.6400,1.809
32.6800,1.819
32.7200,1.848
32.7600,1.812
32.8000,1.839
32.8400,1.822
32.8800,1.730
32.9200,1.806
32.9600,1.795
33.0000,1.711
33.0400,1.755
33.0800,1.766
33.1200,1.753
33.1600,1.731
33.2000,1.750
33.2400,1.703
33.2800,1.685
33.3200,1.761
33.3600,1.735
33.4000,1.685
33.4400,1.654
33.4800,1.654
33.5200,1.690
33.5600,1.682
33.6000,1.652
33.6400,1.672
33.6800,1.698
33.7200,1.640
33.7600,1.650
33.8000,1.738
33.8400,1.686
33.8800,1.675
33.9200,1.710
33.9600,1.671
34.0000,1.698
34.0400,1.657
34.0800,1.597
34.1200,1.633
34.1600,1.701
34.2000,1.712
34.2400,1.681
34.2800,1.640
34.3200,1.641
34.3600,1.700
34.4000,1.699
34.4400,1.763
34.4800,2.026
34.5200,2.060
34.5600,1.999
34.6000,2.013
34.6400,1.954
34.6800,1.939
34.7200,1.932
34.7600,1.804
34.8000,1.838
34.8400,1.809
34.8800,1.829
34.9200,1.982
34.9600,1.812
35.0000,1.984
35.0400,1.932
35.0800,2.099
35.1200,2.031
35.1600,2.095
35.2000,2.258
35.2400,2.267
35.2800,2.625
35.3200,2.891
35.3600,3.188
35.4000,3.540
35.4400,3.507
35.4800,3.409
35.5200,3.253
35.5600,2.983
35.6000,2.744
35.6400,2.598
35.6800,2.505
35.7200,2.275
35.7600,2.103
35.8000,2.036
35.8400,1.967
35.8800,1.891
35.9200,1.800
35.9600,1.752
36.0000,1.721
36.0400,1.677
36.0800,1.515
36.1200,1.585
36.1600,1.570
36.2000,1.513
36.2400,1.612
36.2800,1.541
36.3200,1.505
36.3600,1.519
36.4000,1.561
36.4400,1.516
36.4800,1.579
36.5200,1.468
36.5600,1.469
36.6000,1.445
36.6400,1.412
36.6800,1.535
36.7200,1.520
36.7600,1.502
36.8000,1.408
36.8400,1.477
36.8800,1.423
36.9200,1.463
36.9600,1.539
37.0000,1.462
37.0400,1.487
37.0800,1.540
37.1200,1.455
37.1600,1.460
37.2000,1.463
37.2400,1.589
37.2800,1.469
37.3200,1.489
37.3600,1.559
37.4000,1.528
37.4400,1.651
37.4800,2.116
37.5200,2.836
37.5600,3.129
37.6000,3.040
37.6400,2.807
37.6800,2.648
37.7200,2.422
37.7600,2.104
37.8000,1.991
37.8400,1.753
37.8800,1.721
37.9200,1.648
37.9600,1.561
38.0000,1.516
38.0400,1.491
38.0800,1.420
38.1200,1.470
38.1600,1.470
38.2000,1.368
38.2400,1.329
38.2800,1.391
38.3200,1.288
38.3600,1.336
38.4000,1.308
38.4400,1.374
38.4800,1.395
38.5200,1.437
38.5600,1.372
38.6000,1.354
38.6400,1.355
38.6800,1.255
38.7200,1.331
38.7600,1.321
38.8000,1.292
38.8400,1.334
38.8800,1.372
38.9200,1.373
38.9600,1.283
39.0000,1.266
39.0400,1.337
39.0800,1.257
39.1200,1.297
39.1600,1.389
39.2000,1.317
39.2400,1.376
39.2800,1.275
39.3200,1.373
39.3600,1.332
39.4000,1.671
39.4400,2.342
39.4800,2.554
39.5200,2.237
39.5600,2.437
39.6000,2.509
39.6400,1.979
39.6800,1.818
39.7200,1.816
39.7600,1.487
39.8000,1.458
39.8400,1.416
39.8800,1.377
39.9200,1.401
39.9600,1.505
40.0000,1.506
40.0400,1.681
40.0800,1.723
40.1200,2.119
40.1600,2.704
40.2000,3.415
40.2400,4.133
40.2800,4.415
40.3200,4.470
40.3600,4.201
40.4000,3.997
40.4400,3.808
40.4800,3.443
40.5200,3.076
40.5600,2.843
40.6000,2.506
40.6400,2.457
40.6800,2.091
40.7200,1.929
40.7600,1.767
40.8000,1.645
40.8400,1.586
40.8800,1.519
40.9200,1.448
40.9600,1.434
41.0000,1.350
41.0400,1.363
41.0800,1.295
41.1200,1.239
41.1600,1.204
41.2000,1.308
41.2400,1.324
41.2800,1.272
41.3200,1.226
41.3600,1.234
41.4000,1.245
41.4400,1.227
41.4800,1.217
41.5200,1.251
41.5600,1.189
41.6000,1.241
41.6400,1.248
41.6800,1.229
41.7200,1.268
41.7600,1.273
41.8000,1.240
41.8400,1.245
41.8800,1.302
41.9200,1.195
41.9600,1.235
42.0000,1.179
42.0400,1.192
42.0800,1.113
42.1200,1.144
42.1600,1.182
42.2000,1.156
42.2400,1.135
42.2800,1.159
42.3200,1.123
42.3600,1.129
42.4000,1.118
42.4400,1.152
42.4800,1.148
42.5200,1.145
42.5600,1.149
42.6000,1.106
42.6400,1.147
42.6800,1.199
42.7200,1.081
42.7600,1.074
42.8000,1.083
42.8400,1.107
42.8800,1.098
42.9200,1.111
42.9600,1.041
43.0000,1.181
43.0400,1.081
43.0800,1.088
43.1200,1.056
43.1600,1.085
43.2000,0.999
43.2400,1.033
43.2800,1.044
43.3200,1.110
43.3600,1.151
43.4000,1.096
43.4400,1.083
43.4800,1.043
43.5200,1.104
43.5600,1.079
43.6000,1.041
43.6400,1.152
43.6800,1.074
43.7200,1.063
43.7600,1.119
43.8000,1.167
43.8400,1.154
43.8800,1.087
43.9200,1.116
43.9600,1.100
44.0000,1.134
44.0400,1.069
44.0800,1.093
44.1200,1.074
44.1600,1.032
44.2000,1.053
44.2400,1.004
44.2800,1.058
44.3200,1.085
44.3600,1.029
44.4000,1.038
44.4400,1.033
44.4800,1.069
44.5200,1.042
44.5600,0.989
44.6000,1.032
44.6400,1.011
44.6800,1.015
44.7200,1.093
44.7600,1.018
44.8000,1.108
44.8400,1.214
44.8800,1.197
44.9200,1.160
44.9600,1.095
45.0000,1.116
45.0400,1.079
45.0800,1.071
45.1200,1.044
45.1600,1.053
45.2000,1.054
45.2400,1.112
45.2800,1.030
45.3200,1.074
45.3600,1.036
45.4000,1.066
45.4400,1.049
45.4800,1.054
45.5200,1.116
45.5600,1.070
45.6000,1.108
45.6400,1.196
45.6800,1.147
45.7200,1.070
45.7600,1.076
45.8000,0.996
45.8400,1.039
45.8800,1.028
45.9200,1.023
45.9600,1.021
46.0000,1.007
46.0400,1.006
46.0800,1.033
46.1200,0.986
46.1600,1.005
46.2000,0.977
46.2400,0.960
46.2800,0.935
46.3200,0.931
46.3600,0.989
46.4000,1.008
46.4400,0.965
46.4800,0.946
46.5200,0.919
46.5600,0.946
46.6000,0.897
46.6400,0.897
46.6800,0.970
46.7200,0.909
46.7600,0.962
46.8000,0.952
46.8400,0.977
46.8800,0.962
46.9200,0.931
46.9600,0.931
47.0000,0.923
47.0400,0.915
47.0800,0.938
47.1200,0.929
47.1600,0.910
47.2000,0.859
47.2400,0.921
47.2800,0.946
47.3200,0.881
47.3600,0.924
47.4000,0.865
47.4400,0.921
47.4800,0.922
47.5200,0.922
47.5600,0.940
47.6000,0.920
47.6400,0.868
47.6800,0.907
47.7200,0.889
47.7600,0.857
47.8000,0.903
47.8400,0.957
47.8800,0.896
47.9200,0.881
47.9600,0.861
48.0000,0.881
48.0400,0.972
48.0800,0.926
48.1200,0.870
48.1600,0.888
48.2000,0.870
48.2400,0.889
48.2800,0.909
48.3200,0.882
48.3600,0.851
48.4000,0.869
48.4400,0.917
48.4800,0.839
48.5200,0.882
48.5600,0.840
48.6000,0.887
48.6400,0.903
48.6800,0.892
48.7200,0.914
48.7600,0.906
48.8000,0.873
48.8400,0.862
48.8800,0.852
48.9200,0.815
48.9600,0.919
49.0000,0.896
49.0400,0.909
49.0800,0.907
49.1200,0.905
49.1600,0.862
49.2000,0.881
49.2400,0.948
49.2800,0.911
49.3200,0.846
49.3600,0.896
49.4000,0.924
49.4400,0.897
49.4800,0.915
49.5200,0.901
49.5600,0.934
49.6000,0.891
49.6400,0.834
49.6800,0.852
49.7200,0.848
49.7600,0.876
49.8000,0.831
49.8400,0.896
49.8800,0.848
49.9200,0.914
49.9600,0.918
50.0000,0.955
50.0400,0.978
50.0800,0.883
50.1200,0.877
50.1600,0.908
50.2000,0.974
50.2400,0.956
50.2800,1.012
50.3200,1.030
50.3600,1.028
50.4000,0.995
50.4400,0.995
50.4800,1.063
50.5200,1.079
50.5600,1.060
50.6000,1.176
50.6400,1.246
50.6800,1.257
50.7200,1.335
50.7600,1.371
50.8000,1.410
50.8400,1.527
50.8800,1.531
50.9200,1.619
50.9600,1.555
51.0000,1.572
51.0400,1.512
51.0800,1.466
51.1200,1.384
51.1600,1.368
51.2000,1.237
51.2400,1.197
51.2800,1.152
51.3200,1.086
51.3600,1.011
51.4000,0.981
51.4400,0.980
51.4800,0.986
51.5200,0.925
51.5600,0.905
51.6000,0.936
51.6400,0.904
51.6800,0.868
51.7200,0.874
51.7600,0.873
51.8000,0.910
51.8400,0.905
51.8800,0.887
51.9200,0.940
51.9600,0.958
52.0000,0.953
52.0400,0.976
52.0800,0.941
52.1200,0.927
52.1600,0.871
52.2000,0.866
52.2400,0.883
52.2800,0.839
52.3200,0.780
52.3600,0.852
52.4000,0.863
52.4400,0.864
52.4800,0.982
52.5200,1.012
52.5600,1.068
52.6000,1.059
52.6400,1.108
52.6800,1.094
52.7200,1.034
52.7600,1.081
52.8000,1.032
52.8400,0.912
52.8800,0.943
52.9200,0.937
52.9600,0.896
53.0000,0.918
53.0400,0.898
53.0800,0.891
53.1200,0.800
53.1600,0.819
53.2000,0.887
53.2400,0.858
53.2800,0.758
53.3200,0.710
53.3600,0.770
53.4000,0.719
53.4400,0.792
53.4800,0.740
53.5200,0.765
53.5600,0.745
53.6000,0.783
53.6400,0.709
53.6800,0.753
53.7200,0.740
53.7600,0.771
53.8000,0.766
53.8400,0.739
53.8800,0.754
53.9200,0.731
53.9600,0.715
54.0000,0.767
54.0400,0.711
54.0800,0.722
54.1200,0.755
54.1600,0.749
54.2000,0.762
54.2400,0.734
54.2800,0.742
54.3200,0.711
54.3600,0.754
54.4000,0.705
54.4400,0.736
54.4800,0.716
54.5200,0.687
54.5600,0.672
54.6000,0.710
54.6400,0.695
54.6800,0.696
54.7200,0.717
54.7600,0.776
54.8000,0.691
54.8400,0.716
54.8800,0.725
54.9200,0.752
54.9600,0.668
55.0000,0.726
55.0400,0.683
55.0800,0.685
55.1200,0.675
55.1600,0.709
55.2000,0.712
55.2400,0.720
55.2800,0.667
55.3200,0.755
55.3600,0.662
55.4000,0.761
55.4400,0.717
55.4800,0.676
55.5200,0.767
55.5600,0.731
55.6000,0.725
55.6400,0.709
55.6800,0.733
55.7200,0.695
55.7600,0.729
55.8000,0.802
55.8400,0.786
55.8800,0.761
55.9200,0.770
55.9600,0.728
56.0000,0.731
56.0400,0.747
56.0800,0.704
56.1200,0.750
56.1600,0.703
56.2000,0.738
56.2400,0.755
56.2800,0.699
56.3200,0.725
56.3600,0.659
56.4000,0.724
56.4400,0.782
56.4800,0.698
56.5200,0.674
56.5600,0.670
56.6000,0.670
56.6400,0.698
56.6800,0.661
56.7200,0.694
56.7600,0.655
56.8000,0.664
56.8400,0.691
56.8800,0.687
56.9200,0.730
56.9600,0.657
57.0000,0.643
57.0400,0.678
57.0800,0.672
57.1200,0.638
57.1600,0.675
57.2000,0.691
57.2400,0.650
57.2800,0.684
57.3200,0.650
57.3600,0.647
57.4000,0.604
57.4400,0.618
57.4800,0.611
57.5200,0.627
57.5600,0.654
57.6000,0.673
57.6400,0.708
57.6800,0.675
57.7200,0.645
57.7600,0.656
57.8000,0.676
57.8400,0.690
57.8800,0.708
57.9200,0.665
57.9600,0.685
58.0000,0.660
58.0400,0.650
58.0800,0.683
58.1200,0.653
58.1600,0.627
58.2000,0.744
58.2400,0.636
58.2800,0.646
58.3200,0.645
58.3600,0.634
58.4000,0.655
58.4400,0.662
58.4800,0.652
58.5200,0.647
58.5600,0.657
58.6000,0.653
58.6400,0.657
58.6800,0.666
58.7200,0.660
58.7600,0.595
58.8000,0.642
58.8400,0.665
58.8800,0.678
58.9200,0.713
58.9600,0.696
59.0000,0.718
59.0400,0.707
59.0800,0.682
59.1200,0.716
59.1600,0.645
59.2000,0.711
59.2400,0.665
59.2800,0.675
59.3200,0.678
59.3600,0.672
59.4000,0.682
59.4400,0.700
59.4800,0.659
59.5200,0.689
59.5600,0.710
59.6000,0.656
59.6400,0.719
59.6800,0.686
59.7200,0.703
59.7600,0.657
59.8000,0.705
59.8400,0.648
59.8800,0.724
59.9200,0.750
59.9600,0.695
60.0000,0.776
60.0400,0.757
60.0800,0.739
60.1200,0.752
60.1600,0.791
60.2000,0.838
60.2400,0.844
60.2800,0.860
60.3200,0.841
60.3600,0.917
60.4000,0.987
60.4400,1.004
60.4800,1.048
60.5200,0.989
60.5600,1.031
60.6000,1.017
60.6400,1.048
60.6800,1.058
60.7200,0.991
60.7600,1.019
60.8000,0.929
60.8400,0.895
60.8800,0.878
60.9200,0.819
60.9600,0.788
61.0000,0.688
61.0400,0.704
61.0800,0.728
61.1200,0.702
61.1600,0.665
61.2000,0.657
61.2400,0.708
61.2800,0.663
61.3200,0.718
61.3600,0.638
61.4000,0.651
61.4400,0.659
61.4800,0.665
61.5200,0.672
61.5600,0.679
61.6000,0.655
61.6400,0.716
61.6800,0.775
61.7200,0.690
61.7600,0.682
61.8000,0.657
61.8400,0.654
61.8800,0.660
61.9200,0.718
61.9600,0.740
62.0000,0.708
62.0400,0.742
62.0800,0.784
62.1200,0.752
62.1600,0.666
62.2000,0.669
62.2400,0.669
62.2800,0.684
62.3200,0.671
62.3600,0.660
62.4000,0.630
62.4400,0.586
62.4800,0.628
62.5200,0.635
62.5600,0.636
62.6000,0.592
62.6400,0.582
62.6800,0.576
62.7200,0.596
62.7600,0.605
62.8000,0.572
62.8400,0.636
62.8800,0.632
62.9200,0.577
62.9600,0.606
63.0000,0.588
63.0400,0.575
63.0800,0.588
63.1200,0.570
63.1600,0.578
63.2000,0.644
63.2400,0.590
63.2800,0.658
63.3200,0.657
63.3600,0.650
63.4000,0.724
63.4400,0.738
63.4800,0.787
63.5200,0.837
63.5600,0.757
63.6000,0.845
63.6400,0.856
63.6800,0.875
63.7200,0.775
63.7600,0.788
63.8000,0.789
63.8400,0.819
63.8800,0.740
63.9200,0.767
63.9600,0.835
64.0000,0.751
64.0400,0.710
64.0800,0.702
64.1200,0.749
64.1600,0.699
64.2000,0.694
64.2400,0.696
64.2800,0.611
64.3200,0.624
64.3600,0.658
64.4000,0.665
64.4400,0.592
64.4800,0.644
64.5200,0.655
64.5600,0.623
64.6000,0.655
64.6400,0.664
64.6800,0.604
64.7200,0.627
64.7600,0.616
64.8000,0.657
64.8400,0.659
64.8800,0.602
64.9200,0.645
64.9600,0.620
65.0000,0.653
65.0400,0.641
65.0800,0.602
65.1200,0.627
65.1600,0.630
65.2000,0.649
65.2400,0.621
65.2800,0.638
65.3200,0.622
65.3600,0.590
65.4000,0.631
65.4400,0.671
65.4800,0.635
65.5200,0.622
65.5600,0.588
65.6000,0.658
65.6400,0.626
65.6800,0.656
65.7200,0.639
65.7600,0.633
65.8000,0.695
65.8400,0.786
65.8800,0.695
65.9200,0.708
65.9600,0.682
66.0000,0.692
66.0400,0.659
66.0800,0.711
66.1200,0.693
66.1600,0.724
66.2000,0.760
66.2400,0.772
66.2800,0.797
66.3200,0.738
66.3600,0.755
66.4000,0.786
66.4400,0.799
66.4800,0.805
66.5200,0.824
66.5600,0.860
66.6000,0.846
66.6400,0.830
66.6800,0.815
66.7200,0.882
66.7600,0.859
66.8000,0.885
66.8400,0.899
66.8800,0.908
66.9200,0.921
66.9600,0.914
67.0000,0.972
67.0400,0.895
67.0800,1.011
67.1200,0.963
67.1600,1.023
67.2000,1.015
67.2400,1.079
67.2800,1.030
67.3200,1.079
67.3600,1.064
67.4000,1.112
67.4400,1.170
67.4800,1.153
67.5200,1.204
67.5600,1.170
67.6000,1.200
67.6400,1.291
67.6800,1.288
67.7200,1.285
67.7600,1.364
67.8000,1.388
67.8400,1.440
67.8800,1.402
67.9200,1.585
67.9600,1.538
68.0000,1.564
68.0400,1.602
68.0800,1.609
68.1200,1.648
68.1600,1.702
68.2000,1.724
68.2400,1.848
68.2800,1.933
68.3200,1.965
68.3600,2.060
68.4000,2.244
68.4400,2.156
68.4800,2.304
68.5200,2.394
68.5600,2.625
68.6000,2.937
68.6400,3.167
68.6800,3.703
68.7200,4.719
68.7600,5.980
68.8000,6.897
68.8400,6.968
68.8800,7.345
68.9200,8.629
68.9600,12.033
69.0000,20.798
69.0400,51.998
69.0800,254.609
69.1200,494.825
69.1600,300.556
69.2000,75.086
69.2400,49.825
69.2800,150.666
69.3200,252.638
69.3600,146.940
69.4000,37.477
69.4400,14.899
69.4800,9.649
69.5200,7.351
69.5600,6.027
69.6000,5.177
69.6400,4.586
69.6800,4.076
69.7200,3.745
69.7600,3.484
69.8000,3.262
69.8400,2.927
69.8800,2.826
69.9200,2.689
69.9600,2.617
70.0000,2.449
70.0400,2.331
70.0800,2.231
70.1200,2.176
70.1600,2.093
70.2000,2.054
70.2400,1.940
70.2800,1.901
70.3200,1.742
70.3600,1.771
70.4000,1.661
70.4400,1.544
70.4800,1.541
70.5200,1.558
70.5600,1.495
70.6000,1.385
70.6400,1.382
70.6800,1.389
70.7200,1.321
70.7600,1.305
70.8000,1.210
70.8400,1.213
70.8800,1.201
70.9200,1.172
70.9600,1.156
71.0000,1.119
71.0400,1.064
71.0800,1.059
71.1200,1.105
71.1600,0.995
71.2000,0.975
71.2400,0.946
71.2800,0.920
71.3200,0.913
71.3600,0.868
71.4000,0.824
71.4400,0.841
71.4800,0.876
71.5200,0.861
71.5600,0.840
71.6000,0.856
71.6400,0.796
71.6800,0.786
71.7200,0.747
71.7600,0.820
71.8000,0.696
71.8400,0.747
71.8800,0.660
71.9200,0.706
71.9600,0.711
72.0000,0.719
72.0400,0.706
72.0800,0.659
72.1200,0.647
72.1600,0.688
72.2000,0.650
72.2400,0.640
72.2800,0.607
72.3200,0.598
72.3600,0.591
72.4000,0.558
72.4400,0.572
72.4800,0.624
72.5200,0.560
72.5600,0.605
72.6000,0.569
72.6400,0.529
72.6800,0.527
72.7200,0.484
72.7600,0.522
72.8000,0.531
72.8400,0.503
72.8800,0.504
72.9200,0.548
72.9600,0.531
73.0000,0.508
73.0400,0.545
73.0800,0.507
73.1200,0.517
73.1600,0.501
73.2000,0.484
73.2400,0.509
73.2800,0.496
73.3200,0.558
73.3600,0.489
73.4000,0.513
73.4400,0.482
73.4800,0.528
73.5200,0.495
73.5600,0.507
73.6000,0.497
73.6400,0.460
73.6800,0.470
73.7200,0.492
73.7600,0.472
73.8000,0.487
73.8400,0.488
73.8800,0.456
73.9200,0.458
73.9600,0.434
74.0000,0.457
74.0400,0.420
74.0800,0.407
74.1200,0.431
74.1600,0.401
74.2000,0.404
74.2400,0.457
74.2800,0.417
74.3200,0.391
74.3600,0.435
74.4000,0.458
74.4400,0.428
74.4800,0.441
74.5200,0.424
74.5600,0.500
74.6000,0.466
74.6400,0.486
74.6800,0.460
74.7200,0.485
74.7600,0.475
74.8000,0.451
74.8400,0.515
74.8800,0.573
74.9200,0.522
74.9600,0.524
75.0000,0.498
75.0400,0.510
75.0800,0.501
75.1200,0.467
75.1600,0.503
75.2000,0.478
75.2400,0.430
75.2800,0.436
75.3200,0.399
75.3600,0.436
75.4000,0.426
75.4400,0.441
75.4800,0.436
75.5200,0.398
75.5600,0.423
75.6000,0.395
75.6400,0.386
75.6800,0.374
75.7200,0.405
75.7600,0.395
75.8000,0.413
75.8400,0.406
75.8800,0.446
75.9200,0.507
75.9600,0.485
76.0000,0.450
76.0400,0.437
76.0800,0.476
76.1200,0.535
76.1600,0.553
76.2000,0.543
76.2400,0.526
76.2800,0.512
76.3200,0.611
76.3600,0.549
76.4000,0.556
76.4400,0.507
76.4800,0.538
76.5200,0.522
76.5600,0.540
76.6000,0.498
76.6400,0.466
76.6800,0.462
76.7200,0.474
76.7600,0.476
76.8000,0.482
76.8400,0.449
76.8800,0.408
76.9200,0.440
76.9600,0.414
77.0000,0.444
77.0400,0.442
77.0800,0.415
77.1200,0.379
77.1600,0.395
77.2000,0.385
77.2400,0.375
77.2800,0.398
77.3200,0.377
77.3600,0.369
77.4000,0.381
77.4400,0.355
77.4800,0.345
77.5200,0.380
77.5600,0.374
77.6000,0.343
77.6400,0.369
77.6800,0.379
77.7200,0.377
77.7600,0.367
77.8000,0.397
77.8400,0.417
77.8800,0.393
77.9200,0.415
77.9600,0.417
78.0000,0.403
78.0400,0.418
78.0800,0.402
78.1200,0.421
78.1600,0.415
78.2000,0.420
78.2400,0.419
78.2800,0.417
78.3200,0.411
78.3600,0.392
78.4000,0.406
78.4400,0.399
78.4800,0.406
78.5200,0.392
78.5600,0.401
78.6000,0.417
78.6400,0.377
78.6800,0.418
78.7200,0.387
78.7600,0.379
78.8000,0.406
78.8400,0.356
78.8800,0.349
78.9200,0.349
78.9600,0.334
79.0000,0.404
79.0400,0.333
79.0800,0.358
79.1200,0.357
79.1600,0.335
79.2000,0.344
79.2400,0.363
79.2800,0.372
79.3200,0.342
79.3600,0.354
79.4000,0.320
79.4400,0.315
79.4800,0.321
79.5200,0.326
79.5600,0.317
79.6000,0.288
79.6400,0.322
79.6800,0.334
79.7200,0.327
79.7600,0.345
79.8000,0.290
79.8400,0.318
79.8800,0.302
79.9200,0.290
79.9600,0.305
80.0000,0.351
