theta,intensity
5.0000,5.209
5.0400,5.161
5.0800,5.200
5.1200,5.065
5.1600,5.200
5.2000,5.177
5.2400,5.144
5.2800,5.136
5.3200,5.138
5.3600,4.901
5.4000,5.019
5.4400,5.050
5.4800,5.101
5.5200,4.923
5.5600,5.007
5.6000,4.947
5.6400,4.847
5.6800,4.816
5.7200,4.753
5.7600,4.791
5.8000,4.552
5.8400,4.494
5.8800,4.507
5.9200,4.470
5.9600,4.431
6.0000,4.223
6.0400,4.236
6.0800,4.300
6.1200,4.308
6.1600,4.466
6.2000,4.322
6.2400,4.444
6.2800,4.295
6.3200,4.231
6.3600,4.251
6.4000,4.095
6.4400,4.139
6.4800,4.250
6.5200,4.184
6.5600,4.136
6.6000,4.206
6.6400,4.255
6.6800,4.020
6.7200,4.090
6.7600,4.112
6.8000,4.088
6.8400,4.095
6.8800,4.023
6.9200,4.052
6.9600,4.060
7.0000,4.088
7.0400,3.955
7.0800,4.143
7.1200,4.041
7.1600,3.910
7.2000,4.023
7.2400,3.953
7.2800,3.940
7.3200,3.931
7.3600,3.997
7.4000,3.916
7.4400,3.889
7.4800,4.006
7.5200,3.933
7.5600,3.938
7.6000,3.964
7.6400,3.840
7.6800,3.989
7.7200,3.806
7.7600,3.929
7.8000,3.909
7.8400,3.811
7.8800,3.881
7.9200,3.909
7.9600,3.886
8.0000,3.865
8.0400,3.995
8.0800,3.822
8.1200,3.799
8.1600,3.907
8.2000,3.867
8.2400,3.853
8.2800,3.755
8.3200,3.839
8.3600,3.814
8.4000,3.862
8.4400,3.810
8.4800,3.888
8.5200,3.865
8.5600,3.866
8.6000,3.660
8.6400,3.767
8.6800,3.679
8.7200,3.795
8.7600,3.853
8.8000,3.769
8.8400,3.713
8.8800,3.772
8.9200,3.791
8.9600,3.841
9.0000,3.821
9.0400,3.836
9.0800,3.782
9.1200,3.700
9.1600,3.763
9.2000,3.693
9.2400,3.752
9.2800,3.767
9.3200,3.689
9.3600,3.738
9.4000,3.769
9.4400,3.642
9.4800,3.587
9.5200,3.731
9.5600,3.669
9.6000,3.710
9.6400,3.694
9.6800,3.733
9.7200,3.683
9.7600,3.619
9.8000,3.717
9.8400,3.673
9.8800,3.664
9.9200,3.557
9.9600,3.617
10.0000,3.669
10.0400,3.534
10.0800,3.703
10.1200,3.665
10.1600,3.721
10.2000,3.623
10.2400,3.535
10.2800,3.587
10.3200,3.665
10.3600,3.580
10.4000,3.706
10.4400,3.620
10.4800,3.608
10.5200,3.433
10.5600,3.639
10.6000,3.531
10.6400,3.613
10.6800,3.565
10.7200,3.561
10.7600,3.611
10.8000,3.569
10.8400,3.585
10.8800,3.536
10.9200,3.514
10.9600,3.519
11.0000,3.524
11.0400,3.620
11.0800,3.551
11.1200,3.497
11.1600,3.517
11.2000,3.550
11.2400,3.603
11.2800,3.441
11.3200,3.496
11.3600,3.431
11.4000,3.471
11.4400,3.424
11.4800,3.525
11.5200,3.556
11.5600,3.471
11.6000,3.483
11.6400,3.440
11.6800,3.564
11.7200,3.506
11.7600,3.477
11.8000,3.438
11.8400,3.544
11.8800,3.470
11.9200,3.406
11.9600,3.478
12.0000,3.442
12.0400,3.529
12.0800,3.341
12.1200,3.472
12.1600,3.518
12.2000,3.477
12.2400,3.419
12.2800,3.325
12.3200,3.459
12.3600,3.467
12.4000,3.444
12.4400,3.457
12.4800,3.273
12.5200,3.318
12.5600,3.376
12.6000,3.342
12.6400,3.462
12.6800,3.422
12.7200,3.459
12.7600,3.478
12.8000,3.461
12.8400,3.336
12.8800,3.440
12.9200,3.307
12.9600,3.257
13.0000,3.459
13.0400,3.309
13.0800,3.324
13.1200,3.383
13.1600,3.380
13.2000,3.415
13.2400,3.324
13.2800,3.388
13.3200,3.321
13.3600,3.336
13.4000,3.276
13.4400,3.303
13.4800,3.392
13.5200,3.238
13.5600,3.296
13.6000,3.289
13.6400,3.234
13.6800,3.162
13.7200,3.360
13.7600,3.435
13.8000,3.254
13.8400,3.170
13.8800,3.266
13.9200,3.206
13.9600,3.385
14.0000,3.220
14.0400,3.271
14.0800,3.291
14.1200,3.209
14.1600,3.278
14.2000,3.177
14.2400,3.217
14.2800,3.256
14.3200,3.212
14.3600,3.203
14.4000,3.403
14.4400,3.283
14.4800,3.278
14.5200,3.188
14.5600,3.159
14.6000,3.248
14.6400,3.238
14.6800,3.191
14.7200,3.183
14.7600,3.193
14.8000,3.287
14.8400,3.177
14.8800,3.097
14.9200,3.219
14.9600,3.151
15.0000,3.131
15.0400,3.235
15.0800,3.241
15.1200,3.200
15.1600,3.263
15.2000,3.094
15.2400,3.203
15.2800,3.193
15.3200,3.217
15.3600,3.107
15.4000,3.184
15.4400,3.176
15.4800,3.148
15.5200,3.110
15.5600,3.164
15.6000,3.039
15.6400,3.137
15.6800,3.139
15.7200,3.020
15.7600,3.141
15.8000,3.076
15.8400,3.093
15.8800,3.127
15.9200,3.048
15.9600,3.150
16.0000,3.056
16.0400,3.026
16.0800,2.987
16.1200,3.033
16.1600,3.139
16.2000,3.130
16.2400,3.106
16.2800,3.105
16.3200,3.101
16.3600,2.993
16.4000,3.060
16.4400,3.073
16.4800,3.070
16.5200,3.098
16.5600,2.970
16.6000,2.966
16.6400,3.051
16.6800,2.973
16.7200,3.095
16.7600,2.979
16.8000,2.948
16.8400,3.019
16.8800,3.010
16.9200,3.028
16.9600,3.077
17.0000,2.960
17.0400,2.944
17.0800,2.916
17.1200,2.992
17.1600,2.931
17.2000,2.979
17.2400,2.986
17.2800,2.989
17.3200,2.925
17.3600,2.905
17.4000,2.966
17.4400,2.986
17.4800,3.035
17.5200,3.003
17.5600,3.017
17.6000,2.951
17.6400,2.875
17.6800,2.912
17.7200,2.989
17.7600,2.876
17.8000,2.932
17.8400,2.771
17.8800,2.888
17.9200,3.003
17.9600,2.998
18.0000,2.955
18.0400,2.750
18.0800,2.791
18.1200,2.886
18.1600,2.853
18.2000,2.867
18.2400,2.919
18.2800,2.878
18.3200,2.724
18.3600,2.850
18.4000,2.856
18.4400,2.834
18.4800,2.851
18.5200,2.872
18.5600,2.809
18.6000,2.824
18.6400,2.804
18.6800,2.749
18.7200,2.824
18.7600,2.873
18.8000,2.842
18.8400,2.801
18.8800,2.852
18.9200,2.891
18.9600,2.837
19.0000,2.802
19.0400,2.792
19.0800,2.837
19.1200,2.790
19.1600,2.722
19.2000,2.794
19.2400,2.811
19.2800,2.819
19.3200,2.758
19.3600,2.820
19.4000,2.819
19.4400,2.734
19.4800,2.783
19.5200,2.737
19.5600,2.705
19.6000,2.724
19.6400,2.791
19.6800,2.755
19.7200,2.738
19.7600,2.738
19.8000,2.802
19.8400,2.767
19.8800,2.703
19.9200,2.681
19.9600,2.797
20.0000,2.726
20.0400,2.678
20.0800,2.611
20.1200,2.752
20.1600,2.699
20.2000,2.701
20.2400,2.676
20.2800,2.741
20.3200,2.732
20.3600,2.674
20.4000,2.620
20.4400,2.692
20.4800,2.710
20.5200,2.666
20.5600,2.528
20.6000,2.651
20.6400,2.588
20.6800,2.683
20.7200,2.621
20.7600,2.517
20.8000,2.642
20.8400,2.654
20.8800,2.600
20.9200,2.648
20.9600,2.632
21.0000,2.589
21.0400,2.621
21.0800,2.774
21.1200,2.669
21.1600,2.606
21.2000,2.537
21.2400,2.615
21.2800,2.534
21.3200,2.601
21.3600,2.616
21.4000,2.661
21.4400,2.630
21.4800,2.624
21.5200,2.677
21.5600,2.519
21.6000,2.636
21.6400,2.565
21.6800,2.559
21.7200,2.598
21.7600,2.615
21.8000,2.563
21.8400,2.521
21.8800,2.537
21.9200,2.639
21.9600,2.563
22.0000,2.614
22.0400,2.507
22.0800,2.561
22.1200,2.590
22.1600,2.592
22.2000,2.540
22.2400,2.570
22.2800,2.478
22.3200,2.488
22.3600,2.477
22.4000,2.519
22.4400,2.476
22.4800,2.491
22.5200,2.456
22.5600,2.589
22.6000,2.625
22.6400,2.467
22.6800,2.462
22.7200,2.525
22.7600,2.517
22.8000,2.526
22.8400,2.481
22.8800,2.415
22.9200,2.410
22.9600,2.447
23.0000,2.536
23.0400,2.471
23.0800,2.449
23.1200,2.548
23.1600,2.488
23.2000,2.360
23.2400,2.393
23.2800,2.327
23.3200,2.490
23.3600,2.474
23.4000,2.492
23.4400,2.401
23.4800,2.417
23.5200,2.383
23.5600,2.419
23.6000,2.366
23.6400,2.518
23.6800,2.401
23.7200,2.355
23.7600,2.317
23.8000,2.365
23.8400,2.482
23.8800,2.408
23.9200,2.344
23.9600,2.348
24.0000,2.314
24.0400,2.349
24.0800,2.304
24.1200,2.364
24.1600,2.409
24.2000,2.407
24.2400,2.468
24.2800,2.361
24.3200,2.444
24.3600,2.427
24.4000,2.399
24.4400,2.363
24.4800,2.428
24.5200,2.387
24.5600,2.352
24.6000,2.319
24.6400,2.326
24.6800,2.314
24.7200,2.344
24.7600,2.306
24.8000,2.329
24.8400,2.274
24.8800,2.316
24.9200,2.349
24.9600,2.328
25.0000,2.296
25.0400,2.233
25.0800,2.282
25.1200,2.346
25.1600,2.280
25.2000,2.247
25.2400,2.322
25.2800,2.245
25.3200,2.330
25.3600,2.307
25.4000,2.229
25.4400,2.251
25.4800,2.251
25.5200,2.238
25.5600,2.300
25.6000,2.238
25.6400,2.152
25.6800,2.168
25.7200,2.300
25.7600,2.276
25.8000,2.191
25.8400,2.261
25.8800,2.213
25.9200,2.236
25.9600,2.125
26.0000,2.122
26.0400,2.184
26.0800,2.201
26.1200,2.234
26.1600,2.152
26.2000,2.174
26.2400,2.190
26.2800,2.177
26.3200,2.181
26.3600,2.122
26.4000,2.158
26.4400,2.149
26.4800,2.223
26.5200,2.163
26.5600,2.085
26.6000,2.112
26.6400,2.237
26.6800,2.184
26.7200,2.239
26.7600,2.175
26.8000,2.097
26.8400,2.068
26.8800,2.118
26.9200,2.130
26.9600,2.136
27.0000,2.099
27.0400,2.097
27.0800,2.127
27.1200,2.111
27.1600,1.996
27.2000,2.149
27.2400,2.116
27.2800,2.149
27.3200,2.140
27.3600,2.100
27.4000,2.099
27.4400,2.121
27.4800,2.140
27.5200,2.113
27.5600,2.115
27.6000,2.139
27.6400,2.144
27.6800,2.143
27.7200,2.104
27.7600,2.161
27.8000,2.089
27.8400,2.164
27.8800,2.163
27.9200,2.172
27.9600,2.089
28.0000,2.171
28.0400,2.273
28.0800,2.254
28.1200,2.288
28.1600,2.290
28.2000,2.307
28.2400,2.337
28.2800,2.264
28.3200,2.269
28.3600,2.278
28.4000,2.285
28.4400,2.294
28.4800,2.187
28.5200,2.209
28.5600,2.167
28.6000,2.209
28.6400,2.081
28.6800,2.057
28.7200,2.105
28.7600,2.093
28.8000,2.034
28.8400,1.977
28.8800,2.011
28.9200,2.025
28.9600,2.048
29.0000,2.009
29.0400,2.059
29.0800,2.066
29.1200,2.056
29.1600,1.904
29.2000,1.936
29.2400,2.017
29.2800,1.972
29.3200,1.880
29.3600,1.964
29.4000,1.970
29.4400,2.040
29.4800,1.913
29.5200,1.922
29.5600,1.953
29.6000,1.893
29.6400,1.905
29.6800,1.901
29.7200,1.950
29.7600,1.917
29.8000,1.905
29.8400,1.890
29.8800,1.856
29.9200,1.941
29.9600,1.877
30.0000,1.905
30.0400,1.896
30.0800,1.858
30.1200,1.802
30.1600,1.885
30.2000,1.917
30.2400,1.861
30.2800,1.900
30.3200,1.825
30.3600,1.874
30.4000,1.902
30.4400,1.913
30.4800,1.914
30.5200,1.864
30.5600,1.844
30.6000,1.818
30.6400,1.851
30.6800,1.929
30.7200,1.877
30.7600,1.872
30.8000,1.904
30.8400,1.863
30.8800,1.810
30.9200,1.889
30.9600,1.830
31.0000,1.902
31.0400,1.876
31.0800,1.863
31.1200,1.924
31.1600,1.931
31.2000,1.889
31.2400,1.915
31.2800,1.856
31.3200,1.966
31.3600,1.885
31.4000,1.982
31.4400,1.976
31.4800,1.998
31.5200,1.976
31.5600,1.997
31.6000,1.985
31.6400,2.040
31.6800,2.109
31.7200,2.202
31.7600,2.249
31.8000,2.249
31.8400,2.379
31.8800,2.399
31.9200,2.245
31.9600,2.279
32.0000,2.284
32.0400,2.220
32.0800,2.148
32.1200,2.062
32.1600,2.137
32.2000,2.088
32.2400,2.061
32.2800,2.037
32.3200,1.986
32.3600,1.987
32.4000,1.925
32.4400,1.835
32.4800,1.871
32.5200,1.943
32.5600,1.820
32.6000,1.799
32.6400,1.850
32.6800,1.869
32.7200,1.802
32.7600,1.774
32.8000,1.795
32.8400,1.818
32.8800,1.754
32.9200,1.798
32.9600,1.871
33.0000,2.217
33.0400,2.641
33.0800,2.042
33.1200,1.768
33.1600,1.749
33.2000,1.744
33.2400,1.749
33.2800,1.719
33.3200,1.718
33.3600,1.819
33.4000,1.771
33.4400,1.677
33.4800,1.757
33.5200,1.698
33.5600,1.755
33.6000,1.719
33.6400,1.758
33.6800,1.777
33.7200,1.783
33.7600,1.823
33.8000,1.747
33.8400,1.788
33.8800,1.873
33.9200,1.770
33.9600,1.815
34.0000,1.796
34.0400,1.722
34.0800,1.840
34.1200,1.828
34.1600,1.867
34.2000,1.985
34.2400,1.898
34.2800,1.913
34.3200,1.958
34.3600,2.001
34.4000,1.911
34.4400,1.995
34.4800,1.916
34.5200,1.965
34.5600,1.936
34.6000,1.980
34.6400,1.936
34.6800,1.948
34.7200,1.886
34.7600,1.892
34.8000,1.953
34.8400,1.784
34.8800,1.830
34.9200,1.876
34.9600,1.861
35.0000,1.842
35.0400,1.758
35.0800,1.780
35.1200,1.746
35.1600,1.827
35.2000,1.739
35.2400,1.765
35.2800,1.747
35.3200,1.797
35.3600,1.792
35.4000,1.730
35.4400,1.729
35.4800,1.847
35.5200,1.703
35.5600,1.746
35.6000,1.738
35.6400,1.710
35.6800,1.844
35.7200,1.930
35.7600,1.844
35.8000,1.856
35.8400,1.929
35.8800,1.941
35.9200,2.066
35.9600,2.171
36.0000,2.107
36.0400,2.178
36.0800,2.245
36.1200,2.292
36.1600,2.356
36.2000,2.440
36.2400,2.537
36.2800,2.509
36.3200,2.563
36.3600,2.582
36.4000,2.533
36.4400,2.481
36.4800,2.415
36.5200,2.404
36.5600,2.335
36.6000,2.371
36.6400,2.224
36.6800,2.182
36.7200,2.170
36.7600,2.178
36.8000,1.975
36.8400,2.059
36.8800,1.935
36.9200,1.984
36.9600,1.892
37.0000,1.865
37.0400,1.870
37.0800,1.833
37.1200,1.843
37.1600,1.844
37.2000,1.784
37.2400,1.789
37.2800,1.789
37.3200,1.769
37.3600,1.820
37.4000,1.804
37.4400,1.812
37.4800,1.812
37.5200,1.763
37.5600,1.787
37.6000,1.795
37.6400,1.873
37.6800,1.881
37.7200,1.917
37.7600,1.889
37.8000,1.920
37.8400,1.912
37.8800,1.967
37.9200,1.936
37.9600,2.154
38.0000,2.146
38.0400,2.251
38.0800,2.345
38.1200,2.484
38.1600,2.640
38.2000,2.728
38.2400,3.098
38.2800,3.439
38.3200,3.670
38.3600,3.951
38.4000,4.146
38.4400,4.202
38.4800,4.096
38.5200,4.077
38.5600,3.815
38.6000,3.494
38.6400,3.245
38.6800,2.888
38.7200,2.752
38.7600,2.560
38.8000,2.396
38.8400,2.246
38.8800,2.129
38.9200,2.101
38.9600,2.061
39.0000,2.046
39.0400,1.898
39.0800,1.970
39.1200,1.850
39.1600,1.992
39.2000,1.927
39.2400,1.853
39.2800,1.860
39.3200,1.827
39.3600,1.846
39.4000,1.922
39.4400,1.822
39.4800,1.794
39.5200,1.888
39.5600,1.881
39.6000,1.929
39.6400,1.897
39.6800,1.876
39.7200,1.925
39.7600,2.010
39.8000,1.969
39.8400,2.002
39.8800,2.114
39.9200,2.102
39.9600,2.212
40.0000,2.293
40.0400,2.409
40.0800,2.484
40.1200,2.680
40.1600,2.768
40.2000,2.925
40.2400,3.098
40.2800,3.167
40.3200,3.219
40.3600,3.164
40.4000,3.205
40.4400,3.074
40.4800,2.906
40.5200,2.977
40.5600,2.814
40.6000,2.616
40.6400,2.590
40.6800,2.424
40.7200,2.289
40.7600,2.172
40.8000,2.223
40.8400,2.253
40.8800,2.160
40.9200,2.127
40.9600,2.152
41.0000,2.077
41.0400,2.090
41.0800,2.070
41.1200,2.141
41.1600,2.086
41.2000,2.104
41.2400,1.996
41.2800,1.945
41.3200,1.955
41.3600,2.016
41.4000,1.879
41.4400,1.920
41.4800,1.820
41.5200,1.747
41.5600,1.761
41.6000,1.709
41.6400,1.640
41.6800,1.627
41.7200,1.616
41.7600,1.594
41.8000,1.602
41.8400,1.561
41.8800,1.543
41.9200,1.466
41.9600,1.537
42.0000,1.494
42.0400,1.500
42.0800,1.374
42.1200,1.445
42.1600,1.440
42.2000,1.476
42.2400,1.448
42.2800,1.425
42.3200,1.396
42.3600,1.345
42.4000,1.396
42.4400,1.339
42.4800,1.346
42.5200,1.350
42.5600,1.359
42.6000,1.366
42.6400,1.378
42.6800,1.280
42.7200,1.349
42.7600,1.265
42.8000,1.328
42.8400,1.264
42.8800,1.273
42.9200,1.343
42.9600,1.304
43.0000,1.270
43.0400,1.265
43.0800,1.251
43.1200,1.280
43.1600,1.258
43.2000,1.249
43.2400,1.296
43.2800,1.198
43.3200,1.217
43.3600,1.247
43.4000,1.263
43.4400,1.266
43.4800,1.187
43.5200,1.250
43.5600,1.213
43.6000,1.202
43.6400,1.216
43.6800,1.234
43.7200,1.222
43.7600,1.243
43.8000,1.279
43.8400,1.197
43.8800,1.255
43.9200,1.229
43.9600,1.215
44.0000,1.280
44.0400,1.247
44.0800,1.281
44.1200,1.258
44.1600,1.323
44.2000,1.332
44.2400,1.273
44.2800,1.281
44.3200,1.369
44.3600,1.378
44.4000,1.351
44.4400,1.391
44.4800,1.417
44.5200,1.472
44.5600,1.436
44.6000,1.523
44.6400,1.532
44.6800,1.550
44.7200,1.518
44.7600,1.529
44.8000,1.498
44.8400,1.447
44.8800,1.450
44.9200,1.410
44.9600,1.416
45.0000,1.363
45.0400,1.321
45.0800,1.253
45.1200,1.219
45.1600,1.274
45.2000,1.211
45.2400,1.161
45.2800,1.162
45.3200,1.172
45.3600,1.110
45.4000,1.170
45.4400,1.111
45.4800,1.104
45.5200,1.087
45.5600,1.046
45.6000,1.093
45.6400,1.025
45.6800,1.035
45.7200,1.047
45.7600,1.084
45.8000,1.033
45.8400,1.035
45.8800,1.092
45.9200,1.089
45.9600,1.024
46.0000,1.077
46.0400,1.023
46.0800,1.076
46.1200,1.038
46.1600,1.055
46.2000,1.077
46.2400,1.024
46.2800,0.998
46.3200,0.982
46.3600,1.018
46.4000,1.020
46.4400,0.945
46.4800,1.006
46.5200,1.019
46.5600,0.983
46.6000,1.015
46.6400,0.976
46.6800,0.952
46.7200,0.982
46.7600,0.989
46.8000,0.999
46.8400,0.961
46.8800,1.000
46.9200,1.022
46.9600,1.009
47.0000,0.964
47.0400,1.011
47.0800,1.007
47.1200,0.979
47.1600,0.961
47.2000,0.998
47.2400,1.011
47.2800,0.993
47.3200,1.020
47.3600,1.052
47.4000,1.054
47.4400,1.059
47.4800,0.990
47.5200,1.054
47.5600,0.985
47.6000,1.016
47.6400,0.967
47.6800,0.983
47.7200,1.011
47.7600,0.981
47.8000,0.977
47.8400,1.006
47.8800,1.036
47.9200,0.932
47.9600,0.981
48.0000,0.916
48.0400,0.947
48.0800,1.016
48.1200,1.004
48.1600,0.932
48.2000,0.856
48.2400,0.944
48.2800,0.909
48.3200,0.940
48.3600,0.883
48.4000,0.866
48.4400,0.921
48.4800,0.941
48.5200,0.930
48.5600,0.871
48.6000,0.944
48.6400,0.921
48.6800,0.900
48.7200,0.899
48.7600,0.894
48.8000,0.891
48.8400,0.916
48.8800,0.889
48.9200,0.951
48.9600,0.920
49.0000,0.908
49.0400,0.891
49.0800,0.863
49.1200,0.920
49.1600,0.832
49.2000,0.829
49.2400,0.847
49.2800,0.914
49.3200,0.835
49.3600,0.845
49.4000,0.856
49.4400,0.920
49.4800,0.886
49.5200,0.911
49.5600,0.906
49.6000,0.873
49.6400,0.923
49.6800,0.908
49.7200,0.925
49.7600,0.918
49.8000,0.892
49.8400,0.881
49.8800,0.894
49.9200,0.874
49.9600,0.915
50.0000,0.890
50.0400,0.842
50.0800,0.889
50.1200,0.896
50.1600,0.918
50.2000,0.821
50.2400,0.894
50.2800,0.832
50.3200,0.846
50.3600,0.864
50.4000,0.862
50.4400,0.803
50.4800,0.853
50.5200,0.852
50.5600,0.829
50.6000,0.801
50.6400,0.858
50.6800,0.841
50.7200,0.859
50.7600,0.816
50.8000,0.817
50.8400,0.827
50.8800,0.815
50.9200,0.778
50.9600,0.776
51.0000,0.839
51.0400,0.778
51.0800,0.785
51.1200,0.835
51.1600,0.800
51.2000,0.767
51.2400,0.816
51.2800,0.815
51.3200,0.809
51.3600,0.843
51.4000,0.782
51.4400,0.826
51.4800,0.748
51.5200,0.759
51.5600,0.784
51.6000,0.773
51.6400,0.786
51.6800,0.782
51.7200,0.752
51.7600,0.819
51.8000,0.763
51.8400,0.761
51.8800,0.792
51.9200,0.784
51.9600,0.749
52.0000,0.756
52.0400,0.754
52.0800,0.745
52.1200,0.732
52.1600,0.752
52.2000,0.794
52.2400,0.706
52.2800,0.763
52.3200,0.761
52.3600,0.831
52.4000,0.743
52.4400,0.740
52.4800,0.768
52.5200,0.767
52.5600,0.813
52.6000,0.759
52.6400,0.743
52.6800,0.784
52.7200,0.807
52.7600,0.758
52.8000,0.772
52.8400,0.803
52.8800,0.791
52.9200,0.778
52.9600,0.790
53.0000,0.700
53.0400,0.789
53.0800,0.778
53.1200,0.784
53.1600,0.777
53.2000,0.762
53.2400,0.777
53.2800,0.776
53.3200,0.794
53.3600,0.748
53.4000,0.751
53.4400,0.743
53.4800,0.789
53.5200,0.765
53.5600,0.754
53.6000,0.752
53.6400,0.745
53.6800,0.782
53.7200,0.721
53.7600,0.765
53.8000,0.771
53.8400,0.754
53.8800,0.745
53.9200,0.760
53.9600,0.776
54.0000,0.739
54.0400,0.747
54.0800,0.727
54.1200,0.757
54.1600,0.734
54.2000,0.737
54.2400,0.758
54.2800,0.762
54.3200,0.718
54.3600,0.705
54.4000,0.711
54.4400,0.723
54.4800,0.804
54.5200,0.701
54.5600,0.721
54.6000,0.753
54.6400,0.716
54.6800,0.737
54.7200,0.720
54.7600,0.723
54.8000,0.718
54.8400,0.694
54.8800,0.751
54.9200,0.749
54.9600,0.724
55.0000,0.729
55.0400,0.701
55.0800,0.705
55.1200,0.692
55.1600,0.736
55.2000,0.723
55.2400,0.746
55.2800,0.671
55.3200,0.679
55.3600,0.709
55.4000,0.706
55.4400,0.735
55.4800,0.695
55.5200,0.686
55.5600,0.648
55.6000,0.672
55.6400,0.704
55.6800,0.745
55.7200,0.729
55.7600,0.731
55.8000,0.739
55.8400,0.754
55.8800,0.718
55.9200,0.728
55.9600,0.697
56.0000,0.762
56.0400,0.754
56.0800,0.740
56.1200,0.793
56.1600,0.745
56.2000,0.751
56.2400,0.719
56.2800,0.773
56.3200,0.756
56.3600,0.752
56.4000,0.724
56.4400,0.833
56.4800,0.835
56.5200,0.834
56.5600,0.805
56.6000,0.866
56.6400,0.857
56.6800,0.874
56.7200,0.829
56.7600,0.844
56.8000,0.852
56.8400,0.862
56.8800,0.845
56.9200,0.876
56.9600,0.837
57.0000,0.748
57.0400,0.787
57.0800,0.805
57.1200,0.827
57.1600,0.781
57.2000,0.797
57.2400,0.780
57.2800,0.731
57.3200,0.760
57.3600,0.791
57.4000,0.727
57.4400,0.755
57.4800,0.778
57.5200,0.762
57.5600,0.713
57.6000,0.748
57.6400,0.720
57.6800,0.748
57.7200,0.746
57.7600,0.707
57.8000,0.714
57.8400,0.686
57.8800,0.737
57.9200,0.703
57.9600,0.707
58.0000,0.691
58.0400,0.707
58.0800,0.729
58.1200,0.700
58.1600,0.679
58.2000,0.712
58.2400,0.738
58.2800,0.684
58.3200,0.699
58.3600,0.707
58.4000,0.716
58.4400,0.703
58.4800,0.729
58.5200,0.716
58.5600,0.711
58.6000,0.715
58.6400,0.709
58.6800,0.680
58.7200,0.715
58.7600,0.728
58.8000,0.680
58.8400,0.737
58.8800,0.733
58.9200,0.676
58.9600,0.694
59.0000,0.683
59.0400,0.665
59.0800,0.669
59.1200,0.657
59.1600,0.635
59.2000,0.621
59.2400,0.678
59.2800,0.631
59.3200,0.608
59.3600,0.655
59.4000,0.626
59.4400,0.619
59.4800,0.603
59.5200,0.629
59.5600,0.590
59.6000,0.628
59.6400,0.634
59.6800,0.615
59.7200,0.641
59.7600,0.645
59.8000,0.659
59.8400,0.604
59.8800,0.578
59.9200,0.621
59.9600,0.615
60.0000,0.632
60.0400,0.625
60.0800,0.565
60.1200,0.642
60.1600,0.595
60.2000,0.586
60.2400,0.641
60.2800,0.612
60.3200,0.639
60.3600,0.576
60.4000,0.590
60.4400,0.622
60.4800,0.622
60.5200,0.600
60.5600,0.603
60.6000,0.593
60.6400,0.540
60.6800,0.627
60.7200,0.577
60.7600,0.636
60.8000,0.580
60.8400,0.575
60.8800,0.598
60.9200,0.622
60.9600,0.648
61.0000,0.576
61.0400,0.603
61.0800,0.584
61.1200,0.616
61.1600,0.574
61.2000,0.598
61.2400,0.586
61.2800,0.588
61.3200,0.577
61.3600,0.622
61.4000,0.565
61.4400,0.630
61.4800,0.590
61.5200,0.612
61.5600,0.662
61.6000,0.607
61.6400,0.664
61.6800,0.731
61.7200,0.730
61.7600,0.623
61.8000,0.606
61.8400,0.633
61.8800,0.608
61.9200,0.583
61.9600,0.671
62.0000,0.571
62.0400,0.589
62.0800,0.638
62.1200,0.617
62.1600,0.611
62.2000,0.605
62.2400,0.626
62.2800,0.605
62.3200,0.633
62.3600,0.636
62.4000,0.601
62.4400,0.635
62.4800,0.662
62.5200,0.628
62.5600,0.666
62.6000,0.639
62.6400,0.645
62.6800,0.666
62.7200,0.662
62.7600,0.663
62.8000,0.673
62.8400,0.704
62.8800,0.645
62.9200,0.684
62.9600,0.662
63.0000,0.622
63.0400,0.631
63.0800,0.650
63.1200,0.669
63.1600,0.669
63.2000,0.667
63.2400,0.694
63.2800,0.646
63.3200,0.638
63.3600,0.683
63.4000,0.625
63.4400,0.631
63.4800,0.654
63.5200,0.685
63.5600,0.638
63.6000,0.610
63.6400,0.599
63.6800,0.643
63.7200,0.685
63.7600,0.644
63.8000,0.632
63.8400,0.720
63.8800,0.650
63.9200,0.660
63.9600,0.614
64.0000,0.644
64.0400,0.659
64.0800,0.672
64.1200,0.692
64.1600,0.651
64.2000,0.633
64.2400,0.692
64.2800,0.683
64.3200,0.690
64.3600,0.747
64.4000,0.719
64.4400,0.705
64.4800,0.726
64.5200,0.759
64.5600,0.800
64.6000,0.721
64.6400,0.825
64.6800,0.804
64.7200,0.849
64.7600,0.851
64.8000,0.877
64.8400,1.023
64.8800,0.949
64.9200,0.929
64.9600,1.015
65.0000,1.033
65.0400,1.015
65.0800,1.010
65.1200,1.045
65.1600,1.017
65.2000,1.030
65.2400,1.009
65.2800,0.986
65.3200,0.975
65.3600,0.925
65.4000,0.924
65.4400,0.910
65.4800,0.899
65.5200,0.859
65.5600,0.867
65.6000,0.795
65.6400,0.771
65.6800,0.818
65.7200,0.820
65.7600,0.802
65.8000,0.840
65.8400,0.833
65.8800,0.794
65.9200,0.798
65.9600,0.842
66.0000,0.867
66.0400,0.850
66.0800,0.842
66.1200,0.864
66.1600,0.843
66.2000,0.836
66.2400,0.836
66.2800,0.815
66.3200,0.837
66.3600,0.811
66.4000,0.802
66.4400,0.912
66.4800,0.909
66.5200,0.926
66.5600,0.911
66.6000,0.959
66.6400,0.895
66.6800,0.896
66.7200,0.955
66.7600,0.938
66.8000,0.952
66.8400,0.973
66.8800,0.980
66.9200,1.014
66.9600,1.023
67.0000,1.040
67.0400,1.055
67.0800,1.056
67.1200,1.058
67.1600,1.105
67.2000,1.132
67.2400,1.126
67.2800,1.189
67.3200,1.169
67.3600,1.158
67.4000,1.227
67.4400,1.246
67.4800,1.278
67.5200,1.308
67.5600,1.313
67.6000,1.279
67.6400,1.362
67.6800,1.432
67.7200,1.380
67.7600,1.513
67.8000,1.523
67.8400,1.522
67.8800,1.537
67.9200,1.566
67.9600,1.675
68.0000,1.695
68.0400,1.750
68.0800,1.782
68.1200,1.805
68.1600,1.870
68.2000,1.880
68.2400,1.877
68.2800,2.049
68.3200,2.099
68.3600,2.189
68.4000,2.208
68.4400,2.279
68.4800,2.375
68.5200,2.578
68.5600,2.618
68.6000,2.799
68.6400,2.999
68.6800,3.272
68.7200,3.635
68.7600,4.528
68.8000,5.989
68.8400,7.194
68.8800,7.597
68.9200,7.667
68.9600,8.290
69.0000,10.719
69.0400,16.022
69.0800,30.940
69.1200,121.337
69.1600,450.253
69.2000,496.345
69.2400,178.010
69.2800,53.442
69.3200,87.861
69.3600,242.651
69.4000,248.226
69.4400,88.465
69.4800,24.522
69.5200,12.907
69.5600,9.001
69.6000,7.022
69.6400,5.919
69.6800,5.145
69.7200,4.494
69.7600,4.046
69.8000,3.688
69.8400,3.462
69.8800,3.114
69.9200,2.936
69.9600,2.745
70.0000,2.651
70.0400,2.564
70.0800,2.446
70.1200,2.364
70.1600,2.228
70.2000,2.216
70.2400,2.169
70.2800,2.053
70.3200,1.907
70.3600,1.942
70.4000,1.950
70.4400,1.805
70.4800,1.720
70.5200,1.666
70.5600,1.634
70.6000,1.542
70.6400,1.546
70.6800,1.522
70.7200,1.473
70.7600,1.476
70.8000,1.441
70.8400,1.457
70.8800,1.347
70.9200,1.267
70.9600,1.369
71.0000,1.246
71.0400,1.303
71.0800,1.217
71.1200,1.166
71.1600,1.206
71.2000,1.134
71.2400,1.093
71.2800,1.032
71.3200,1.046
71.3600,1.057
71.4000,1.030
71.4400,0.984
71.4800,0.947
71.5200,0.975
71.5600,0.968
71.6000,0.927
71.6400,0.951
71.6800,0.893
71.7200,0.865
71.7600,0.839
71.8000,0.809
71.8400,0.785
71.8800,0.787
71.9200,0.847
71.9600,0.759
72.0000,0.744
72.0400,0.753
72.0800,0.795
72.1200,0.747
72.1600,0.745
72.2000,0.744
72.2400,0.717
72.2800,0.768
72.3200,0.644
72.3600,0.716
72.4000,0.700
72.4400,0.676
72.4800,0.687
72.5200,0.635
72.5600,0.684
72.6000,0.674
72.6400,0.637
72.6800,0.622
72.7200,0.676
72.7600,0.645
72.8000,0.650
72.8400,0.635
72.8800,0.638
72.9200,0.619
72.9600,0.647
73.0000,0.608
73.0400,0.647
73.0800,0.638
73.1200,0.670
73.1600,0.648
73.2000,0.610
73.2400,0.604
73.2800,0.644
73.3200,0.623
73.3600,0.607
73.4000,0.576
73.4400,0.586
73.4800,0.633
73.5200,0.551
73.5600,0.584
73.6000,0.571
73.6400,0.532
73.6800,0.545
73.7200,0.587
73.7600,0.568
73.8000,0.547
73.8400,0.523
73.8800,0.531
73.9200,0.498
73.9600,0.502
74.0000,0.505
74.0400,0.522
74.0800,0.501
74.1200,0.498
74.1600,0.440
74.2000,0.488
74.2400,0.461
74.2800,0.478
74.3200,0.486
74.3600,0.532
74.4000,0.471
74.4400,0.464
74.4800,0.438
74.5200,0.478
74.5600,0.464
74.6000,0.440
74.6400,0.428
74.6800,0.445
74.7200,0.436
74.7600,0.463
74.8000,0.421
74.8400,0.453
74.8800,0.448
74.9200,0.451
74.9600,0.424
75.0000,0.432
75.0400,0.444
75.0800,0.428
75.1200,0.406
75.1600,0.411
75.2000,0.398
75.2400,0.450
75.2800,0.405
75.3200,0.410
75.3600,0.408
75.4000,0.467
75.4400,0.410
75.4800,0.419
75.5200,0.411
75.5600,0.418
75.6000,0.415
75.6400,0.421
75.6800,0.378
75.7200,0.421
75.7600,0.428
75.8000,0.379
75.8400,0.415
75.8800,0.413
75.9200,0.425
75.9600,0.407
76.0000,0.417
76.0400,0.420
76.0800,0.371
76.1200,0.410
76.1600,0.360
76.2000,0.420
76.2400,0.415
76.2800,0.416
76.3200,0.408
76.3600,0.399
76.4000,0.420
76.4400,0.397
76.4800,0.392
76.5200,0.391
76.5600,0.407
76.6000,0.408
76.6400,0.433
76.6800,0.406
76.7200,0.418
76.7600,0.433
76.8000,0.428
76.8400,0.416
76.8800,0.423
76.9200,0.399
76.9600,0.414
77.0000,0.447
77.0400,0.428
77.0800,0.417
77.1200,0.439
77.1600,0.445
77.2000,0.435
77.2400,0.472
77.2800,0.443
77.3200,0.473
77.3600,0.466
77.4000,0.472
77.4400,0.476
77.4800,0.463
77.5200,0.488
77.5600,0.480
77.6000,0.529
77.6400,0.530
77.6800,0.530
77.7200,0.561
77.7600,0.543
77.8000,0.564
77.8400,0.597
77.8800,0.636
77.9200,0.613
77.9600,0.628
78.0000,0.645
78.0400,0.650
78.0800,0.673
78.1200,0.657
78.1600,0.669
78.2000,0.649
78.2400,0.655
78.2800,0.683
78.3200,0.629
78.3600,0.586
78.4000,0.593
78.4400,0.585
78.4800,0.582
78.5200,0.541
78.5600,0.503
78.6000,0.560
78.6400,0.496
78.6800,0.488
78.7200,0.476
78.7600,0.490
78.8000,0.491
78.8400,0.465
78.8800,0.470
78.9200,0.409
78.9600,0.421
79.0000,0.459
79.0400,0.437
79.0800,0.431
79.1200,0.427
79.1600,0.365
79.2000,0.352
79.2400,0.406
79.2800,0.388
79.3200,0.384
79.3600,0.364
79.4000,0.358
79.4400,0.389
79.4800,0.429
79.5200,0.370
79.5600,0.383
79.6000,0.356
79.6400,0.367
79.6800,0.395
79.7200,0.390
79.7600,0.385
79.8000,0.388
79.8400,0.389
79.8800,0.406
79.9200,0.402
79.9600,0.364
80.0000,0.336
