theta,intensity
5.0000,7.022
5.0400,6.585
5.0800,6.484
5.1200,6.613
5.1600,6.351
5.2000,6.165
5.2400,6.134
5.2800,5.912
5.3200,5.794
5.3600,5.748
5.4000,5.486
5.4400,5.517
5.4800,5.328
5.5200,5.295
5.5600,5.288
5.6000,5.035
5.6400,4.963
5.6800,4.813
5.7200,4.794
5.7600,4.725
5.8000,4.607
5.8400,4.577
5.8800,4.554
5.9200,4.548
5.9600,4.490
6.0000,4.459
6.0400,4.488
6.0800,4.345
6.1200,4.438
6.1600,4.518
6.2000,4.409
6.2400,4.327
6.2800,4.284
6.3200,4.264
6.3600,4.418
6.4000,4.298
6.4400,4.218
6.4800,4.401
6.5200,4.242
6.5600,4.120
6.6000,4.280
6.6400,4.223
6.6800,4.173
6.7200,4.328
6.7600,4.326
6.8000,4.209
6.8400,4.264
6.8800,4.151
6.9200,4.185
6.9600,4.133
7.0000,4.198
7.0400,4.232
7.0800,4.148
7.1200,4.273
7.1600,4.161
7.2000,4.108
7.2400,4.206
7.2800,4.099
7.3200,4.104
7.3600,4.102
7.4000,4.095
7.4400,4.137
7.4800,3.989
7.5200,4.144
7.5600,4.088
7.6000,4.043
7.6400,4.053
7.6800,3.944
7.7200,4.069
7.7600,4.144
7.8000,4.042
7.8400,4.032
7.8800,4.175
7.9200,4.110
7.9600,3.960
8.0000,4.081
8.0400,4.035
8.0800,3.978
8.1200,4.082
8.1600,4.054
8.2000,3.974
8.2400,3.959
8.2800,3.932
8.3200,4.009
8.3600,4.047
8.4000,4.079
8.4400,4.035
8.4800,3.906
8.5200,3.939
8.5600,4.025
8.6000,3.941
8.6400,3.956
8.6800,3.914
8.7200,3.918
8.7600,4.106
8.8000,4.046
8.8400,3.790
8.8800,3.950
8.9200,3.966
8.9600,3.945
9.0000,3.840
9.0400,3.942
9.0800,3.804
9.1200,3.830
9.1600,3.931
9.2000,3.791
9.2400,3.914
9.2800,3.705
9.3200,3.872
9.3600,3.792
9.4000,3.916
9.4400,3.844
9.4800,3.819
9.5200,3.870
9.5600,3.830
9.6000,3.886
9.6400,3.914
9.6800,3.684
9.7200,3.786
9.7600,3.764
9.8000,3.699
9.8400,3.747
9.8800,3.784
9.9200,3.806
9.9600,3.904
10.0000,3.802
10.0400,3.776
10.0800,3.811
10.1200,3.827
10.1600,3.808
10.2000,3.822
10.2400,3.776
10.2800,3.746
10.3200,3.729
10.3600,3.719
10.4000,3.738
10.4400,3.737
10.4800,3.698
10.5200,3.851
10.5600,3.759
10.6000,3.768
10.6400,3.690
10.6800,3.661
10.7200,3.808
10.7600,3.719
10.8000,3.645
10.8400,3.676
10.8800,3.738
10.9200,3.777
10.9600,3.660
11.0000,3.658
11.0400,3.624
11.0800,3.752
11.1200,3.710
11.1600,3.737
11.2000,3.593
11.2400,3.693
11.2800,3.633
11.3200,3.470
11.3600,3.556
11.4000,3.609
11.4400,3.586
11.4800,3.592
11.5200,3.575
11.5600,3.607
11.6000,3.708
11.6400,3.602
11.6800,3.635
11.7200,3.468
11.7600,3.525
11.8000,3.487
11.8400,3.532
11.8800,3.576
11.9200,3.604
11.9600,3.607
12.0000,3.553
12.0400,3.502
12.0800,3.518
12.1200,3.479
12.1600,3.541
12.2000,3.475
12.2400,3.563
12.2800,3.606
12.3200,3.574
12.3600,3.449
12.4000,3.404
12.4400,3.591
12.4800,3.480
12.5200,3.692
12.5600,3.448
12.6000,3.658
12.6400,3.433
12.6800,3.378
12.7200,3.530
12.7600,3.425
12.8000,3.556
12.8400,3.422
12.8800,3.470
12.9200,3.517
12.9600,3.475
13.0000,3.448
13.0400,3.411
13.0800,3.364
13.1200,3.349
13.1600,3.576
13.2000,3.497
13.2400,3.486
13.2800,3.454
13.3200,3.421
13.3600,3.403
13.4000,3.172
13.4400,3.355
13.4800,3.308
13.5200,3.397
13.5600,3.387
13.6000,3.449
13.6400,3.360
13.6800,3.441
13.7200,3.364
13.7600,3.367
13.8000,3.409
13.8400,3.357
13.8800,3.348
13.9200,3.320
13.9600,3.348
14.0000,3.262
14.0400,3.328
14.0800,3.290
14.1200,3.296
14.1600,3.258
14.2000,3.357
14.2400,3.323
14.2800,3.209
14.3200,3.350
14.3600,3.333
14.4000,3.294
14.4400,3.165
14.4800,3.306
14.5200,3.199
14.5600,3.266
14.6000,3.244
14.6400,3.286
14.6800,3.244
14.7200,3.247
14.7600,3.207
14.8000,3.233
14.8400,3.175
14.8800,3.215
14.9200,3.103
14.9600,3.247
15.0000,3.129
15.0400,3.226
15.0800,3.262
15.1200,3.192
15.1600,3.253
15.2000,3.154
15.2400,3.195
15.2800,3.199
15.3200,3.152
15.3600,3.113
15.4000,3.151
15.4400,3.272
15.4800,3.187
15.5200,3.143
15.5600,3.296
15.6000,3.162
15.6400,3.211
15.6800,3.157
15.7200,3.224
15.7600,3.262
15.8000,3.244
15.8400,3.145
15.8800,3.141
15.9200,3.147
15.9600,3.047
16.0000,3.187
16.0400,3.074
16.0800,3.080
16.1200,3.034
16.1600,3.050
16.2000,3.134
16.2400,3.270
16.2800,3.103
16.3200,3.024
16.3600,3.195
16.4000,3.080
16.4400,3.060
16.4800,3.073
16.5200,3.179
16.5600,3.187
16.6000,3.018
16.6400,3.136
16.6800,3.034
16.7200,3.021
16.7600,3.037
16.8000,2.950
16.8400,3.116
16.8800,3.119
16.9200,3.057
16.9600,2.979
17.0000,3.014
17.0400,3.054
17.0800,3.055
17.1200,3.010
17.1600,3.025
17.2000,3.028
17.2400,3.074
17.2800,3.071
17.3200,2.956
17.3600,2.983
17.4000,3.038
17.4400,2.990
17.4800,2.925
17.5200,3.036
17.5600,2.991
17.6000,3.041
17.6400,3.022
17.6800,3.054
17.7200,2.918
17.7600,2.872
17.8000,3.025
17.8400,2.960
17.8800,2.957
17.9200,2.954
17.9600,2.868
18.0000,2.885
18.0400,2.922
18.0800,2.990
18.1200,3.030
18.1600,3.033
18.2000,3.056
18.2400,3.152
18.2800,3.044
18.3200,2.990
18.3600,2.966
18.4000,2.937
18.4400,3.014
18.4800,2.867
18.5200,2.962
18.5600,2.897
18.6000,2.820
18.6400,2.912
18.6800,2.916
18.7200,2.833
18.7600,2.780
18.8000,2.722
18.8400,2.793
18.8800,2.893
18.9200,2.870
18.9600,2.850
19.0000,2.800
19.0400,2.792
19.0800,2.863
19.1200,2.885
19.1600,2.878
19.2000,2.890
19.2400,2.852
19.2800,2.788
19.3200,2.873
19.3600,2.838
19.4000,2.783
19.4400,2.909
19.4800,2.798
19.5200,2.861
19.5600,2.736
19.6000,2.778
19.6400,2.749
19.6800,2.739
19.7200,2.824
19.7600,2.724
19.8000,2.832
19.8400,2.816
19.8800,2.817
19.9200,2.659
19.9600,2.712
20.0000,2.821
20.0400,2.849
20.0800,2.828
20.1200,2.721
20.1600,2.775
20.2000,2.623
20.2400,2.719
20.2800,2.712
20.3200,2.645
20.3600,2.653
20.4000,2.738
20.4400,2.702
20.4800,2.674
20.5200,2.761
20.5600,2.796
20.6000,2.711
20.6400,2.720
20.6800,2.720
20.7200,2.676
20.7600,2.665
20.8000,2.602
20.8400,2.732
20.8800,2.640
20.9200,2.652
20.9600,2.689
21.0000,2.700
21.0400,2.665
21.0800,2.735
21.1200,2.565
21.1600,2.645
21.2000,2.695
21.2400,2.742
21.2800,2.704
21.3200,2.663
21.3600,2.774
21.4000,2.712
21.4400,2.705
21.4800,2.786
21.5200,2.708
21.5600,2.650
21.6000,2.691
21.6400,2.560
21.6800,2.592
21.7200,2.647
21.7600,2.641
21.8000,2.601
21.8400,2.632
21.8800,2.590
21.9200,2.680
21.9600,2.665
22.0000,2.625
22.0400,2.639
22.0800,2.610
22.1200,2.700
22.1600,2.635
22.2000,2.576
22.2400,2.468
22.2800,2.537
22.3200,2.622
22.3600,2.506
22.4000,2.630
22.4400,2.558
22.4800,2.513
22.5200,2.609
22.5600,2.476
22.6000,2.481
22.6400,2.518
22.6800,2.442
22.7200,2.537
22.7600,2.412
22.8000,2.466
22.8400,2.591
22.8800,2.489
22.9200,2.548
22.9600,2.483
23.0000,2.389
23.0400,2.507
23.0800,2.359
23.1200,2.465
23.1600,2.424
23.2000,2.446
23.2400,2.527
23.2800,2.385
23.3200,2.514
23.3600,2.439
23.4000,2.339
23.4400,2.443
23.4800,2.458
23.5200,2.432
23.5600,2.487
23.6000,2.439
23.6400,2.420
23.6800,2.428
23.7200,2.518
23.7600,2.408
23.8000,2.398
23.8400,2.412
23.8800,2.373
23.9200,2.408
23.9600,2.468
24.0000,2.415
24.0400,2.321
24.0800,2.400
24.1200,2.359
24.1600,2.346
24.2000,2.399
24.2400,2.364
24.2800,2.276
24.3200,2.345
24.3600,2.367
24.4000,2.445
24.4400,2.323
24.4800,2.310
24.5200,2.246
24.5600,2.334
24.6000,2.290
24.6400,2.358
24.6800,2.337
24.7200,2.366
24.7600,2.309
24.8000,2.313
24.8400,2.266
24.8800,2.288
24.9200,2.314
24.9600,2.357
25.0000,2.295
25.0400,2.397
25.0800,2.333
25.1200,2.335
25.1600,2.341
25.2000,2.290
25.2400,2.263
25.2800,2.256
25.3200,2.318
25.3600,2.269
25.4000,2.323
25.4400,2.299
25.4800,2.246
25.5200,2.175
25.5600,2.261
25.6000,2.295
25.6400,2.262
25.6800,2.187
25.7200,2.224
25.7600,2.283
25.8000,2.285
25.8400,2.209
25.8800,2.254
25.9200,2.296
25.9600,2.231
26.0000,2.251
26.0400,2.358
26.0800,2.254
26.1200,2.313
26.1600,2.276
26.2000,2.384
26.2400,2.280
26.2800,2.231
26.3200,2.241
26.3600,2.228
26.4000,2.294
26.4400,2.232
26.4800,2.289
26.5200,2.278
26.5600,2.341
26.6000,2.193
26.6400,2.189
26.6800,2.219
26.7200,2.262
26.7600,2.242
26.8000,2.196
26.8400,2.214
26.8800,2.198
26.9200,2.169
26.9600,2.163
27.0000,2.274
27.0400,2.305
27.0800,2.183
27.1200,2.200
27.1600,2.250
27.2000,2.167
27.2400,2.194
27.2800,2.153
27.3200,2.206
27.3600,2.170
27.4000,2.186
27.4400,2.231
27.4800,2.199
27.5200,2.179
27.5600,2.173
27.6000,2.191
27.6400,2.128
27.6800,2.104
27.7200,2.084
27.7600,2.085
27.8000,2.063
27.8400,2.087
27.8800,2.103
27.9200,2.156
27.9600,2.180
28.0000,2.127
28.0400,2.091
28.0800,2.130
28.1200,2.113
28.1600,2.039
28.2000,2.005
28.2400,2.066
28.2800,2.030
28.3200,2.048
28.3600,2.142
28.4000,2.020
28.4400,2.055
28.4800,2.024
28.5200,2.120
28.5600,2.116
28.6000,2.045
28.6400,2.067
28.6800,2.008
28.7200,1.972
28.7600,2.003
28.8000,2.036
28.8400,2.147
28.8800,1.957
28.9200,1.975
28.9600,2.071
29.0000,2.055
29.0400,2.013
29.0800,2.040
29.1200,2.141
29.1600,2.088
29.2000,2.116
29.2400,2.077
29.2800,2.070
29.3200,2.122
29.3600,2.106
29.4000,2.082
29.4400,2.037
29.4800,2.087
29.5200,2.104
29.5600,2.149
29.6000,2.122
29.6400,2.225
29.6800,2.331
29.7200,2.468
29.7600,2.543
29.8000,2.493
29.8400,2.705
29.8800,2.589
29.9200,2.610
29.9600,2.614
30.0000,2.525
30.0400,2.548
30.0800,2.596
30.1200,2.601
30.1600,2.661
30.2000,2.796
30.2400,2.891
30.2800,3.069
30.3200,3.190
30.3600,3.235
30.4000,3.297
30.4400,3.451
30.4800,3.309
30.5200,3.353
30.5600,3.174
30.6000,3.000
30.6400,2.680
30.6800,2.628
30.7200,2.483
30.7600,2.428
30.8000,2.288
30.8400,2.217
30.8800,2.146
30.9200,2.026
30.9600,2.077
31.0000,2.063
31.0400,2.087
31.0800,1.973
31.1200,2.008
31.1600,1.944
31.2000,1.964
31.2400,1.994
31.2800,1.938
31.3200,1.925
31.3600,1.912
31.4000,1.877
31.4400,2.013
31.4800,2.004
31.5200,2.014
31.5600,2.004
31.6000,1.923
31.6400,2.040
31.6800,2.010
31.7200,2.027
31.7600,1.999
31.8000,2.078
31.8400,2.022
31.8800,1.917
31.9200,1.948
31.9600,1.916
32.0000,1.890
32.0400,1.845
32.0800,1.684
32.1200,1.842
32.1600,1.780
32.2000,1.821
32.2400,1.778
32.2800,1.789
32.3200,1.804
32.3600,1.767
32.4000,1.758
32.4400,1.858
32.4800,1.809
32.5200,1.762
32.5600,1.736
32.6000,1.762
32.6400,1.856
32.6800,1.779
32.7200,1.781
32.7600,1.754
32.8000,1.768
32.8400,1.885
32.8800,1.841
32.9200,1.787
32.9600,1.760
33.0000,1.775
33.0400,1.732
33.0800,1.693
33.1200,1.793
33.1600,1.771
33.2000,1.786
33.2400,1.834
33.2800,1.737
33.3200,1.849
33.3600,1.807
33.4000,1.725
33.4400,1.652
33.4800,1.699
33.5200,1.682
33.5600,1.711
33.6000,1.634
33.6400,1.606
33.6800,1.728
33.7200,1.632
33.7600,1.676
33.8000,1.624
33.8400,1.640
33.8800,1.585
33.9200,1.600
33.9600,1.761
34.0000,1.690
34.0400,1.713
34.0800,1.584
34.1200,1.705
34.1600,1.650
34.2000,1.606
34.2400,1.624
34.2800,1.602
34.3200,1.686
34.3600,1.624
34.4000,1.647
34.4400,1.715
34.4800,2.008
34.5200,2.217
34.5600,2.278
34.6000,2.211
34.6400,2.447
34.6800,2.442
34.7200,2.455
34.7600,2.329
34.8000,2.295
34.8400,2.157
34.8800,2.064
34.9200,1.833
34.9600,1.786
35.0000,1.870
35.0400,1.864
35.0800,1.908
35.1200,1.958
35.1600,1.908
35.2000,1.940
35.2400,1.959
35.2800,1.965
35.3200,1.961
35.3600,1.931
35.4000,1.906
35.4400,1.743
35.4800,1.727
35.5200,1.742
35.5600,1.751
35.6000,1.647
35.6400,1.607
35.6800,1.654
35.7200,1.602
35.7600,1.555
35.8000,1.557
35.8400,1.440
35.8800,1.549
35.9200,1.584
35.9600,1.545
36.0000,1.507
36.0400,1.506
36.0800,1.457
36.1200,1.466
36.1600,1.448
36.2000,1.383
36.2400,1.494
36.2800,1.477
36.3200,1.439
36.3600,1.480
36.4000,1.446
36.4400,1.472
36.4800,1.412
36.5200,1.528
36.5600,1.423
36.6000,1.495
36.6400,1.478
36.6800,1.486
36.7200,1.402
36.7600,1.446
36.8000,1.452
36.8400,1.497
36.8800,1.497
36.9200,1.525
36.9600,1.569
37.0000,1.593
37.0400,1.543
37.0800,1.659
37.1200,1.571
37.1600,1.593
37.2000,1.538
37.2400,1.512
37.2800,1.487
37.3200,1.486
37.3600,1.487
37.4000,1.531
37.4400,1.649
37.4800,2.079
37.5200,2.639
37.5600,2.557
37.6000,2.505
37.6400,2.258
37.6800,1.865
37.7200,1.691
37.7600,1.530
37.8000,1.556
37.8400,1.435
37.8800,1.289
37.9200,1.411
37.9600,1.405
38.0000,1.369
38.0400,1.346
38.0800,1.342
38.1200,1.320
38.1600,1.319
38.2000,1.304
38.2400,1.322
38.2800,1.395
38.3200,1.326
38.3600,1.334
38.4000,1.351
38.4400,1.297
38.4800,1.334
38.5200,1.221
38.5600,1.326
38.6000,1.310
38.6400,1.266
38.6800,1.373
38.7200,1.280
38.7600,1.303
38.8000,1.244
38.8400,1.263
38.8800,1.250
38.9200,1.315
38.9600,1.313
39.0000,1.302
39.0400,1.341
39.0800,1.428
39.1200,1.338
39.1600,1.330
39.2000,1.323
39.2400,1.366
39.2800,1.485
39.3200,1.408
39.3600,1.481
39.4000,1.789
39.4400,2.631
39.4800,3.005
39.5200,3.205
39.5600,3.656
39.6000,4.093
39.6400,3.790
39.6800,3.647
39.7200,3.379
39.7600,2.762
39.8000,2.268
39.8400,2.010
39.8800,1.666
39.9200,1.588
39.9600,1.510
40.0000,1.451
40.0400,1.441
40.0800,1.298
40.1200,1.305
40.1600,1.316
40.2000,1.236
40.2400,1.233
40.2800,1.280
40.3200,1.264
40.3600,1.220
40.4000,1.247
40.4400,1.158
40.4800,1.183
40.5200,1.245
40.5600,1.228
40.6000,1.180
40.6400,1.193
40.6800,1.253
40.7200,1.177
40.7600,1.197
40.8000,1.173
40.8400,1.132
40.8800,1.163
40.9200,1.148
40.9600,1.120
41.0000,1.113
41.0400,1.204
41.0800,1.196
41.1200,1.156
41.1600,1.189
41.2000,1.178
41.2400,1.150
41.2800,1.088
41.3200,1.174
41.3600,1.180
41.4000,1.153
41.4400,1.143
41.4800,1.189
41.5200,1.176
41.5600,1.196
41.6000,1.114
41.6400,1.172
41.6800,1.161
41.7200,1.146
41.7600,1.130
41.8000,1.071
41.8400,1.123
41.8800,1.167
41.9200,1.100
41.9600,1.130
42.0000,1.075
42.0400,1.099
42.0800,1.079
42.1200,1.120
42.1600,1.161
42.2000,1.104
42.2400,1.117
42.2800,1.126
42.3200,1.072
42.3600,1.045
42.4000,1.043
42.4400,1.068
42.4800,1.110
42.5200,1.120
42.5600,1.105
42.6000,1.095
42.6400,1.121
42.6800,1.031
42.7200,1.063
42.7600,1.078
42.8000,1.069
42.8400,1.113
42.8800,1.037
42.9200,1.097
42.9600,1.042
43.0000,1.037
43.0400,1.004
43.0800,1.109
43.1200,1.039
43.1600,1.056
43.2000,1.029
43.2400,1.150
43.2800,1.074
43.3200,1.038
43.3600,1.054
43.4000,1.060
43.4400,1.067
43.4800,1.005
43.5200,1.039
43.5600,1.037
43.6000,1.063
43.6400,1.039
43.6800,1.006
43.7200,1.112
43.7600,1.061
43.8000,0.999
43.8400,0.954
43.8800,0.977
43.9200,1.001
43.9600,1.010
44.0000,1.092
44.0400,1.069
44.0800,0.954
44.1200,0.974
44.1600,1.023
44.2000,1.045
44.2400,1.006
44.2800,1.028
44.3200,1.058
44.3600,1.007
44.4000,1.032
44.4400,1.066
44.4800,1.035
44.5200,1.019
44.5600,1.021
44.6000,0.981
44.6400,1.038
44.6800,1.069
44.7200,1.011
44.7600,1.025
44.8000,0.956
44.8400,0.971
44.8800,1.022
44.9200,1.028
44.9600,0.979
45.0000,0.953
45.0400,0.978
45.0800,0.991
45.1200,1.047
45.1600,1.040
45.2000,1.004
45.2400,0.976
45.2800,1.003
45.3200,1.029
45.3600,0.994
45.4000,1.037
45.4400,1.047
45.4800,0.977
45.5200,1.020
45.5600,0.998
45.6000,0.990
45.6400,1.059
45.6800,0.992
45.7200,1.016
45.7600,0.978
45.8000,0.963
45.8400,0.931
45.8800,0.941
45.9200,0.942
45.9600,0.964
46.0000,0.961
46.0400,0.931
46.0800,0.903
46.1200,0.962
46.1600,0.961
46.2000,0.898
46.2400,0.979
46.2800,1.008
46.3200,0.962
46.3600,0.925
46.4000,0.887
46.4400,0.904
46.4800,0.920
46.5200,0.912
46.5600,0.917
46.6000,0.917
46.6400,0.851
46.6800,0.922
46.7200,0.909
46.7600,0.905
46.8000,0.901
46.8400,0.872
46.8800,0.962
46.9200,0.923
46.9600,0.884
47.0000,0.930
47.0400,0.889
47.0800,0.876
47.1200,0.901
47.1600,0.954
47.2000,0.872
47.2400,0.912
47.2800,0.927
47.3200,0.900
47.3600,0.897
47.4000,0.892
47.4400,0.881
47.4800,0.866
47.5200,0.932
47.5600,0.936
47.6000,0.841
47.6400,0.906
47.6800,0.890
47.7200,0.917
47.7600,0.926
47.8000,0.903
47.8400,0.883
47.8800,0.869
47.9200,0.883
47.9600,0.900
48.0000,0.915
48.0400,0.932
48.0800,0.902
48.1200,0.852
48.1600,0.934
48.2000,0.896
48.2400,0.889
48.2800,0.882
48.3200,0.860
48.3600,0.878
48.4000,0.860
48.4400,0.893
48.4800,0.895
48.5200,0.881
48.5600,0.870
48.6000,0.856
48.6400,0.816
48.6800,0.926
48.7200,0.881
48.7600,0.829
48.8000,0.916
48.8400,0.878
48.8800,0.831
48.9200,0.921
48.9600,0.872
49.0000,0.824
49.0400,0.874
49.0800,0.855
49.1200,0.870
49.1600,0.826
49.2000,0.865
49.2400,0.857
49.2800,0.841
49.3200,0.903
49.3600,0.830
49.4000,0.829
49.4400,0.940
49.4800,0.848
49.5200,0.894
49.5600,0.862
49.6000,0.836
49.6400,0.906
49.6800,0.818
49.7200,0.836
49.7600,0.844
49.8000,0.847
49.8400,0.860
49.8800,0.897
49.9200,0.865
49.9600,0.797
50.0000,0.820
50.0400,0.866
50.0800,0.855
50.1200,0.886
50.1600,0.905
50.2000,0.893
50.2400,0.921
50.2800,0.836
50.3200,0.914
50.3600,0.946
50.4000,0.937
50.4400,0.993
50.4800,1.018
50.5200,1.021
50.5600,1.022
50.6000,1.177
50.6400,1.100
50.6800,1.128
50.7200,1.206
50.7600,1.119
50.8000,1.134
50.8400,1.174
50.8800,1.099
50.9200,1.042
50.9600,1.017
51.0000,0.976
51.0400,1.012
51.0800,0.961
51.1200,0.950
51.1600,0.917
51.2000,0.968
51.2400,0.921
51.2800,0.908
51.3200,0.873
51.3600,0.836
51.4000,0.837
51.4400,0.847
51.4800,0.780
51.5200,0.809
51.5600,0.816
51.6000,0.789
51.6400,0.840
51.6800,0.749
51.7200,0.828
51.7600,0.775
51.8000,0.814
51.8400,0.789
51.8800,0.878
51.9200,0.943
51.9600,0.988
52.0000,0.956
52.0400,1.071
52.0800,1.052
52.1200,1.077
52.1600,1.041
52.2000,0.962
52.2400,0.987
52.2800,0.896
52.3200,0.837
52.3600,0.790
52.4000,0.813
52.4400,0.840
52.4800,0.747
52.5200,0.809
52.5600,0.847
52.6000,0.813
52.6400,0.784
52.6800,0.821
52.7200,0.823
52.7600,0.817
52.8000,0.696
52.8400,0.740
52.8800,0.750
52.9200,0.756
52.9600,0.777
53.0000,0.771
53.0400,0.699
53.0800,0.710
53.1200,0.704
53.1600,0.735
53.2000,0.747
53.2400,0.708
53.2800,0.748
53.3200,0.759
53.3600,0.784
53.4000,0.707
53.4400,0.661
53.4800,0.735
53.5200,0.750
53.5600,0.722
53.6000,0.769
53.6400,0.703
53.6800,0.722
53.7200,0.717
53.7600,0.686
53.8000,0.675
53.8400,0.785
53.8800,0.743
53.9200,0.675
53.9600,0.733
54.0000,0.741
54.0400,0.693
54.0800,0.723
54.1200,0.733
54.1600,0.721
54.2000,0.737
54.2400,0.674
54.2800,0.695
54.3200,0.763
54.3600,0.725
54.4000,0.708
54.4400,0.630
54.4800,0.631
54.5200,0.674
54.5600,0.713
54.6000,0.661
54.6400,0.691
54.6800,0.669
54.7200,0.670
54.7600,0.708
54.8000,0.699
54.8400,0.704
54.8800,0.633
54.9200,0.691
54.9600,0.694
55.0000,0.704
55.0400,0.665
55.0800,0.672
55.1200,0.647
55.1600,0.669
55.2000,0.706
55.2400,0.707
55.2800,0.724
55.3200,0.676
55.3600,0.681
55.4000,0.726
55.4400,0.696
55.4800,0.686
55.5200,0.673
55.5600,0.654
55.6000,0.623
55.6400,0.655
55.6800,0.712
55.7200,0.706
55.7600,0.668
55.8000,0.715
55.8400,0.685
55.8800,0.672
55.9200,0.691
55.9600,0.638
56.0000,0.731
56.0400,0.644
56.0800,0.655
56.1200,0.684
56.1600,0.708
56.2000,0.679
56.2400,0.676
56.2800,0.681
56.3200,0.652
56.3600,0.646
56.4000,0.720
56.4400,0.688
56.4800,0.697
56.5200,0.645
56.5600,0.635
56.6000,0.707
56.6400,0.621
56.6800,0.698
56.7200,0.639
56.7600,0.657
56.8000,0.690
56.8400,0.704
56.8800,0.657
56.9200,0.642
56.9600,0.616
57.0000,0.675
57.0400,0.657
57.0800,0.646
57.1200,0.629
57.1600,0.602
57.2000,0.632
57.2400,0.683
57.2800,0.640
57.3200,0.694
57.3600,0.668
57.4000,0.705
57.4400,0.647
57.4800,0.679
57.5200,0.644
57.5600,0.627
57.6000,0.674
57.6400,0.647
57.6800,0.655
57.7200,0.652
57.7600,0.681
57.8000,0.656
57.8400,0.679
57.8800,0.616
57.9200,0.628
57.9600,0.629
58.0000,0.613
58.0400,0.610
58.0800,0.589
58.1200,0.659
58.1600,0.622
58.2000,0.631
58.2400,0.651
58.2800,0.631
58.3200,0.616
58.3600,0.601
58.4000,0.642
58.4400,0.680
58.4800,0.606
58.5200,0.606
58.5600,0.641
58.6000,0.642
58.6400,0.617
58.6800,0.641
58.7200,0.644
58.7600,0.632
58.8000,0.595
58.8400,0.642
58.8800,0.632
58.9200,0.643
58.9600,0.583
59.0000,0.612
59.0400,0.633
59.0800,0.639
59.1200,0.598
59.1600,0.630
59.2000,0.612
59.2400,0.626
59.2800,0.681
59.3200,0.655
59.3600,0.604
59.4000,0.641
59.4400,0.670
59.4800,0.632
59.5200,0.629
59.5600,0.669
59.6000,0.597
59.6400,0.597
59.6800,0.608
59.7200,0.602
59.7600,0.581
59.8000,0.615
59.8400,0.607
59.8800,0.648
59.9200,0.639
59.9600,0.671
60.0000,0.656
60.0400,0.627
60.0800,0.700
60.1200,0.689
60.1600,0.752
60.2000,0.685
60.2400,0.712
60.2800,0.684
60.3200,0.736
60.3600,0.724
60.4000,0.745
60.4400,0.732
60.4800,0.725
60.5200,0.755
60.5600,0.738
60.6000,0.724
60.6400,0.663
60.6800,0.672
60.7200,0.661
60.7600,0.684
60.8000,0.667
60.8400,0.635
60.8800,0.601
60.9200,0.642
60.9600,0.617
61.0000,0.604
61.0400,0.591
61.0800,0.626
61.1200,0.602
61.1600,0.581
61.2000,0.602
61.2400,0.563
61.2800,0.563
61.3200,0.596
61.3600,0.546
61.4000,0.569
61.4400,0.570
61.4800,0.613
61.5200,0.647
61.5600,0.616
61.6000,0.724
61.6400,0.670
61.6800,0.654
61.7200,0.604
61.7600,0.635
61.8000,0.645
61.8400,0.654
61.8800,0.623
61.9200,0.668
61.9600,0.688
62.0000,0.634
62.0400,0.683
62.0800,0.750
62.1200,0.820
62.1600,0.787
62.2000,0.785
62.2400,0.803
62.2800,0.787
62.3200,0.774
62.3600,0.777
62.4000,0.772
62.4400,0.769
62.4800,0.671
62.5200,0.730
62.5600,0.638
62.6000,0.667
62.6400,0.667
62.6800,0.640
62.7200,0.569
62.7600,0.600
62.8000,0.544
62.8400,0.545
62.8800,0.584
62.9200,0.600
62.9600,0.548
63.0000,0.595
63.0400,0.598
63.0800,0.631
63.1200,0.564
63.1600,0.594
63.2000,0.586
63.2400,0.554
63.2800,0.642
63.3200,0.554
63.3600,0.622
63.4000,0.601
63.4400,0.573
63.4800,0.609
63.5200,0.605
63.5600,0.606
63.6000,0.556
63.6400,0.569
63.6800,0.613
63.7200,0.555
63.7600,0.608
63.8000,0.576
63.8400,0.562
63.8800,0.558
63.9200,0.574
63.9600,0.612
64.0000,0.533
64.0400,0.570
64.0800,0.577
64.1200,0.541
64.1600,0.596
64.2000,0.577
64.2400,0.596
64.2800,0.589
64.3200,0.597
64.3600,0.579
64.4000,0.575
64.4400,0.573
64.4800,0.559
64.5200,0.555
64.5600,0.615
64.6000,0.591
64.6400,0.551
64.6800,0.598
64.7200,0.596
64.7600,0.646
64.8000,0.621
64.8400,0.658
64.8800,0.610
64.9200,0.656
64.9600,0.631
65.0000,0.624
65.0400,0.617
65.0800,0.631
65.1200,0.639
65.1600,0.642
65.2000,0.613
65.2400,0.609
65.2800,0.648
65.3200,0.636
65.3600,0.632
65.4000,0.632
65.4400,0.629
65.4800,0.654
65.5200,0.674
65.5600,0.668
65.6000,0.685
65.6400,0.673
65.6800,0.673
65.7200,0.670
65.7600,0.710
65.8000,0.739
65.8400,0.713
65.8800,0.708
65.9200,0.724
65.9600,0.717
66.0000,0.751
66.0400,0.756
66.0800,0.779
66.1200,0.771
66.1600,0.781
66.2000,0.772
66.2400,0.785
66.2800,0.775
66.3200,0.808
66.3600,0.810
66.4000,0.830
66.4400,0.821
66.4800,0.882
66.5200,0.872
66.5600,0.857
66.6000,0.874
66.6400,0.958
66.6800,0.943
66.7200,0.914
66.7600,0.866
66.8000,0.901
66.8400,0.936
66.8800,0.998
66.9200,0.995
66.9600,1.052
67.0000,1.048
67.0400,1.045
67.0800,1.078
67.1200,1.045
67.1600,1.099
67.2000,1.034
67.2400,1.125
67.2800,1.107
67.3200,1.154
67.3600,1.179
67.4000,1.223
67.4400,1.224
67.4800,1.333
67.5200,1.437
67.5600,1.308
67.6000,1.355
67.6400,1.437
67.6800,1.378
67.7200,1.439
67.7600,1.524
67.8000,1.527
67.8400,1.542
67.8800,1.586
67.9200,1.675
67.9600,1.741
68.0000,1.841
68.0400,1.701
68.0800,1.746
68.1200,1.943
68.1600,1.995
68.2000,2.001
68.2400,2.121
68.2800,2.182
68.3200,2.309
68.3600,2.352
68.4000,2.497
68.4400,2.576
68.4800,2.737
68.5200,2.825
68.5600,3.092
68.6000,3.472
68.6400,4.047
68.6800,5.010
68.7200,6.505
68.7600,7.664
68.8000,7.914
68.8400,8.004
68.8800,9.020
68.9200,11.700
68.9600,18.625
69.0000,38.953
69.0400,179.000
69.0800,536.944
69.1200,482.974
69.1600,142.191
69.2000,52.681
69.2400,117.851
69.2800,283.106
69.3200,237.893
69.3600,71.121
69.4000,21.523
69.4400,12.233
69.4800,8.890
69.5200,7.154
69.5600,6.028
69.6000,5.256
69.6400,4.622
69.6800,4.228
69.7200,3.923
69.7600,3.430
69.8000,3.148
69.8400,3.079
69.8800,2.807
69.9200,2.703
69.9600,2.611
70.0000,2.525
70.0400,2.423
70.0800,2.258
70.1200,2.241
70.1600,2.117
70.2000,2.068
70.2400,2.015
70.2800,1.947
70.3200,1.898
70.3600,1.779
70.4000,1.788
70.4400,1.774
70.4800,1.636
70.5200,1.529
70.5600,1.504
70.6000,1.550
70.6400,1.576
70.6800,1.400
70.7200,1.340
70.7600,1.405
70.8000,1.399
70.8400,1.303
70.8800,1.306
70.9200,1.255
70.9600,1.153
71.0000,1.159
71.0400,1.164
71.0800,1.047
71.1200,1.074
71.1600,1.097
71.2000,1.047
71.2400,1.058
71.2800,1.037
71.3200,0.984
71.3600,0.939
71.4000,0.904
71.4400,0.957
71.4800,0.969
71.5200,0.903
71.5600,0.845
71.6000,0.849
71.6400,0.882
71.6800,0.826
71.7200,0.769
71.7600,0.820
71.8000,0.804
71.8400,0.752
71.8800,0.742
71.9200,0.691
71.9600,0.717
72.0000,0.720
72.0400,0.752
72.0800,0.661
72.1200,0.702
72.1600,0.643
72.2000,0.680
72.2400,0.656
72.2800,0.651
72.3200,0.671
72.3600,0.652
72.4000,0.645
72.4400,0.580
72.4800,0.582
72.5200,0.573
72.5600,0.582
72.6000,0.594
72.6400,0.538
72.6800,0.559
72.7200,0.588
72.7600,0.545
72.8000,0.596
72.8400,0.545
72.8800,0.538
72.9200,0.541
72.9600,0.530
73.0000,0.555
73.0400,0.487
73.0800,0.520
73.1200,0.514
73.1600,0.472
73.2000,0.516
73.2400,0.517
73.2800,0.465
73.3200,0.546
73.3600,0.503
73.4000,0.479
73.4400,0.481
73.4800,0.508
73.5200,0.485
73.5600,0.426
73.6000,0.508
73.6400,0.449
73.6800,0.426
73.7200,0.480
73.7600,0.448
73.8000,0.455
73.8400,0.463
73.8800,0.446
73.9200,0.469
73.9600,0.463
74.0000,0.449
74.0400,0.415
74.0800,0.460
74.1200,0.432
74.1600,0.431
74.2000,0.432
74.2400,0.459
74.2800,0.471
74.3200,0.423
74.3600,0.417
74.4000,0.424
74.4400,0.433
74.4800,0.462
74.5200,0.443
74.5600,0.449
74.6000,0.433
74.6400,0.424
74.6800,0.418
74.7200,0.455
74.7600,0.428
74.8000,0.449
74.8400,0.473
74.8800,0.543
74.9200,0.567
74.9600,0.550
75.0000,0.550
75.0400,0.551
75.0800,0.504
75.1200,0.519
75.1600,0.552
75.2000,0.488
75.2400,0.479
75.2800,0.449
75.3200,0.472
75.3600,0.475
75.4000,0.439
75.4400,0.430
75.4800,0.431
75.5200,0.400
75.5600,0.377
75.6000,0.409
75.6400,0.381
75.6800,0.387
75.7200,0.409
75.7600,0.417
75.8000,0.367
75.8400,0.376
75.8800,0.371
75.9200,0.397
75.9600,0.424
76.0000,0.430
76.0400,0.451
76.0800,0.425
76.1200,0.426
76.1600,0.368
76.2000,0.402
76.2400,0.403
76.2800,0.440
76.3200,0.457
76.3600,0.428
76.4000,0.426
76.4400,0.418
76.4800,0.394
76.5200,0.428
76.5600,0.427
76.6000,0.455
76.6400,0.393
76.6800,0.380
76.7200,0.401
76.7600,0.379
76.8000,0.380
76.8400,0.362
76.8800,0.389
76.9200,0.398
76.9600,0.362
77.0000,0.358
77.0400,0.352
77.0800,0.350
77.1200,0.350
77.1600,0.305
77.2000,0.359
77.2400,0.315
77.2800,0.326
77.3200,0.361
77.3600,0.359
77.4000,0.374
77.4400,0.315
77.4800,0.344
77.5200,0.315
77.5600,0.358
77.6000,0.313
77.6400,0.310
77.6800,0.315
77.7200,0.332
77.7600,0.312
77.8000,0.340
77.8400,0.320
77.8800,0.345
77.9200,0.335
77.9600,0.308
78.0000,0.358
78.0400,0.325
78.0800,0.311
78.1200,0.309
78.1600,0.306
78.2000,0.309
78.2400,0.311
78.2800,0.319
78.3200,0.340
78.3600,0.339
78.4000,0.323
78.4400,0.303
78.4800,0.298
78.5200,0.357
78.5600,0.351
78.6000,0.295
78.6400,0.328
78.6800,0.317
78.7200,0.318
78.7600,0.312
78.8000,0.366
78.8400,0.352
78.8800,0.309
78.9200,0.338
78.9600,0.311
79.0000,0.341
79.0400,0.313
79.0800,0.286
79.1200,0.316
79.1600,0.337
79.2000,0.317
79.2400,0.318
79.2800,0.303
79.3200,0.310
79.3600,0.314
79.4000,0.318
79.4400,0.295
79.4800,0.312
79.5200,0.330
79.5600,0.328
79.6000,0.310
79.6400,0.290
79.6800,0.276
79.7200,0.324
79.7600,0.349
79.8000,0.285
79.8400,0.314
79.8800,0.277
79.9200,0.297
79.9600,0.274
80.0000,0.291
