theta,intensity
5.0000,8.367
5.0400,8.273
5.0800,8.227
5.1200,8.421
5.1600,8.251
5.2000,8.039
5.2400,8.138
5.2800,7.984
5.3200,8.086
5.3600,7.955
5.4000,7.825
5.4400,7.874
5.4800,7.827
5.5200,7.648
5.5600,7.733
5.6000,7.603
5.6400,7.647
5.6800,7.461
5.7200,7.381
5.7600,7.341
5.8000,7.197
5.8400,7.114
5.8800,7.101
5.9200,7.112
5.9600,6.864
6.0000,6.668
6.0400,6.642
6.0800,6.659
6.1200,6.474
6.1600,6.308
6.2000,6.230
6.2400,6.169
6.2800,5.955
6.3200,5.962
6.3600,5.678
6.4000,5.774
6.4400,5.466
6.4800,5.411
6.5200,5.362
6.5600,5.292
6.6000,5.118
6.6400,5.194
6.6800,5.127
6.7200,5.039
6.7600,5.021
6.8000,4.928
6.8400,4.805
6.8800,4.813
6.9200,4.819
6.9600,4.657
7.0000,4.651
7.0400,4.664
7.0800,4.581
7.1200,4.497
7.1600,4.529
7.2000,4.532
7.2400,4.407
7.2800,4.395
7.3200,4.409
7.3600,4.319
7.4000,4.292
7.4400,4.311
7.4800,4.192
7.5200,4.312
7.5600,4.285
7.6000,4.248
7.6400,4.157
7.6800,4.144
7.7200,4.095
7.7600,4.175
7.8000,4.073
7.8400,4.155
7.8800,4.080
7.9200,3.972
7.9600,4.118
8.0000,4.085
8.0400,4.026
8.0800,4.063
8.1200,4.069
8.1600,4.077
8.2000,3.887
8.2400,3.957
8.2800,4.016
8.3200,3.993
8.3600,3.936
8.4000,4.072
8.4400,4.033
8.4800,3.963
8.5200,3.922
8.5600,3.924
8.6000,4.051
8.6400,3.992
8.6800,4.028
8.7200,4.057
8.7600,3.991
8.8000,3.940
8.8400,3.989
8.8800,3.982
8.9200,3.980
8.9600,3.953
9.0000,3.883
9.0400,3.860
9.0800,3.940
9.1200,3.772
9.1600,3.860
9.2000,3.950
9.2400,3.869
9.2800,3.863
9.3200,3.777
9.3600,3.927
9.4000,3.836
9.4400,3.902
9.4800,3.861
9.5200,3.867
9.5600,3.918
9.6000,3.821
9.6400,3.826
9.6800,3.793
9.7200,3.933
9.7600,3.814
9.8000,3.662
9.8400,3.804
9.8800,3.781
9.9200,3.841
9.9600,3.768
10.0000,3.724
10.0400,3.755
10.0800,3.881
10.1200,3.804
10.1600,3.810
10.2000,3.757
10.2400,3.774
10.2800,3.723
10.3200,3.827
10.3600,3.676
10.4000,3.782
10.4400,3.740
10.4800,3.715
10.5200,3.713
10.5600,3.721
10.6000,3.861
10.6400,3.724
10.6800,3.682
10.7200,3.711
10.7600,3.650
10.8000,3.609
10.8400,3.704
10.8800,3.720
10.9200,3.680
10.9600,3.785
11.0000,3.667
11.0400,3.696
11.0800,3.737
11.1200,3.657
11.1600,3.674
11.2000,3.646
11.2400,3.726
11.2800,3.727
11.3200,3.651
11.3600,3.569
11.4000,3.624
11.4400,3.691
11.4800,3.653
11.5200,3.712
11.5600,3.622
11.6000,3.626
11.6400,3.582
11.6800,3.495
11.7200,3.512
11.7600,3.614
11.8000,3.674
11.8400,3.516
11.8800,3.576
11.9200,3.629
11.9600,3.542
12.0000,3.474
12.0400,3.569
12.0800,3.460
12.1200,3.460
12.1600,3.418
12.2000,3.629
12.2400,3.522
12.2800,3.484
12.3200,3.465
12.3600,3.590
12.4000,3.495
12.4400,3.475
12.4800,3.506
12.5200,3.476
12.5600,3.518
12.6000,3.463
12.6400,3.468
12.6800,3.483
12.7200,3.490
12.7600,3.428
12.8000,3.470
12.8400,3.450
12.8800,3.425
12.9200,3.409
12.9600,3.409
13.0000,3.457
13.0400,3.510
13.0800,3.429
13.1200,3.362
13.1600,3.491
13.2000,3.463
13.2400,3.455
13.2800,3.365
13.3200,3.439
13.3600,3.384
13.4000,3.422
13.4400,3.428
13.4800,3.387
13.5200,3.457
13.5600,3.441
13.6000,3.312
13.6400,3.367
13.6800,3.397
13.7200,3.335
13.7600,3.369
13.8000,3.430
13.8400,3.357
13.8800,3.397
13.9200,3.379
13.9600,3.385
14.0000,3.298
14.0400,3.380
14.0800,3.362
14.1200,3.257
14.1600,3.340
14.2000,3.356
14.2400,3.272
14.2800,3.345
14.3200,3.383
14.3600,3.440
14.4000,3.364
14.4400,3.315
14.4800,3.290
14.5200,3.381
14.5600,3.322
14.6000,3.245
14.6400,3.318
14.6800,3.232
14.7200,3.239
14.7600,3.369
14.8000,3.207
14.8400,3.297
14.8800,3.248
14.9200,3.266
14.9600,3.236
15.0000,3.251
15.0400,3.165
15.0800,3.238
15.1200,3.281
15.1600,3.242
15.2000,3.201
15.2400,3.207
15.2800,3.224
15.3200,3.174
15.3600,3.151
15.4000,3.310
15.4400,3.154
15.4800,3.147
15.5200,3.257
15.5600,3.243
15.6000,3.221
15.6400,3.152
15.6800,3.127
15.7200,3.171
15.7600,3.148
15.8000,3.156
15.8400,3.247
15.8800,3.203
15.9200,3.203
15.9600,3.167
16.0000,3.104
16.0400,3.189
16.0800,3.042
16.1200,3.101
16.1600,3.116
16.2000,3.129
16.2400,3.139
16.2800,3.118
16.3200,3.042
16.3600,3.126
16.4000,3.142
16.4400,3.161
16.4800,3.018
16.5200,3.073
16.5600,3.068
16.6000,3.090
16.6400,2.946
16.6800,3.099
16.7200,3.206
16.7600,3.119
16.8000,3.091
16.8400,3.086
16.8800,3.073
16.9200,3.071
16.9600,3.082
17.0000,2.951
17.0400,3.092
17.0800,3.044
17.1200,3.038
17.1600,3.080
17.2000,3.032
17.2400,3.081
17.2800,3.017
17.3200,3.069
17.3600,2.993
17.4000,3.096
17.4400,3.083
17.4800,2.956
17.5200,2.945
17.5600,3.028
17.6000,2.979
17.6400,2.894
17.6800,2.907
17.7200,3.014
17.7600,2.927
17.8000,2.947
17.8400,2.967
17.8800,2.991
17.9200,3.012
17.9600,2.992
18.0000,2.998
18.0400,2.932
18.0800,2.914
18.1200,2.942
18.1600,2.956
18.2000,2.960
18.2400,2.897
18.2800,2.966
18.3200,2.916
18.3600,2.972
18.4000,2.923
18.4400,2.953
18.4800,2.924
18.5200,2.846
18.5600,2.866
18.6000,2.957
18.6400,2.888
18.6800,2.891
18.7200,2.808
18.7600,2.813
18.8000,2.907
18.8400,2.851
18.8800,2.943
18.9200,2.797
18.9600,2.900
19.0000,2.921
19.0400,2.902
19.0800,2.869
19.1200,2.969
19.1600,2.783
19.2000,2.839
19.2400,2.896
19.2800,2.868
19.3200,2.815
19.3600,2.791
19.4000,2.817
19.4400,2.738
19.4800,2.869
19.5200,2.790
19.5600,2.740
19.6000,2.810
19.6400,2.780
19.6800,2.818
19.7200,2.878
19.7600,2.871
19.8000,2.763
19.8400,2.735
19.8800,2.805
19.9200,2.741
19.9600,2.704
20.0000,2.723
20.0400,2.651
20.0800,2.746
20.1200,2.736
20.1600,2.849
20.2000,2.732
20.2400,2.709
20.2800,2.762
20.3200,2.776
20.3600,2.829
20.4000,2.699
20.4400,2.696
20.4800,2.755
20.5200,2.742
20.5600,2.739
20.6000,2.733
20.6400,2.660
20.6800,2.697
20.7200,2.678
20.7600,2.658
20.8000,2.645
20.8400,2.686
20.8800,2.703
20.9200,2.690
20.9600,2.751
21.0000,2.698
21.0400,2.659
21.0800,2.669
21.1200,2.625
21.1600,2.686
21.2000,2.664
21.2400,2.643
21.2800,2.637
21.3200,2.610
21.3600,2.688
21.4000,2.611
21.4400,2.589
21.4800,2.682
21.5200,2.631
21.5600,2.541
21.6000,2.634
21.6400,2.669
21.6800,2.687
21.7200,2.637
21.7600,2.559
21.8000,2.644
21.8400,2.647
21.8800,2.618
21.9200,2.610
21.9600,2.529
22.0000,2.584
22.0400,2.538
22.0800,2.567
22.1200,2.435
22.1600,2.618
22.2000,2.594
22.2400,2.503
22.2800,2.497
22.3200,2.481
22.3600,2.609
22.4000,2.554
22.4400,2.520
22.4800,2.384
22.5200,2.470
22.5600,2.492
22.6000,2.608
22.6400,2.543
22.6800,2.466
22.7200,2.579
22.7600,2.443
22.8000,2.539
22.8400,2.541
22.8800,2.455
22.9200,2.481
22.9600,2.538
23.0000,2.522
23.0400,2.441
23.0800,2.449
23.1200,2.437
23.1600,2.430
23.2000,2.446
23.2400,2.496
23.2800,2.519
23.3200,2.510
23.3600,2.411
23.4000,2.351
23.4400,2.467
23.4800,2.449
23.5200,2.452
23.5600,2.452
23.6000,2.434
23.6400,2.377
23.6800,2.348
23.7200,2.413
23.7600,2.375
23.8000,2.460
23.8400,2.377
23.8800,2.332
23.9200,2.378
23.9600,2.350
24.0000,2.256
24.0400,2.323
24.0800,2.399
24.1200,2.307
24.1600,2.387
24.2000,2.393
24.2400,2.361
24.2800,2.242
24.3200,2.390
24.3600,2.396
24.4000,2.375
24.4400,2.324
24.4800,2.276
24.5200,2.327
24.5600,2.302
24.6000,2.368
24.6400,2.368
24.6800,2.320
24.7200,2.402
24.7600,2.347
24.8000,2.254
24.8400,2.282
24.8800,2.351
24.9200,2.419
24.9600,2.322
25.0000,2.331
25.0400,2.344
25.0800,2.264
25.1200,2.289
25.1600,2.321
25.2000,2.302
25.2400,2.299
25.2800,2.376
25.3200,2.264
25.3600,2.238
25.4000,2.191
25.4400,2.266
25.4800,2.249
25.5200,2.216
25.5600,2.212
25.6000,2.223
25.6400,2.225
25.6800,2.167
25.7200,2.255
25.7600,2.220
25.8000,2.199
25.8400,2.302
25.8800,2.259
25.9200,2.250
25.9600,2.194
26.0000,2.197
26.0400,2.149
26.0800,2.142
26.1200,2.196
26.1600,2.244
26.2000,2.171
26.2400,2.176
26.2800,2.235
26.3200,2.162
26.3600,2.145
26.4000,2.180
26.4400,2.253
26.4800,2.115
26.5200,2.166
26.5600,2.096
26.6000,2.212
26.6400,2.082
26.6800,2.137
26.7200,2.256
26.7600,2.184
26.8000,2.049
26.8400,2.169
26.8800,2.202
26.9200,2.062
26.9600,2.129
27.0000,2.160
27.0400,2.087
27.0800,2.147
27.1200,2.106
27.1600,2.207
27.2000,2.054
27.2400,2.164
27.2800,2.128
27.3200,2.093
27.3600,2.147
27.4000,2.177
27.4400,2.199
27.4800,2.148
27.5200,1.979
27.5600,2.135
27.6000,2.162
27.6400,2.033
27.6800,2.104
27.7200,2.008
27.7600,2.091
27.8000,2.074
27.8400,2.137
27.8800,2.075
27.9200,1.994
27.9600,2.041
28.0000,2.024
28.0400,2.051
28.0800,2.022
28.1200,2.011
28.1600,2.001
28.2000,2.072
28.2400,2.066
28.2800,1.943
28.3200,2.025
28.3600,2.052
28.4000,1.977
28.4400,2.068
28.4800,2.071
28.5200,2.041
28.5600,2.016
28.6000,2.019
28.6400,2.042
28.6800,2.086
28.7200,1.927
28.7600,1.980
28.8000,2.004
28.8400,2.007
28.8800,1.954
28.9200,1.977
28.9600,2.025
29.0000,1.956
29.0400,1.965
29.0800,1.971
29.1200,1.918
29.1600,2.001
29.2000,1.961
29.2400,2.023
29.2800,1.953
29.3200,2.012
29.3600,1.955
29.4000,1.880
29.4400,1.923
29.4800,1.951
29.5200,1.910
29.5600,1.990
29.6000,1.976
29.6400,1.953
29.6800,1.894
29.7200,1.911
29.7600,1.962
29.8000,1.945
29.8400,1.781
29.8800,1.881
29.9200,1.882
29.9600,1.956
30.0000,1.920
30.0400,1.972
30.0800,1.931
30.1200,1.980
30.1600,1.907
30.2000,1.925
30.2400,1.890
30.2800,1.874
30.3200,1.970
30.3600,1.896
30.4000,1.915
30.4400,1.914
30.4800,1.933
30.5200,1.899
30.5600,1.875
30.6000,1.905
30.6400,1.786
30.6800,1.976
30.7200,1.902
30.7600,1.871
30.8000,1.885
30.8400,1.939
30.8800,1.908
30.9200,1.885
30.9600,1.950
31.0000,1.978
31.0400,1.930
31.0800,2.011
31.1200,1.996
31.1600,2.015
31.2000,2.047
31.2400,2.082
31.2800,2.068
31.3200,2.079
31.3600,2.102
31.4000,2.210
31.4400,2.268
31.4800,2.369
31.5200,2.381
31.5600,2.508
31.6000,2.544
31.6400,2.689
31.6800,2.879
31.7200,2.971
31.7600,2.906
31.8000,2.944
31.8400,2.861
31.8800,2.722
31.9200,2.670
31.9600,2.639
32.0000,2.510
32.0400,2.348
32.0800,2.329
32.1200,2.266
32.1600,2.156
32.2000,2.189
32.2400,2.195
32.2800,2.130
32.3200,2.113
32.3600,2.090
32.4000,2.099
32.4400,2.033
32.4800,2.032
32.5200,2.004
32.5600,1.926
32.6000,1.984
32.6400,1.908
32.6800,1.899
32.7200,1.957
32.7600,1.930
32.8000,1.952
32.8400,1.895
32.8800,1.820
32.9200,1.878
32.9600,1.903
33.0000,1.741
33.0400,1.824
33.0800,1.896
33.1200,1.837
33.1600,1.876
33.2000,1.940
33.2400,1.905
33.2800,1.857
33.3200,1.860
33.3600,1.804
33.4000,1.837
33.4400,1.761
33.4800,1.841
33.5200,1.844
33.5600,1.931
33.6000,1.903
33.6400,1.896
33.6800,1.913
33.7200,2.005
33.7600,1.933
33.8000,1.981
33.8400,2.004
33.8800,2.067
33.9200,1.984
33.9600,2.028
34.0000,2.093
34.0400,2.084
34.0800,2.194
34.1200,2.098
34.1600,2.254
34.2000,2.242
34.2400,2.285
34.2800,2.284
34.3200,2.247
34.3600,2.335
34.4000,2.298
34.4400,2.291
34.4800,2.307
34.5200,2.306
34.5600,2.261
34.6000,2.274
34.6400,2.153
34.6800,2.165
34.7200,2.141
34.7600,2.020
34.8000,2.137
34.8400,2.167
34.8800,2.072
34.9200,2.000
34.9600,1.932
35.0000,2.016
35.0400,1.996
35.0800,1.972
35.1200,1.967
35.1600,1.961
35.2000,1.975
35.2400,2.016
35.2800,2.040
35.3200,2.039
35.3600,2.010
35.4000,1.961
35.4400,2.022
35.4800,2.074
35.5200,2.043
35.5600,2.124
35.6000,2.189
35.6400,2.214
35.6800,2.260
35.7200,2.306
35.7600,2.406
35.8000,2.430
35.8400,2.566
35.8800,2.607
35.9200,2.816
35.9600,2.781
36.0000,2.825
36.0400,2.928
36.0800,3.099
36.1200,3.268
36.1600,3.275
36.2000,3.240
36.2400,3.310
36.2800,3.169
36.3200,3.285
36.3600,3.192
36.4000,3.110
36.4400,2.911
36.4800,2.859
36.5200,2.696
36.5600,2.640
36.6000,2.598
36.6400,2.622
36.6800,2.408
36.7200,2.482
36.7600,2.303
36.8000,2.358
36.8400,2.249
36.8800,2.201
36.9200,2.195
36.9600,2.144
37.0000,2.163
37.0400,2.099
37.0800,2.123
37.1200,2.041
37.1600,2.031
37.2000,2.061
37.2400,2.077
37.2800,2.095
37.3200,2.134
37.3600,2.081
37.4000,2.106
37.4400,2.101
37.4800,2.158
37.5200,2.224
37.5600,2.222
37.6000,2.309
37.6400,2.335
37.6800,2.427
37.7200,2.438
37.7600,2.565
37.8000,2.799
37.8400,3.009
37.8800,3.190
37.9200,3.347
37.9600,3.733
38.0000,4.103
38.0400,4.568
38.0800,4.697
38.1200,4.720
38.1600,4.434
38.2000,4.317
38.2400,4.051
38.2800,3.645
38.3200,3.393
38.3600,3.174
38.4000,3.014
38.4400,2.894
38.4800,2.722
38.5200,2.560
38.5600,2.455
38.6000,2.400
38.6400,2.263
38.6800,2.262
38.7200,2.148
38.7600,2.124
38.8000,2.061
38.8400,2.028
38.8800,1.977
38.9200,1.993
38.9600,1.902
39.0000,1.892
39.0400,1.972
39.0800,1.962
39.1200,1.983
39.1600,1.864
39.2000,1.819
39.2400,1.848
39.2800,1.860
39.3200,1.824
39.3600,1.833
39.4000,1.828
39.4400,1.863
39.4800,1.857
39.5200,1.796
39.5600,1.880
39.6000,1.784
39.6400,1.788
39.6800,1.906
39.7200,1.814
39.7600,1.826
39.8000,1.876
39.8400,1.847
39.8800,1.842
39.9200,1.878
39.9600,1.838
40.0000,1.782
40.0400,1.824
40.0800,1.911
40.1200,1.874
40.1600,1.824
40.2000,1.874
40.2400,1.852
40.2800,1.908
40.3200,1.835
40.3600,1.886
40.4000,1.937
40.4400,1.887
40.4800,1.908
40.5200,1.992
40.5600,1.975
40.6000,1.918
40.6400,1.956
40.6800,1.912
40.7200,1.913
40.7600,1.984
40.8000,1.947
40.8400,1.888
40.8800,1.970
40.9200,1.911
40.9600,1.893
41.0000,1.903
41.0400,1.895
41.0800,1.874
41.1200,1.834
41.1600,1.795
41.2000,1.863
41.2400,1.829
41.2800,1.780
41.3200,1.842
41.3600,1.786
41.4000,1.725
41.4400,1.718
41.4800,1.654
41.5200,1.694
41.5600,1.615
41.6000,1.620
41.6400,1.671
41.6800,1.671
41.7200,1.557
41.7600,1.560
41.8000,1.485
41.8400,1.579
41.8800,1.526
41.9200,1.502
41.9600,1.554
42.0000,1.515
42.0400,1.506
42.0800,1.506
42.1200,1.471
42.1600,1.533
42.2000,1.440
42.2400,1.448
42.2800,1.423
42.3200,1.444
42.3600,1.397
42.4000,1.425
42.4400,1.369
42.4800,1.436
42.5200,1.301
42.5600,1.375
42.6000,1.395
42.6400,1.359
42.6800,1.399
42.7200,1.358
42.7600,1.402
42.8000,1.291
42.8400,1.331
42.8800,1.361
42.9200,1.342
42.9600,1.334
43.0000,1.252
43.0400,1.273
43.0800,1.347
43.1200,1.289
43.1600,1.338
43.2000,1.255
43.2400,1.292
43.2800,1.298
43.3200,1.276
43.3600,1.286
43.4000,1.343
43.4400,1.304
43.4800,1.335
43.5200,1.262
43.5600,1.322
43.6000,1.379
43.6400,1.343
43.6800,1.340
43.7200,1.324
43.7600,1.313
43.8000,1.409
43.8400,1.425
43.8800,1.384
43.9200,1.385
43.9600,1.446
44.0000,1.509
44.0400,1.453
44.0800,1.527
44.1200,1.509
44.1600,1.539
44.2000,1.597
44.2400,1.618
44.2800,1.660
44.3200,1.587
44.3600,1.611
44.4000,1.631
44.4400,1.560
44.4800,1.506
44.5200,1.431
44.5600,1.338
44.6000,1.384
44.6400,1.319
44.6800,1.331
44.7200,1.256
44.7600,1.318
44.8000,1.261
44.8400,1.224
44.8800,1.192
44.9200,1.171
44.9600,1.190
45.0000,1.147
45.0400,1.137
45.0800,1.163
45.1200,1.083
45.1600,1.118
45.2000,1.112
45.2400,1.141
45.2800,1.126
45.3200,1.093
45.3600,1.075
45.4000,1.143
45.4400,1.071
45.4800,1.100
45.5200,1.077
45.5600,1.112
45.6000,1.079
45.6400,1.048
45.6800,1.123
45.7200,1.096
45.7600,1.024
45.8000,1.054
45.8400,1.076
45.8800,1.059
45.9200,1.033
45.9600,1.055
46.0000,1.047
46.0400,1.037
46.0800,1.006
46.1200,0.988
46.1600,1.035
46.2000,1.054
46.2400,1.056
46.2800,1.080
46.3200,1.002
46.3600,1.023
46.4000,1.038
46.4400,0.990
46.4800,1.023
46.5200,0.976
46.5600,1.036
46.6000,1.007
46.6400,1.039
46.6800,1.090
46.7200,1.044
46.7600,1.016
46.8000,1.022
46.8400,1.026
46.8800,1.018
46.9200,1.064
46.9600,0.988
47.0000,1.056
47.0400,1.005
47.0800,1.022
47.1200,1.044
47.1600,1.015
47.2000,1.060
47.2400,1.060
47.2800,1.060
47.3200,1.061
47.3600,1.041
47.4000,1.071
47.4400,1.031
47.4800,1.057
47.5200,1.065
47.5600,1.071
47.6000,1.023
47.6400,1.069
47.6800,1.060
47.7200,1.019
47.7600,1.092
47.8000,0.982
47.8400,1.044
47.8800,0.997
47.9200,1.033
47.9600,1.024
48.0000,0.986
48.0400,0.987
48.0800,0.948
48.1200,1.015
48.1600,0.936
48.2000,0.974
48.2400,0.983
48.2800,0.970
48.3200,0.991
48.3600,0.940
48.4000,0.942
48.4400,0.933
48.4800,0.875
48.5200,0.888
48.5600,0.931
48.6000,0.923
48.6400,0.898
48.6800,0.933
48.7200,0.989
48.7600,0.976
48.8000,0.892
48.8400,0.831
48.8800,0.941
48.9200,0.923
48.9600,0.883
49.0000,0.842
49.0400,0.873
49.0800,0.899
49.1200,0.874
49.1600,0.862
49.2000,0.881
49.2400,0.856
49.2800,0.872
49.3200,0.913
49.3600,0.829
49.4000,0.850
49.4400,0.858
49.4800,0.870
49.5200,0.863
49.5600,0.845
49.6000,0.864
49.6400,0.827
49.6800,0.879
49.7200,0.834
49.7600,0.835
49.8000,0.848
49.8400,0.854
49.8800,0.830
49.9200,0.821
49.9600,0.817
50.0000,0.890
50.0400,0.845
50.0800,0.768
50.1200,0.829
50.1600,0.768
50.2000,0.853
50.2400,0.788
50.2800,0.816
50.3200,0.841
50.3600,0.800
50.4000,0.798
50.4400,0.818
50.4800,0.803
50.5200,0.743
50.5600,0.905
50.6000,0.757
50.6400,0.777
50.6800,0.828
50.7200,0.803
50.7600,0.827
50.8000,0.826
50.8400,0.836
50.8800,0.764
50.9200,0.821
50.9600,0.815
51.0000,0.767
51.0400,0.763
51.0800,0.777
51.1200,0.756
51.1600,0.796
51.2000,0.771
51.2400,0.820
51.2800,0.831
51.3200,0.763
51.3600,0.822
51.4000,0.808
51.4400,0.821
51.4800,0.803
51.5200,0.798
51.5600,0.819
51.6000,0.797
51.6400,0.716
51.6800,0.776
51.7200,0.755
51.7600,0.770
51.8000,0.790
51.8400,0.730
51.8800,0.745
51.9200,0.767
51.9600,0.797
52.0000,0.778
52.0400,0.752
52.0800,0.773
52.1200,0.777
52.1600,0.790
52.2000,0.747
52.2400,0.783
52.2800,0.768
52.3200,0.722
52.3600,0.726
52.4000,0.812
52.4400,0.777
52.4800,0.802
52.5200,0.746
52.5600,0.814
52.6000,0.761
52.6400,0.736
52.6800,0.746
52.7200,0.801
52.7600,0.776
52.8000,0.742
52.8400,0.754
52.8800,0.826
52.9200,0.757
52.9600,0.753
53.0000,0.742
53.0400,0.771
53.0800,0.756
53.1200,0.745
53.1600,0.741
53.2000,0.766
53.2400,0.759
53.2800,0.772
53.3200,0.772
53.3600,0.748
53.4000,0.735
53.4400,0.772
53.4800,0.731
53.5200,0.753
53.5600,0.773
53.6000,0.716
53.6400,0.730
53.6800,0.800
53.7200,0.763
53.7600,0.753
53.8000,0.757
53.8400,0.728
53.8800,0.704
53.9200,0.719
53.9600,0.744
54.0000,0.718
54.0400,0.731
54.0800,0.713
54.1200,0.749
54.1600,0.728
54.2000,0.753
54.2400,0.750
54.2800,0.707
54.3200,0.743
54.3600,0.735
54.4000,0.688
54.4400,0.705
54.4800,0.762
54.5200,0.744
54.5600,0.706
54.6000,0.741
54.6400,0.721
54.6800,0.659
54.7200,0.702
54.7600,0.733
54.8000,0.707
54.8400,0.720
54.8800,0.732
54.9200,0.703
54.9600,0.754
55.0000,0.682
55.0400,0.735
55.0800,0.741
55.1200,0.694
55.1600,0.743
55.2000,0.728
55.2400,0.702
55.2800,0.717
55.3200,0.682
55.3600,0.683
55.4000,0.718
55.4400,0.693
55.4800,0.754
55.5200,0.698
55.5600,0.758
55.6000,0.770
55.6400,0.711
55.6800,0.770
55.7200,0.699
55.7600,0.772
55.8000,0.756
55.8400,0.720
55.8800,0.715
55.9200,0.739
55.9600,0.780
56.0000,0.819
56.0400,0.722
56.0800,0.803
56.1200,0.796
56.1600,0.813
56.2000,0.778
56.2400,0.805
56.2800,0.832
56.3200,0.882
56.3600,0.920
56.4000,0.935
56.4400,0.880
56.4800,0.956
56.5200,0.982
56.5600,1.098
56.6000,1.054
56.6400,1.047
56.6800,1.005
56.7200,0.978
56.7600,0.916
56.8000,0.947
56.8400,0.942
56.8800,0.919
56.9200,0.879
56.9600,0.824
57.0000,0.826
57.0400,0.829
57.0800,0.825
57.1200,0.767
57.1600,0.796
57.2000,0.801
57.2400,0.702
57.2800,0.771
57.3200,0.726
57.3600,0.761
57.4000,0.743
57.4400,0.736
57.4800,0.745
57.5200,0.737
57.5600,0.727
57.6000,0.782
57.6400,0.717
57.6800,0.739
57.7200,0.703
57.7600,0.667
57.8000,0.694
57.8400,0.690
57.8800,0.689
57.9200,0.687
57.9600,0.673
58.0000,0.668
58.0400,0.686
58.0800,0.663
58.1200,0.682
58.1600,0.630
58.2000,0.627
58.2400,0.666
58.2800,0.652
58.3200,0.638
58.3600,0.705
58.4000,0.673
58.4400,0.653
58.4800,0.679
58.5200,0.668
58.5600,0.634
58.6000,0.698
58.6400,0.654
58.6800,0.651
58.7200,0.612
58.7600,0.643
58.8000,0.661
58.8400,0.672
58.8800,0.641
58.9200,0.592
58.9600,0.674
59.0000,0.631
59.0400,0.641
59.0800,0.635
59.1200,0.646
59.1600,0.573
59.2000,0.657
59.2400,0.637
59.2800,0.602
59.3200,0.630
59.3600,0.596
59.4000,0.654
59.4400,0.617
59.4800,0.605
59.5200,0.614
59.5600,0.637
59.6000,0.604
59.6400,0.614
59.6800,0.637
59.7200,0.556
59.7600,0.644
59.8000,0.624
59.8400,0.595
59.8800,0.594
59.9200,0.586
59.9600,0.649
60.0000,0.607
60.0400,0.608
60.0800,0.627
60.1200,0.608
60.1600,0.608
60.2000,0.636
60.2400,0.594
60.2800,0.603
60.3200,0.562
60.3600,0.605
60.4000,0.587
60.4400,0.582
60.4800,0.575
60.5200,0.663
60.5600,0.566
60.6000,0.621
60.6400,0.649
60.6800,0.578
60.7200,0.624
60.7600,0.593
60.8000,0.600
60.8400,0.606
60.8800,0.635
60.9200,0.617
60.9600,0.596
61.0000,0.558
61.0400,0.573
61.0800,0.618
61.1200,0.632
61.1600,0.588
61.2000,0.584
61.2400,0.544
61.2800,0.612
61.3200,0.602
61.3600,0.607
61.4000,0.598
61.4400,0.646
61.4800,0.642
61.5200,0.651
61.5600,0.595
61.6000,0.669
61.6400,0.739
61.6800,0.685
61.7200,0.652
61.7600,0.615
61.8000,0.633
61.8400,0.642
61.8800,0.667
61.9200,0.685
61.9600,0.614
62.0000,0.649
62.0400,0.647
62.0800,0.642
62.1200,0.639
62.1600,0.655
62.2000,0.631
62.2400,0.620
62.2800,0.659
62.3200,0.662
62.3600,0.700
62.4000,0.724
62.4400,0.694
62.4800,0.718
62.5200,0.732
62.5600,0.736
62.6000,0.737
62.6400,0.672
62.6800,0.724
62.7200,0.792
62.7600,0.743
62.8000,0.754
62.8400,0.756
62.8800,0.760
62.9200,0.770
62.9600,0.768
63.0000,0.745
63.0400,0.714
63.0800,0.748
63.1200,0.734
63.1600,0.706
63.2000,0.751
63.2400,0.689
63.2800,0.736
63.3200,0.705
63.3600,0.730
63.4000,0.698
63.4400,0.682
63.4800,0.671
63.5200,0.699
63.5600,0.703
63.6000,0.677
63.6400,0.669
63.6800,0.703
63.7200,0.706
63.7600,0.723
63.8000,0.716
63.8400,0.699
63.8800,0.746
63.9200,0.709
63.9600,0.730
64.0000,0.754
64.0400,0.735
64.0800,0.804
64.1200,0.845
64.1600,0.802
64.2000,0.873
64.2400,0.830
64.2800,0.906
64.3200,0.939
64.3600,0.989
64.4000,1.032
64.4400,1.054
64.4800,0.974
64.5200,1.084
64.5600,1.001
64.6000,0.942
64.6400,0.961
64.6800,0.946
64.7200,0.959
64.7600,0.890
64.8000,0.883
64.8400,0.865
64.8800,0.877
64.9200,0.882
64.9600,0.869
65.0000,0.877
65.0400,0.803
65.0800,0.848
65.1200,0.845
65.1600,0.842
65.2000,0.759
65.2400,0.757
65.2800,0.788
65.3200,0.726
65.3600,0.771
65.4000,0.788
65.4400,0.787
65.4800,0.787
65.5200,0.772
65.5600,0.734
65.6000,0.733
65.6400,0.779
65.6800,0.727
65.7200,0.714
65.7600,0.798
65.8000,0.830
65.8400,0.774
65.8800,0.777
65.9200,0.800
65.9600,0.837
66.0000,0.820
66.0400,0.805
66.0800,0.872
66.1200,0.839
66.1600,0.867
66.2000,0.808
66.2400,0.909
66.2800,0.900
66.3200,0.907
66.3600,0.887
66.4000,0.904
66.4400,0.944
66.4800,0.882
66.5200,0.931
66.5600,0.889
66.6000,0.951
66.6400,0.964
66.6800,0.948
66.7200,1.029
66.7600,1.017
66.8000,1.020
66.8400,1.016
66.8800,0.999
66.9200,1.133
66.9600,1.080
67.0000,1.094
67.0400,1.107
67.0800,1.098
67.1200,1.168
67.1600,1.152
67.2000,1.158
67.2400,1.227
67.2800,1.208
67.3200,1.229
67.3600,1.247
67.4000,1.230
67.4400,1.297
67.4800,1.326
67.5200,1.337
67.5600,1.345
67.6000,1.416
67.6400,1.454
67.6800,1.504
67.7200,1.553
67.7600,1.545
67.8000,1.644
67.8400,1.657
67.8800,1.715
67.9200,1.720
67.9600,1.747
68.0000,1.803
68.0400,1.895
68.0800,1.923
68.1200,1.925
68.1600,1.970
68.2000,2.029
68.2400,2.110
68.2800,2.162
68.3200,2.234
68.3600,2.313
68.4000,2.364
68.4400,2.562
68.4800,2.640
68.5200,2.748
68.5600,2.907
68.6000,3.176
68.6400,3.704
68.6800,4.525
68.7200,5.678
68.7600,6.932
68.8000,7.248
68.8400,7.455
68.8800,7.987
68.9200,10.317
68.9600,15.353
69.0000,29.293
69.0400,107.830
69.0800,406.994
69.1200,475.755
69.1600,179.332
69.2000,51.468
69.2400,77.413
69.2800,219.307
69.3200,236.267
69.3600,88.444
69.4000,23.814
69.4400,12.506
69.4800,8.516
69.5200,6.968
69.5600,5.880
69.6000,4.750
69.6400,4.329
69.6800,3.879
69.7200,3.695
69.7600,3.368
69.8000,3.132
69.8400,2.810
69.8800,2.709
69.9200,2.602
69.9600,2.627
70.0000,2.348
70.0400,2.299
70.0800,2.224
70.1200,2.164
70.1600,2.128
70.2000,1.937
70.2400,1.920
70.2800,1.827
70.3200,1.805
70.3600,1.778
70.4000,1.664
70.4400,1.684
70.4800,1.597
70.5200,1.548
70.5600,1.508
70.6000,1.461
70.6400,1.478
70.6800,1.373
70.7200,1.319
70.7600,1.347
70.8000,1.302
70.8400,1.318
70.8800,1.217
70.9200,1.197
70.9600,1.133
71.0000,1.128
71.0400,1.180
71.0800,1.079
71.1200,1.129
71.1600,1.036
71.2000,1.040
71.2400,0.994
71.2800,0.985
71.3200,0.981
71.3600,0.954
71.4000,0.909
71.4400,0.908
71.4800,0.911
71.5200,0.918
71.5600,0.856
71.6000,0.819
71.6400,0.833
71.6800,0.783
71.7200,0.806
71.7600,0.773
71.8000,0.809
71.8400,0.759
71.8800,0.778
71.9200,0.760
71.9600,0.730
72.0000,0.673
72.0400,0.687
72.0800,0.699
72.1200,0.714
72.1600,0.700
72.2000,0.671
72.2400,0.703
72.2800,0.691
72.3200,0.658
72.3600,0.669
72.4000,0.660
72.4400,0.599
72.4800,0.636
72.5200,0.606
72.5600,0.582
72.6000,0.615
72.6400,0.559
72.6800,0.591
72.7200,0.570
72.7600,0.581
72.8000,0.588
72.8400,0.594
72.8800,0.561
72.9200,0.533
72.9600,0.543
73.0000,0.544
73.0400,0.572
73.0800,0.542
73.1200,0.515
73.1600,0.498
73.2000,0.524
73.2400,0.555
73.2800,0.485
73.3200,0.519
73.3600,0.502
73.4000,0.502
73.4400,0.493
73.4800,0.472
73.5200,0.453
73.5600,0.482
73.6000,0.506
73.6400,0.484
73.6800,0.502
73.7200,0.493
73.7600,0.535
73.8000,0.502
73.8400,0.467
73.8800,0.458
73.9200,0.463
73.9600,0.421
74.0000,0.461
74.0400,0.470
74.0800,0.489
74.1200,0.440
74.1600,0.428
74.2000,0.449
74.2400,0.405
74.2800,0.421
74.3200,0.486
74.3600,0.457
74.4000,0.404
74.4400,0.423
74.4800,0.442
74.5200,0.452
74.5600,0.425
74.6000,0.433
74.6400,0.418
74.6800,0.418
74.7200,0.437
74.7600,0.420
74.8000,0.426
74.8400,0.427
74.8800,0.421
74.9200,0.409
74.9600,0.418
75.0000,0.390
75.0400,0.406
75.0800,0.389
75.1200,0.439
75.1600,0.420
75.2000,0.422
75.2400,0.401
75.2800,0.420
75.3200,0.388
75.3600,0.445
75.4000,0.442
75.4400,0.425
75.4800,0.419
75.5200,0.421
75.5600,0.400
75.6000,0.392
75.6400,0.425
75.6800,0.418
75.7200,0.430
75.7600,0.415
75.8000,0.405
75.8400,0.427
75.8800,0.428
75.9200,0.412
75.9600,0.423
76.0000,0.426
76.0400,0.434
76.0800,0.434
76.1200,0.442
76.1600,0.438
76.2000,0.465
76.2400,0.411
76.2800,0.418
76.3200,0.477
76.3600,0.474
76.4000,0.425
76.4400,0.437
76.4800,0.448
76.5200,0.420
76.5600,0.455
76.6000,0.445
76.6400,0.435
76.6800,0.497
76.7200,0.488
76.7600,0.492
76.8000,0.523
76.8400,0.524
76.8800,0.487
76.9200,0.532
76.9600,0.548
77.0000,0.506
77.0400,0.563
77.0800,0.595
77.1200,0.557
77.1600,0.631
77.2000,0.627
77.2400,0.635
77.2800,0.666
77.3200,0.724
77.3600,0.665
77.4000,0.718
77.4400,0.713
77.4800,0.697
77.5200,0.670
77.5600,0.689
77.6000,0.675
77.6400,0.684
77.6800,0.596
77.7200,0.626
77.7600,0.575
77.8000,0.591
77.8400,0.510
77.8800,0.562
77.9200,0.517
77.9600,0.499
78.0000,0.473
78.0400,0.502
78.0800,0.536
78.1200,0.470
78.1600,0.466
78.2000,0.509
78.2400,0.443
78.2800,0.435
78.3200,0.486
78.3600,0.419
78.4000,0.412
78.4400,0.433
78.4800,0.431
78.5200,0.417
78.5600,0.417
78.6000,0.431
78.6400,0.410
78.6800,0.409
78.7200,0.423
78.7600,0.434
78.8000,0.396
78.8400,0.407
78.8800,0.396
78.9200,0.421
78.9600,0.400
79.0000,0.362
79.0400,0.387
79.0800,0.378
79.1200,0.355
79.1600,0.365
79.2000,0.375
79.2400,0.360
79.2800,0.363
79.3200,0.356
79.3600,0.358
79.4000,0.382
79.4400,0.372
79.4800,0.339
79.5200,0.351
79.5600,0.384
79.6000,0.371
79.6400,0.338
79.6800,0.364
79.7200,0.396
79.7600,0.350
79.8000,0.365
79.8400,0.353
79.8800,0.342
79.9200,0.374
79.9600,0.334
80.0000,0.335
