theta,intensity
5.0000,4.263
5.0400,4.322
5.0800,4.302
5.1200,4.337
5.1600,4.374
5.2000,4.285
5.2400,4.328
5.2800,4.421
5.3200,4.282
5.3600,4.150
5.4000,4.161
5.4400,4.230
5.4800,4.067
5.5200,4.146
5.5600,3.970
5.6000,4.173
5.6400,4.230
5.6800,4.150
5.7200,4.077
5.7600,4.215
5.8000,4.028
5.8400,4.121
5.8800,4.107
5.9200,4.012
5.9600,4.088
6.0000,4.116
6.0400,4.014
6.0800,4.011
6.1200,3.963
6.1600,4.087
6.2000,3.986
6.2400,3.872
6.2800,3.973
6.3200,4.017
6.3600,3.985
6.4000,4.020
6.4400,3.906
6.4800,3.849
6.5200,3.931
6.5600,3.939
6.6000,3.914
6.6400,3.985
6.6800,4.080
6.7200,3.958
6.7600,4.024
6.8000,3.924
6.8400,3.957
6.8800,3.813
6.9200,3.987
6.9600,3.987
7.0000,3.995
7.0400,3.971
7.0800,3.843
7.1200,4.029
7.1600,3.912
7.2000,3.835
7.2400,3.880
7.2800,3.917
7.3200,3.931
7.3600,3.854
7.4000,3.920
7.4400,3.861
7.4800,3.819
7.5200,3.821
7.5600,3.915
7.6000,3.926
7.6400,3.883
7.6800,3.835
7.7200,3.865
7.7600,3.855
7.8000,3.939
7.8400,3.844
7.8800,3.727
7.9200,3.827
7.9600,3.885
8.0000,3.669
8.0400,3.852
8.0800,3.846
8.1200,3.784
8.1600,3.723
8.2000,3.810
8.2400,3.788
8.2800,3.677
8.3200,3.703
8.3600,3.738
8.4000,3.719
8.4400,3.686
8.4800,3.697
8.5200,3.851
8.5600,3.731
8.6000,3.658
8.6400,3.743
8.6800,3.740
8.7200,3.769
8.7600,3.718
8.8000,3.765
8.8400,3.661
8.8800,3.656
8.9200,3.667
8.9600,3.724
9.0000,3.726
9.0400,3.660
9.0800,3.690
9.1200,3.762
9.1600,3.694
9.2000,3.682
9.2400,3.565
9.2800,3.776
9.3200,3.685
9.3600,3.720
9.4000,3.701
9.4400,3.747
9.4800,3.665
9.5200,3.513
9.5600,3.575
9.6000,3.583
9.6400,3.683
9.6800,3.672
9.7200,3.656
9.7600,3.763
9.8000,3.701
9.8400,3.633
9.8800,3.600
9.9200,3.553
9.9600,3.622
10.0000,3.577
10.0400,3.756
10.0800,3.693
10.1200,3.638
10.1600,3.568
10.2000,3.563
10.2400,3.657
10.2800,3.563
10.3200,3.626
10.3600,3.617
10.4000,3.512
10.4400,3.491
10.4800,3.513
10.5200,3.602
10.5600,3.515
10.6000,3.520
10.6400,3.627
10.6800,3.523
10.7200,3.533
10.7600,3.560
10.8000,3.532
10.8400,3.615
10.8800,3.549
10.9200,3.533
10.9600,3.320
11.0000,3.589
11.0400,3.559
11.0800,3.537
11.1200,3.545
11.1600,3.439
11.2000,3.515
11.2400,3.571
11.2800,3.435
11.3200,3.475
11.3600,3.432
11.4000,3.428
11.4400,3.552
11.4800,3.528
11.5200,3.488
11.5600,3.480
11.6000,3.378
11.6400,3.387
11.6800,3.356
11.7200,3.350
11.7600,3.481
11.8000,3.473
11.8400,3.405
11.8800,3.358
11.9200,3.481
11.9600,3.389
12.0000,3.408
12.0400,3.557
12.0800,3.412
12.1200,3.410
12.1600,3.444
12.2000,3.456
12.2400,3.364
12.2800,3.340
12.3200,3.316
12.3600,3.462
12.4000,3.391
12.4400,3.343
12.4800,3.352
12.5200,3.339
12.5600,3.314
12.6000,3.348
12.6400,3.362
12.6800,3.307
12.7200,3.220
12.7600,3.319
12.8000,3.400
12.8400,3.376
12.8800,3.379
12.9200,3.411
12.9600,3.413
13.0000,3.303
13.0400,3.337
13.0800,3.292
13.1200,3.307
13.1600,3.299
13.2000,3.359
13.2400,3.341
13.2800,3.334
13.3200,3.336
13.3600,3.263
13.4000,3.399
13.4400,3.308
13.4800,3.297
13.5200,3.191
13.5600,3.320
13.6000,3.296
13.6400,3.280
13.6800,3.308
13.7200,3.262
13.7600,3.260
13.8000,3.306
13.8400,3.313
13.8800,3.153
13.9200,3.215
13.9600,3.162
14.0000,3.340
14.0400,3.243
14.0800,3.301
14.1200,3.227
14.1600,3.242
14.2000,3.210
14.2400,3.217
14.2800,3.289
14.3200,3.281
14.3600,3.277
14.4000,3.229
14.4400,3.261
14.4800,3.265
14.5200,3.105
14.5600,3.204
14.6000,3.236
14.6400,3.111
14.6800,3.253
14.7200,3.254
14.7600,3.174
14.8000,3.160
14.8400,3.087
14.8800,3.116
14.9200,3.129
14.9600,3.293
15.0000,2.979
15.0400,3.151
15.0800,3.072
15.1200,3.193
15.1600,3.133
15.2000,3.096
15.2400,3.172
15.2800,3.124
15.3200,3.215
15.3600,3.155
15.4000,3.114
15.4400,3.131
15.4800,3.092
15.5200,3.111
15.5600,3.155
15.6000,3.011
15.6400,3.097
15.6800,3.126
15.7200,3.031
15.7600,3.082
15.8000,3.163
15.8400,3.152
15.8800,3.104
15.9200,3.067
15.9600,3.052
16.0000,3.075
16.0400,2.980
16.0800,2.915
16.1200,3.050
16.1600,3.033
16.2000,3.154
16.2400,3.054
16.2800,2.980
16.3200,2.896
16.3600,2.972
16.4000,3.128
16.4400,2.955
16.4800,2.923
16.5200,3.032
16.5600,3.050
16.6000,3.071
16.6400,3.044
16.6800,3.055
16.7200,2.920
16.7600,3.013
16.8000,2.924
16.8400,3.015
16.8800,3.047
16.9200,2.969
16.9600,2.982
17.0000,3.003
17.0400,2.890
17.0800,3.037
17.1200,2.931
17.1600,2.906
17.2000,2.903
17.2400,3.052
17.2800,2.869
17.3200,2.876
17.3600,2.928
17.4000,2.880
17.4400,2.961
17.4800,2.880
17.5200,2.938
17.5600,2.886
17.6000,2.839
17.6400,2.880
17.6800,2.958
17.7200,2.905
17.7600,2.813
17.8000,2.908
17.8400,2.769
17.8800,2.865
17.9200,2.910
17.9600,2.860
18.0000,2.816
18.0400,2.756
18.0800,2.902
18.1200,2.836
18.1600,2.865
18.2000,2.777
18.2400,2.794
18.2800,2.835
18.3200,2.867
18.3600,2.741
18.4000,2.778
18.4400,2.791
18.4800,2.814
18.5200,2.862
18.5600,2.813
18.6000,2.903
18.6400,2.836
18.6800,2.778
18.7200,2.742
18.7600,2.851
18.8000,2.735
18.8400,2.822
18.8800,2.917
18.9200,2.808
18.9600,2.790
19.0000,2.831
19.0400,2.730
19.0800,2.830
19.1200,2.805
19.1600,2.718
19.2000,2.749
19.2400,2.786
19.2800,2.804
19.3200,2.747
19.3600,2.797
19.4000,2.913
19.4400,2.765
19.4800,2.735
19.5200,2.725
19.5600,2.768
19.6000,2.791
19.6400,2.822
19.6800,2.734
19.7200,2.652
19.7600,2.727
19.8000,2.703
19.8400,2.817
19.8800,2.690
19.9200,2.664
19.9600,2.708
20.0000,2.653
20.0400,2.696
20.0800,2.693
20.1200,2.641
20.1600,2.678
20.2000,2.710
20.2400,2.736
20.2800,2.610
20.3200,2.726
20.3600,2.771
20.4000,2.610
20.4400,2.609
20.4800,2.663
20.5200,2.618
20.5600,2.618
20.6000,2.660
20.6400,2.723
20.6800,2.690
20.7200,2.672
20.7600,2.620
20.8000,2.677
20.8400,2.608
20.8800,2.567
20.9200,2.568
20.9600,2.630
21.0000,2.659
21.0400,2.639
21.0800,2.626
21.1200,2.670
21.1600,2.633
21.2000,2.610
21.2400,2.535
21.2800,2.599
21.3200,2.598
21.3600,2.544
21.4000,2.542
21.4400,2.609
21.4800,2.595
21.5200,2.463
21.5600,2.556
21.6000,2.519
21.6400,2.494
21.6800,2.636
21.7200,2.594
21.7600,2.662
21.8000,2.684
21.8400,2.569
21.8800,2.574
21.9200,2.524
21.9600,2.620
22.0000,2.561
22.0400,2.578
22.0800,2.524
22.1200,2.543
22.1600,2.589
22.2000,2.551
22.2400,2.557
22.2800,2.483
22.3200,2.606
22.3600,2.565
22.4000,2.527
22.4400,2.532
22.4800,2.432
22.5200,2.564
22.5600,2.563
22.6000,2.510
22.6400,2.499
22.6800,2.519
22.7200,2.545
22.7600,2.598
22.8000,2.618
22.8400,2.716
22.8800,2.681
22.9200,2.602
22.9600,2.648
23.0000,2.729
23.0400,2.619
23.0800,2.629
23.1200,2.542
23.1600,2.474
23.2000,2.452
23.2400,2.518
23.2800,2.499
23.3200,2.530
23.3600,2.419
23.4000,2.452
23.4400,2.334
23.4800,2.348
23.5200,2.418
23.5600,2.469
23.6000,2.445
23.6400,2.368
23.6800,2.480
23.7200,2.441
23.7600,2.405
23.8000,2.426
23.8400,2.417
23.8800,2.302
23.9200,2.297
23.9600,2.232
24.0000,2.300
24.0400,2.325
24.0800,2.411
24.1200,2.496
24.1600,2.331
24.2000,2.438
24.2400,2.357
24.2800,2.298
24.3200,2.391
24.3600,2.327
24.4000,2.307
24.4400,2.291
24.4800,2.329
24.5200,2.309
24.5600,2.249
24.6000,2.239
24.6400,2.262
24.6800,2.244
24.7200,2.264
24.7600,2.281
24.8000,2.383
24.8400,2.321
24.8800,2.215
24.9200,2.293
24.9600,2.298
25.0000,2.315
25.0400,2.257
25.0800,2.192
25.1200,2.231
25.1600,2.311
25.2000,2.234
25.2400,2.259
25.2800,2.284
25.3200,2.228
25.3600,2.291
25.4000,2.143
25.4400,2.284
25.4800,2.218
25.5200,2.321
25.5600,2.195
25.6000,2.229
25.6400,2.140
25.6800,2.171
25.7200,2.255
25.7600,2.143
25.8000,2.164
25.8400,2.255
25.8800,2.225
25.9200,2.229
25.9600,2.250
26.0000,2.211
26.0400,2.247
26.0800,2.229
26.1200,2.261
26.1600,2.240
26.2000,2.283
26.2400,2.132
26.2800,2.202
26.3200,2.232
26.3600,2.156
26.4000,2.150
26.4400,2.146
26.4800,2.218
26.5200,2.184
26.5600,2.089
26.6000,2.092
26.6400,2.239
26.6800,2.251
26.7200,2.144
26.7600,2.216
26.8000,2.210
26.8400,2.174
26.8800,2.088
26.9200,2.108
26.9600,2.114
27.0000,2.146
27.0400,2.176
27.0800,2.119
27.1200,2.265
27.1600,2.245
27.2000,2.155
27.2400,2.221
27.2800,2.137
27.3200,2.187
27.3600,2.237
27.4000,2.215
27.4400,2.236
27.4800,2.180
27.5200,2.222
27.5600,2.264
27.6000,2.233
27.6400,2.298
27.6800,2.371
27.7200,2.346
27.7600,2.390
27.8000,2.329
27.8400,2.260
27.8800,2.443
27.9200,2.333
27.9600,2.360
28.0000,2.414
28.0400,2.511
28.0800,2.518
28.1200,2.445
28.1600,2.569
28.2000,2.576
28.2400,2.613
28.2800,2.713
28.3200,2.636
28.3600,2.742
28.4000,2.725
28.4400,2.771
28.4800,2.657
28.5200,2.657
28.5600,2.768
28.6000,2.626
28.6400,2.638
28.6800,2.578
28.7200,2.512
28.7600,2.443
28.8000,2.321
28.8400,2.399
28.8800,2.224
28.9200,2.287
28.9600,2.241
29.0000,2.198
29.0400,2.094
29.0800,2.211
29.1200,2.102
29.1600,2.105
29.2000,2.108
29.2400,2.042
29.2800,2.003
29.3200,2.044
29.3600,2.038
29.4000,1.934
29.4400,1.971
29.4800,2.027
29.5200,2.006
29.5600,1.980
29.6000,2.021
29.6400,1.938
29.6800,1.946
29.7200,1.918
29.7600,1.978
29.8000,1.943
29.8400,1.882
29.8800,1.992
29.9200,1.944
29.9600,1.866
30.0000,1.880
30.0400,1.878
30.0800,1.959
30.1200,1.900
30.1600,1.871
30.2000,2.001
30.2400,1.945
30.2800,1.941
30.3200,1.898
30.3600,1.970
30.4000,1.932
30.4400,1.812
30.4800,1.888
30.5200,1.853
30.5600,1.907
30.6000,1.947
30.6400,1.880
30.6800,1.882
30.7200,1.858
30.7600,1.894
30.8000,1.847
30.8400,1.915
30.8800,1.950
30.9200,1.821
30.9600,1.865
31.0000,1.877
31.0400,1.839
31.0800,1.941
31.1200,1.746
31.1600,1.897
31.2000,1.870
31.2400,1.794
31.2800,1.884
31.3200,1.905
31.3600,1.841
31.4000,1.834
31.4400,1.857
31.4800,1.989
31.5200,1.847
31.5600,2.027
31.6000,2.037
31.6400,2.010
31.6800,2.111
31.7200,2.129
31.7600,2.000
31.8000,2.061
31.8400,1.968
31.8800,1.954
31.9200,1.980
31.9600,1.903
32.0000,1.938
32.0400,1.902
32.0800,1.749
32.1200,1.892
32.1600,1.912
32.2000,1.932
32.2400,1.867
32.2800,1.885
32.3200,1.851
32.3600,1.772
32.4000,1.854
32.4400,1.819
32.4800,1.871
32.5200,1.784
32.5600,1.773
32.6000,1.743
32.6400,1.852
32.6800,1.735
32.7200,1.781
32.7600,1.825
32.8000,1.807
32.8400,1.749
32.8800,1.686
32.9200,1.687
32.9600,1.774
33.0000,1.705
33.0400,1.822
33.0800,1.731
33.1200,1.797
33.1600,1.750
33.2000,1.738
33.2400,1.710
33.2800,1.738
33.3200,1.756
33.3600,1.682
33.4000,1.730
33.4400,1.738
33.4800,1.629
33.5200,1.743
33.5600,1.674
33.6000,1.721
33.6400,1.735
33.6800,1.805
33.7200,1.711
33.7600,1.703
33.8000,1.678
33.8400,1.667
33.8800,1.769
33.9200,1.789
33.9600,1.783
34.0000,1.781
34.0400,1.685
34.0800,1.724
34.1200,1.758
34.1600,1.741
34.2000,1.693
34.2400,1.697
34.2800,1.803
34.3200,1.777
34.3600,1.759
34.4000,1.718
34.4400,1.765
34.4800,1.797
34.5200,1.759
34.5600,1.770
34.6000,1.740
34.6400,1.715
34.6800,1.732
34.7200,1.690
34.7600,1.744
34.8000,1.703
34.8400,1.703
34.8800,1.696
34.9200,1.738
34.9600,1.732
35.0000,1.694
35.0400,1.723
35.0800,1.709
35.1200,1.709
35.1600,1.780
35.2000,1.701
35.2400,1.721
35.2800,1.700
35.3200,1.704
35.3600,1.680
35.4000,1.726
35.4400,1.849
35.4800,1.728
35.5200,1.731
35.5600,1.760
35.6000,1.808
35.6400,1.816
35.6800,1.766
35.7200,1.780
35.7600,1.800
35.8000,1.687
35.8400,1.778
35.8800,1.694
35.9200,1.710
35.9600,1.770
36.0000,1.786
36.0400,1.791
36.0800,1.786
36.1200,1.712
36.1600,1.805
36.2000,1.952
36.2400,1.828
36.2800,1.736
36.3200,1.800
36.3600,1.835
36.4000,1.789
36.4400,1.751
36.4800,1.871
36.5200,1.800
36.5600,1.728
36.6000,1.826
36.6400,1.791
36.6800,1.806
36.7200,1.810
36.7600,1.873
36.8000,1.780
36.8400,1.756
36.8800,1.921
36.9200,1.770
36.9600,1.820
37.0000,1.735
37.0400,1.769
37.0800,1.747
37.1200,1.747
37.1600,1.684
37.2000,1.754
37.2400,1.729
37.2800,1.761
37.3200,1.733
37.3600,1.696
37.4000,1.706
37.4400,1.717
37.4800,1.655
37.5200,1.728
37.5600,1.738
37.6000,1.811
37.6400,1.790
37.6800,1.807
37.7200,1.860
37.7600,1.743
37.8000,1.863
37.8400,1.833
37.8800,1.909
37.9200,1.942
37.9600,1.961
38.0000,2.047
38.0400,1.987
38.0800,2.124
38.1200,2.188
38.1600,2.251
38.2000,2.456
38.2400,2.648
38.2800,2.986
38.3200,3.247
38.3600,3.206
38.4000,3.410
38.4400,3.680
38.4800,3.777
38.5200,3.889
38.5600,4.006
38.6000,4.504
38.6400,5.238
38.6800,5.755
38.7200,6.804
38.7600,7.373
38.8000,7.872
38.8400,7.743
38.8800,7.284
38.9200,6.134
38.9600,5.317
39.0000,4.581
39.0400,3.870
39.0800,3.356
39.1200,3.124
39.1600,2.903
39.2000,2.719
39.2400,2.659
39.2800,2.476
39.3200,2.336
39.3600,2.351
39.4000,2.332
39.4400,2.349
39.4800,2.260
39.5200,2.339
39.5600,2.380
39.6000,2.357
39.6400,2.275
39.6800,2.404
39.7200,2.496
39.7600,2.624
39.8000,2.758
39.8400,2.825
39.8800,3.008
39.9200,3.226
39.9600,3.410
40.0000,3.633
40.0400,3.913
40.0800,4.272
40.1200,4.694
40.1600,4.956
40.2000,5.398
40.2400,5.738
40.2800,6.163
40.3200,6.393
40.3600,6.499
40.4000,6.547
40.4400,6.342
40.4800,6.084
40.5200,5.785
40.5600,5.382
40.6000,4.855
40.6400,4.519
40.6800,4.037
40.7200,3.660
40.7600,3.345
40.8000,2.972
40.8400,2.749
40.8800,2.525
40.9200,2.399
40.9600,2.267
41.0000,2.168
41.0400,2.057
41.0800,1.953
41.1200,1.991
41.1600,1.884
41.2000,1.738
41.2400,1.770
41.2800,1.718
41.3200,1.687
41.3600,1.721
41.4000,1.719
41.4400,1.563
41.4800,1.661
41.5200,1.644
41.5600,1.568
41.6000,1.551
41.6400,1.507
41.6800,1.588
41.7200,1.514
41.7600,1.476
41.8000,1.415
41.8400,1.446
41.8800,1.512
41.9200,1.414
41.9600,1.430
42.0000,1.359
42.0400,1.417
42.0800,1.363
42.1200,1.359
42.1600,1.423
42.2000,1.391
42.2400,1.413
42.2800,1.361
42.3200,1.327
42.3600,1.300
42.4000,1.369
42.4400,1.342
42.4800,1.301
42.5200,1.344
42.5600,1.359
42.6000,1.319
42.6400,1.305
42.6800,1.260
42.7200,1.311
42.7600,1.340
42.8000,1.294
42.8400,1.319
42.8800,1.234
42.9200,1.275
42.9600,1.281
43.0000,1.279
43.0400,1.176
43.0800,1.243
43.1200,1.278
43.1600,1.196
43.2000,1.341
43.2400,1.233
43.2800,1.259
43.3200,1.249
43.3600,1.247
43.4000,1.281
43.4400,1.230
43.4800,1.285
43.5200,1.267
43.5600,1.225
43.6000,1.283
43.6400,1.255
43.6800,1.241
43.7200,1.266
43.7600,1.250
43.8000,1.290
43.8400,1.269
43.8800,1.286
43.9200,1.294
43.9600,1.215
44.0000,1.288
44.0400,1.314
44.0800,1.322
44.1200,1.356
44.1600,1.325
44.2000,1.395
44.2400,1.372
44.2800,1.444
44.3200,1.461
44.3600,1.491
44.4000,1.564
44.4400,1.581
44.4800,1.513
44.5200,1.546
44.5600,1.589
44.6000,1.634
44.6400,1.578
44.6800,1.544
44.7200,1.588
44.7600,1.550
44.8000,1.568
44.8400,1.555
44.8800,1.501
44.9200,1.545
44.9600,1.554
45.0000,1.582
45.0400,1.658
45.0800,1.609
45.1200,1.797
45.1600,1.790
45.2000,1.902
45.2400,1.989
45.2800,2.103
45.3200,2.211
45.3600,2.320
45.4000,2.400
45.4400,2.407
45.4800,2.342
45.5200,2.290
45.5600,2.115
45.6000,2.030
45.6400,1.925
45.6800,1.738
45.7200,1.750
45.7600,1.645
45.8000,1.411
45.8400,1.370
45.8800,1.311
45.9200,1.364
45.9600,1.255
46.0000,1.228
46.0400,1.255
46.0800,1.188
46.1200,1.223
46.1600,1.258
46.2000,1.220
46.2400,1.104
46.2800,1.097
46.3200,1.077
46.3600,1.084
46.4000,1.108
46.4400,1.046
46.4800,1.130
46.5200,1.054
46.5600,1.027
46.6000,1.008
46.6400,1.012
46.6800,1.078
46.7200,1.048
46.7600,1.054
46.8000,1.012
46.8400,1.038
46.8800,1.028
46.9200,0.989
46.9600,1.025
47.0000,1.026
47.0400,1.013
47.0800,1.125
47.1200,1.056
47.1600,1.018
47.2000,1.000
47.2400,1.022
47.2800,0.942
47.3200,1.030
47.3600,0.952
47.4000,0.953
47.4400,0.975
47.4800,1.013
47.5200,0.998
47.5600,0.997
47.6000,0.981
47.6400,1.038
47.6800,1.018
47.7200,1.012
47.7600,1.013
47.8000,0.996
47.8400,0.974
47.8800,0.955
47.9200,0.983
47.9600,0.976
48.0000,0.973
48.0400,1.017
48.0800,0.981
48.1200,1.022
48.1600,0.960
48.2000,0.938
48.2400,0.930
48.2800,0.960
48.3200,0.898
48.3600,0.930
48.4000,0.940
48.4400,0.953
48.4800,0.872
48.5200,0.901
48.5600,0.983
48.6000,0.969
48.6400,0.959
48.6800,0.984
48.7200,0.875
48.7600,0.933
48.8000,0.921
48.8400,0.961
48.8800,0.900
48.9200,0.917
48.9600,0.884
49.0000,0.877
49.0400,0.922
49.0800,0.864
49.1200,0.841
49.1600,0.949
49.2000,0.883
49.2400,0.859
49.2800,0.912
49.3200,0.933
49.3600,0.945
49.4000,0.920
49.4400,0.907
49.4800,0.963
49.5200,0.918
49.5600,0.999
49.6000,0.926
49.6400,1.004
49.6800,0.996
49.7200,1.005
49.7600,1.071
49.8000,1.121
49.8400,1.138
49.8800,1.178
49.9200,1.166
49.9600,1.108
50.0000,1.091
50.0400,1.040
50.0800,1.034
50.1200,0.996
50.1600,0.960
50.2000,0.944
50.2400,0.913
50.2800,0.963
50.3200,0.917
50.3600,0.939
50.4000,0.919
50.4400,0.825
50.4800,0.869
50.5200,0.860
50.5600,0.828
50.6000,0.902
50.6400,0.892
50.6800,0.821
50.7200,0.895
50.7600,0.917
50.8000,0.875
50.8400,0.907
50.8800,0.874
50.9200,0.760
50.9600,0.893
51.0000,0.883
51.0400,0.902
51.0800,0.884
51.1200,0.862
51.1600,0.913
51.2000,0.941
51.2400,0.866
51.2800,0.871
51.3200,0.858
51.3600,0.938
51.4000,0.845
51.4400,0.904
51.4800,0.937
51.5200,0.900
51.5600,0.920
51.6000,0.874
51.6400,0.880
51.6800,0.792
51.7200,0.813
51.7600,0.858
51.8000,0.770
51.8400,0.843
51.8800,0.854
51.9200,0.731
51.9600,0.804
52.0000,0.825
52.0400,0.748
52.0800,0.795
52.1200,0.828
52.1600,0.821
52.2000,0.812
52.2400,0.831
52.2800,0.819
52.3200,0.807
52.3600,0.750
52.4000,0.793
52.4400,0.817
52.4800,0.787
52.5200,0.754
52.5600,0.758
52.6000,0.750
52.6400,0.772
52.6800,0.809
52.7200,0.765
52.7600,0.767
52.8000,0.739
52.8400,0.732
52.8800,0.778
52.9200,0.755
52.9600,0.766
53.0000,0.770
53.0400,0.766
53.0800,0.796
53.1200,0.827
53.1600,0.828
53.2000,0.751
53.2400,0.727
53.2800,0.765
53.3200,0.806
53.3600,0.840
53.4000,0.755
53.4400,0.744
53.4800,0.756
53.5200,0.743
53.5600,0.758
53.6000,0.722
53.6400,0.759
53.6800,0.753
53.7200,0.782
53.7600,0.761
53.8000,0.781
53.8400,0.776
53.8800,0.758
53.9200,0.796
53.9600,0.765
54.0000,0.788
54.0400,0.790
54.0800,0.763
54.1200,0.799
54.1600,0.804
54.2000,0.758
54.2400,0.730
54.2800,0.744
54.3200,0.800
54.3600,0.735
54.4000,0.773
54.4400,0.752
54.4800,0.747
54.5200,0.759
54.5600,0.746
54.6000,0.706
54.6400,0.749
54.6800,0.754
54.7200,0.692
54.7600,0.734
54.8000,0.731
54.8400,0.733
54.8800,0.692
54.9200,0.751
54.9600,0.730
55.0000,0.699
55.0400,0.723
55.0800,0.720
55.1200,0.715
55.1600,0.735
55.2000,0.729
55.2400,0.729
55.2800,0.710
55.3200,0.719
55.3600,0.784
55.4000,0.726
55.4400,0.688
55.4800,0.730
55.5200,0.722
55.5600,0.727
55.6000,0.703
55.6400,0.718
55.6800,0.745
55.7200,0.740
55.7600,0.746
55.8000,0.747
55.8400,0.762
55.8800,0.759
55.9200,0.749
55.9600,0.743
56.0000,0.727
56.0400,0.744
56.0800,0.752
56.1200,0.741
56.1600,0.738
56.2000,0.752
56.2400,0.702
56.2800,0.732
56.3200,0.710
56.3600,0.715
56.4000,0.744
56.4400,0.757
56.4800,0.727
56.5200,0.761
56.5600,0.751
56.6000,0.700
56.6400,0.799
56.6800,0.707
56.7200,0.779
56.7600,0.750
56.8000,0.776
56.8400,0.765
56.8800,0.762
56.9200,0.735
56.9600,0.743
57.0000,0.762
57.0400,0.764
57.0800,0.691
57.1200,0.733
57.1600,0.728
57.2000,0.783
57.2400,0.746
57.2800,0.756
57.3200,0.801
57.3600,0.752
57.4000,0.689
57.4400,0.731
57.4800,0.710
57.5200,0.809
57.5600,0.772
57.6000,0.773
57.6400,0.755
57.6800,0.786
57.7200,0.737
57.7600,0.756
57.8000,0.716
57.8400,0.715
57.8800,0.691
57.9200,0.757
57.9600,0.757
58.0000,0.775
58.0400,0.825
58.0800,0.813
58.1200,0.775
58.1600,0.782
58.2000,0.826
58.2400,0.841
58.2800,0.791
58.3200,0.783
58.3600,0.776
58.4000,0.843
58.4400,0.796
58.4800,0.861
58.5200,0.793
58.5600,0.872
58.6000,0.833
58.6400,0.852
58.6800,0.888
58.7200,0.851
58.7600,0.819
58.8000,0.788
58.8400,0.864
58.8800,0.851
58.9200,0.919
58.9600,0.853
59.0000,0.879
59.0400,0.827
59.0800,0.822
59.1200,0.860
59.1600,0.831
59.2000,0.823
59.2400,0.779
59.2800,0.790
59.3200,0.806
59.3600,0.784
59.4000,0.753
59.4400,0.731
59.4800,0.792
59.5200,0.754
59.5600,0.744
59.6000,0.757
59.6400,0.735
59.6800,0.715
59.7200,0.726
59.7600,0.699
59.8000,0.728
59.8400,0.714
59.8800,0.667
59.9200,0.735
59.9600,0.663
60.0000,0.687
60.0400,0.673
60.0800,0.688
60.1200,0.587
60.1600,0.667
60.2000,0.664
60.2400,0.673
60.2800,0.657
60.3200,0.646
60.3600,0.657
60.4000,0.685
60.4400,0.623
60.4800,0.633
60.5200,0.666
60.5600,0.651
60.6000,0.635
60.6400,0.664
60.6800,0.622
60.7200,0.598
60.7600,0.601
60.8000,0.650
60.8400,0.696
60.8800,0.600
60.9200,0.589
60.9600,0.665
61.0000,0.595
61.0400,0.655
61.0800,0.628
61.1200,0.627
61.1600,0.598
61.2000,0.620
61.2400,0.591
61.2800,0.617
61.3200,0.593
61.3600,0.586
61.4000,0.636
61.4400,0.586
61.4800,0.649
61.5200,0.630
61.5600,0.624
61.6000,0.617
61.6400,0.589
61.6800,0.663
61.7200,0.715
61.7600,0.757
61.8000,0.655
61.8400,0.641
61.8800,0.609
61.9200,0.623
61.9600,0.586
62.0000,0.638
62.0400,0.586
62.0800,0.633
62.1200,0.651
62.1600,0.655
62.2000,0.553
62.2400,0.615
62.2800,0.620
62.3200,0.619
62.3600,0.632
62.4000,0.647
62.4400,0.599
62.4800,0.625
62.5200,0.633
62.5600,0.621
62.6000,0.613
62.6400,0.585
62.6800,0.592
62.7200,0.649
62.7600,0.635
62.8000,0.622
62.8400,0.639
62.8800,0.640
62.9200,0.604
62.9600,0.644
63.0000,0.616
63.0400,0.619
63.0800,0.598
63.1200,0.609
63.1600,0.624
63.2000,0.604
63.2400,0.641
63.2800,0.601
63.3200,0.595
63.3600,0.637
63.4000,0.657
63.4400,0.626
63.4800,0.598
63.5200,0.621
63.5600,0.619
63.6000,0.612
63.6400,0.639
63.6800,0.641
63.7200,0.634
63.7600,0.662
63.8000,0.637
63.8400,0.623
63.8800,0.639
63.9200,0.648
63.9600,0.640
64.0000,0.639
64.0400,0.634
64.0800,0.658
64.1200,0.619
64.1600,0.633
64.2000,0.684
64.2400,0.659
64.2800,0.659
64.3200,0.659
64.3600,0.638
64.4000,0.668
64.4400,0.644
64.4800,0.663
64.5200,0.727
64.5600,0.668
64.6000,0.714
64.6400,0.737
64.6800,0.720
64.7200,0.734
64.7600,0.779
64.8000,0.748
64.8400,0.741
64.8800,0.761
64.9200,0.804
64.9600,0.795
65.0000,0.881
65.0400,0.872
65.0800,0.899
65.1200,0.963
65.1600,1.011
65.2000,1.064
65.2400,1.068
65.2800,1.089
65.3200,1.169
65.3600,1.306
65.4000,1.244
65.4400,1.257
65.4800,1.318
65.5200,1.352
65.5600,1.326
65.6000,1.269
65.6400,1.208
65.6800,1.223
65.7200,1.204
65.7600,1.169
65.8000,1.236
65.8400,1.225
65.8800,1.298
65.9200,1.250
65.9600,1.224
66.0000,1.351
66.0400,1.405
66.0800,1.413
66.1200,1.460
66.1600,1.334
66.2000,1.349
66.2400,1.307
66.2800,1.268
66.3200,1.206
66.3600,1.196
66.4000,1.133
66.4400,1.123
66.4800,1.074
66.5200,1.066
66.5600,1.023
66.6000,1.050
66.6400,1.051
66.6800,1.012
66.7200,0.956
66.7600,1.043
66.8000,1.036
66.8400,1.079
66.8800,1.043
66.9200,1.015
66.9600,0.979
67.0000,1.073
67.0400,1.050
67.0800,1.053
67.1200,1.081
67.1600,1.160
67.2000,1.098
67.2400,1.079
67.2800,1.106
67.3200,1.145
67.3600,1.074
67.4000,1.195
67.4400,1.167
67.4800,1.194
67.5200,1.245
67.5600,1.216
67.6000,1.235
67.6400,1.340
67.6800,1.300
67.7200,1.370
67.7600,1.308
67.8000,1.317
67.8400,1.416
67.8800,1.362
67.9200,1.478
67.9600,1.483
68.0000,1.494
68.0400,1.501
68.0800,1.549
68.1200,1.665
68.1600,1.586
68.2000,1.686
68.2400,1.725
68.2800,1.732
68.3200,1.829
68.3600,1.853
68.4000,1.934
68.4400,2.057
68.4800,2.116
68.5200,2.196
68.5600,2.301
68.6000,2.415
68.6400,2.502
68.6800,2.729
68.7200,2.990
68.7600,3.426
68.8000,4.415
68.8400,5.742
68.8800,6.633
68.9200,6.775
68.9600,7.207
69.0000,8.362
69.0400,11.513
69.0800,18.665
69.1200,41.667
69.1600,184.634
69.2000,438.520
69.2400,332.351
69.2800,94.812
69.3200,46.943
69.3600,115.699
69.4000,229.034
69.4400,163.849
69.4800,47.303
69.5200,16.822
69.5600,10.021
69.6000,7.451
69.6400,5.980
69.6800,5.077
69.7200,4.286
69.7600,3.953
69.8000,3.505
69.8400,3.143
69.8800,2.944
69.9200,2.751
69.9600,2.660
70.0000,2.580
70.0400,2.380
70.0800,2.362
70.1200,2.175
70.1600,2.167
70.2000,2.062
70.2400,1.924
70.2800,1.928
70.3200,1.943
70.3600,1.828
70.4000,1.810
70.4400,1.769
70.4800,1.613
70.5200,1.606
70.5600,1.511
70.6000,1.449
70.6400,1.474
70.6800,1.468
70.7200,1.381
70.7600,1.336
70.8000,1.337
70.8400,1.310
70.8800,1.285
70.9200,1.197
70.9600,1.235
71.0000,1.188
71.0400,1.165
71.0800,1.042
71.1200,1.109
71.1600,1.092
71.2000,1.109
71.2400,1.077
71.2800,1.060
71.3200,0.968
71.3600,0.972
71.4000,1.015
71.4400,0.960
71.4800,0.980
71.5200,0.859
71.5600,0.881
71.6000,0.845
71.6400,0.988
71.6800,0.956
71.7200,0.829
71.7600,0.834
71.8000,0.826
71.8400,0.826
71.8800,0.882
71.9200,0.851
71.9600,0.842
72.0000,0.813
72.0400,0.792
72.0800,0.818
72.1200,0.756
72.1600,0.761
72.2000,0.798
72.2400,0.712
72.2800,0.728
72.3200,0.785
72.3600,0.747
72.4000,0.757
72.4400,0.695
72.4800,0.759
72.5200,0.772
72.5600,0.743
72.6000,0.748
72.6400,0.757
72.6800,0.762
72.7200,0.773
72.7600,0.750
72.8000,0.701
72.8400,0.787
72.8800,0.780
72.9200,0.780
72.9600,0.766
73.0000,0.803
73.0400,0.807
73.0800,0.742
73.1200,0.736
73.1600,0.820
73.2000,0.788
73.2400,0.779
73.2800,0.775
73.3200,0.747
73.3600,0.777
73.4000,0.699
73.4400,0.708
73.4800,0.746
73.5200,0.735
73.5600,0.743
73.6000,0.699
73.6400,0.738
73.6800,0.679
73.7200,0.737
73.7600,0.646
73.8000,0.664
73.8400,0.678
73.8800,0.670
73.9200,0.665
73.9600,0.664
74.0000,0.650
74.0400,0.587
74.0800,0.553
74.1200,0.573
74.1600,0.549
74.2000,0.620
74.2400,0.583
74.2800,0.530
74.3200,0.533
74.3600,0.583
74.4000,0.556
74.4400,0.603
74.4800,0.579
74.5200,0.609
74.5600,0.543
74.6000,0.505
74.6400,0.506
74.6800,0.527
74.7200,0.526
74.7600,0.503
74.8000,0.538
74.8400,0.530
74.8800,0.507
74.9200,0.503
74.9600,0.525
75.0000,0.453
75.0400,0.441
75.0800,0.508
75.1200,0.488
75.1600,0.514
75.2000,0.510
75.2400,0.497
75.2800,0.458
75.3200,0.490
75.3600,0.457
75.4000,0.500
75.4400,0.436
75.4800,0.466
75.5200,0.442
75.5600,0.477
75.6000,0.490
75.6400,0.469
75.6800,0.479
75.7200,0.444
75.7600,0.461
75.8000,0.436
75.8400,0.447
75.8800,0.422
75.9200,0.435
75.9600,0.457
76.0000,0.474
76.0400,0.468
76.0800,0.430
76.1200,0.453
76.1600,0.410
76.2000,0.481
76.2400,0.454
76.2800,0.450
76.3200,0.471
76.3600,0.469
76.4000,0.464
76.4400,0.409
76.4800,0.423
76.5200,0.426
76.5600,0.415
76.6000,0.445
76.6400,0.426
76.6800,0.422
76.7200,0.425
76.7600,0.402
76.8000,0.431
76.8400,0.464
76.8800,0.431
76.9200,0.420
76.9600,0.420
77.0000,0.452
77.0400,0.446
77.0800,0.455
77.1200,0.435
77.1600,0.458
77.2000,0.448
77.2400,0.456
77.2800,0.454
77.3200,0.475
77.3600,0.456
77.4000,0.457
77.4400,0.487
77.4800,0.470
77.5200,0.468
77.5600,0.457
77.6000,0.444
77.6400,0.503
77.6800,0.513
77.7200,0.507
77.7600,0.557
77.8000,0.530
77.8400,0.551
77.8800,0.582
77.9200,0.581
77.9600,0.595
78.0000,0.603
78.0400,0.596
78.0800,0.609
78.1200,0.620
78.1600,0.579
78.2000,0.603
78.2400,0.674
78.2800,0.673
78.3200,0.584
78.3600,0.630
78.4000,0.566
78.4400,0.606
78.4800,0.615
78.5200,0.604
78.5600,0.623
78.6000,0.562
78.6400,0.566
78.6800,0.562
78.7200,0.583
78.7600,0.565
78.8000,0.625
78.8400,0.589
78.8800,0.650
78.9200,0.640
78.9600,0.634
79.0000,0.746
79.0400,0.738
79.0800,0.769
79.1200,0.791
79.1600,0.870
79.2000,0.938
79.2400,0.962
79.2800,0.967
79.3200,1.010
79.3600,0.972
79.4000,1.014
79.4400,1.045
79.4800,0.993
79.5200,0.933
79.5600,0.905
79.6000,0.904
79.6400,0.755
79.6800,0.753
79.7200,0.688
79.7600,0.681
79.8000,0.685
79.8400,0.641
79.8800,0.562
79.9200,0.567
79.9600,0.539
80.0000,0.522
