theta,intensity
5.0000,15.311
5.0400,15.103
5.0800,14.912
5.1200,14.957
5.1600,14.621
5.2000,14.620
5.2400,14.652
5.2800,14.522
5.3200,14.251
5.3600,14.242
5.4000,14.053
5.4400,14.108
5.4800,14.126
5.5200,13.913
5.5600,13.862
5.6000,13.527
5.6400,13.429
5.6800,13.469
5.7200,13.026
5.7600,13.207
5.8000,12.852
5.8400,12.912
5.8800,12.849
5.9200,12.460
5.9600,12.449
6.0000,12.296
6.0400,11.965
6.0800,11.951
6.1200,11.703
6.1600,11.588
6.2000,11.625
6.2400,11.183
6.2800,11.153
6.3200,10.938
6.3600,10.933
6.4000,10.524
6.4400,10.579
6.4800,10.279
6.5200,10.231
6.5600,10.087
6.6000,9.839
6.6400,9.815
6.6800,9.707
6.7200,9.538
6.7600,9.277
6.8000,9.248
6.8400,8.991
6.8800,9.047
6.9200,8.987
6.9600,8.916
7.0000,8.735
7.0400,8.499
7.0800,8.430
7.1200,8.538
7.1600,8.266
7.2000,8.332
7.2400,8.101
7.2800,8.053
7.3200,7.999
7.3600,8.014
7.4000,7.711
7.4400,7.647
7.4800,7.573
7.5200,7.564
7.5600,7.590
7.6000,7.377
7.6400,7.422
7.6800,7.296
7.7200,7.223
7.7600,6.968
7.8000,7.091
7.8400,6.952
7.8800,6.804
7.9200,6.732
7.9600,6.750
8.0000,6.620
8.0400,6.547
8.0800,6.589
8.1200,6.427
8.1600,6.454
8.2000,6.405
8.2400,6.234
8.2800,6.249
8.3200,6.156
8.3600,6.061
8.4000,6.100
8.4400,5.926
8.4800,5.976
8.5200,5.901
8.5600,5.847
8.6000,5.877
8.6400,5.735
8.6800,5.797
8.7200,5.527
8.7600,5.509
8.8000,5.575
8.8400,5.513
8.8800,5.469
8.9200,5.453
8.9600,5.533
9.0000,5.403
9.0400,5.224
9.0800,5.252
9.1200,5.246
9.1600,5.153
9.2000,5.036
9.2400,5.066
9.2800,5.066
9.3200,5.026
9.3600,5.046
9.4000,4.919
9.4400,4.910
9.4800,4.875
9.5200,4.734
9.5600,4.789
9.6000,4.745
9.6400,4.748
9.6800,4.710
9.7200,4.755
9.7600,4.625
9.8000,4.508
9.8400,4.543
9.8800,4.560
9.9200,4.620
9.9600,4.537
10.0000,4.457
10.0400,4.546
10.0800,4.377
10.1200,4.379
10.1600,4.472
10.2000,4.374
10.2400,4.275
10.2800,4.257
10.3200,4.354
10.3600,4.167
10.4000,4.201
10.4400,4.177
10.4800,4.161
10.5200,4.306
10.5600,4.090
10.6000,4.258
10.6400,4.138
10.6800,3.976
10.7200,4.015
10.7600,4.096
10.8000,4.023
10.8400,4.042
10.8800,4.051
10.9200,4.028
10.9600,3.900
11.0000,3.918
11.0400,3.901
11.0800,3.949
11.1200,3.892
11.1600,3.825
11.2000,3.840
11.2400,3.964
11.2800,3.904
11.3200,3.872
11.3600,3.762
11.4000,3.792
11.4400,3.856
11.4800,3.800
11.5200,3.895
11.5600,3.841
11.6000,3.816
11.6400,3.765
11.6800,3.735
11.7200,3.752
11.7600,3.712
11.8000,3.741
11.8400,3.613
11.8800,3.670
11.9200,3.612
11.9600,3.630
12.0000,3.545
12.0400,3.600
12.0800,3.670
12.1200,3.636
12.1600,3.575
12.2000,3.663
12.2400,3.606
12.2800,3.539
12.3200,3.580
12.3600,3.700
12.4000,3.501
12.4400,3.504
12.4800,3.512
12.5200,3.665
12.5600,3.544
12.6000,3.545
12.6400,3.490
12.6800,3.513
12.7200,3.660
12.7600,3.574
12.8000,3.583
12.8400,3.487
12.8800,3.569
12.9200,3.541
12.9600,3.505
13.0000,3.472
13.0400,3.519
13.0800,3.386
13.1200,3.422
13.1600,3.539
13.2000,3.478
13.2400,3.469
13.2800,3.389
13.3200,3.453
13.3600,3.510
13.4000,3.372
13.4400,3.463
13.4800,3.446
13.5200,3.431
13.5600,3.482
13.6000,3.437
13.6400,3.432
13.6800,3.409
13.7200,3.387
13.7600,3.276
13.8000,3.518
13.8400,3.355
13.8800,3.378
13.9200,3.328
13.9600,3.437
14.0000,3.345
14.0400,3.329
14.0800,3.456
14.1200,3.384
14.1600,3.343
14.2000,3.315
14.2400,3.301
14.2800,3.447
14.3200,3.401
14.3600,3.345
14.4000,3.237
14.4400,3.296
14.4800,3.370
14.5200,3.309
14.5600,3.337
14.6000,3.137
14.6400,3.288
14.6800,3.343
14.7200,3.206
14.7600,3.345
14.8000,3.273
14.8400,3.285
14.8800,3.351
14.9200,3.214
14.9600,3.294
15.0000,3.304
15.0400,3.282
15.0800,3.176
15.1200,3.194
15.1600,3.176
15.2000,3.235
15.2400,3.218
15.2800,3.213
15.3200,3.189
15.3600,3.306
15.4000,3.268
15.4400,3.146
15.4800,3.104
15.5200,3.182
15.5600,3.220
15.6000,3.181
15.6400,3.128
15.6800,3.139
15.7200,3.184
15.7600,3.308
15.8000,3.146
15.8400,3.152
15.8800,3.195
15.9200,3.242
15.9600,3.270
16.0000,3.129
16.0400,3.132
16.0800,3.146
16.1200,3.085
16.1600,3.059
16.2000,3.150
16.2400,3.121
16.2800,3.094
16.3200,3.182
16.3600,3.105
16.4000,3.107
16.4400,3.071
16.4800,3.026
16.5200,3.078
16.5600,3.094
16.6000,3.004
16.6400,3.086
16.6800,3.106
16.7200,3.115
16.7600,3.050
16.8000,3.020
16.8400,3.087
16.8800,3.000
16.9200,3.054
16.9600,3.118
17.0000,3.068
17.0400,2.966
17.0800,3.002
17.1200,3.079
17.1600,2.968
17.2000,3.049
17.2400,3.035
17.2800,3.008
17.3200,3.010
17.3600,3.112
17.4000,2.963
17.4400,3.062
17.4800,2.977
17.5200,3.094
17.5600,2.971
17.6000,3.030
17.6400,2.961
17.6800,3.023
17.7200,2.919
17.7600,3.036
17.8000,3.030
17.8400,2.924
17.8800,2.960
17.9200,2.962
17.9600,2.917
18.0000,3.001
18.0400,2.878
18.0800,2.947
18.1200,2.869
18.1600,2.931
18.2000,2.938
18.2400,2.918
18.2800,2.911
18.3200,2.938
18.3600,2.803
18.4000,2.881
18.4400,2.968
18.4800,3.003
18.5200,2.891
18.5600,2.875
18.6000,3.006
18.6400,2.791
18.6800,2.838
18.7200,2.856
18.7600,2.864
18.8000,2.843
18.8400,2.817
18.8800,2.942
18.9200,2.855
18.9600,2.871
19.0000,2.856
19.0400,2.821
19.0800,2.868
19.1200,2.926
19.1600,2.835
19.2000,2.754
19.2400,2.747
19.2800,2.760
19.3200,2.780
19.3600,2.888
19.4000,2.812
19.4400,2.778
19.4800,2.856
19.5200,2.732
19.5600,2.861
19.6000,2.850
19.6400,2.829
19.6800,2.813
19.7200,2.732
19.7600,2.760
19.8000,2.722
19.8400,2.772
19.8800,2.755
19.9200,2.757
19.9600,2.800
20.0000,2.774
20.0400,2.704
20.0800,2.752
20.1200,2.773
20.1600,2.725
20.2000,2.706
20.2400,2.797
20.2800,2.748
20.3200,2.728
20.3600,2.754
20.4000,2.727
20.4400,2.712
20.4800,2.649
20.5200,2.687
20.5600,2.729
20.6000,2.697
20.6400,2.731
20.6800,2.703
20.7200,2.761
20.7600,2.695
20.8000,2.655
20.8400,2.691
20.8800,2.728
20.9200,2.667
20.9600,2.638
21.0000,2.670
21.0400,2.668
21.0800,2.662
21.1200,2.650
21.1600,2.660
21.2000,2.655
21.2400,2.654
21.2800,2.628
21.3200,2.592
21.3600,2.733
21.4000,2.617
21.4400,2.552
21.4800,2.668
21.5200,2.623
21.5600,2.595
21.6000,2.635
21.6400,2.497
21.6800,2.614
21.7200,2.629
21.7600,2.595
21.8000,2.652
21.8400,2.560
21.8800,2.603
21.9200,2.438
21.9600,2.479
22.0000,2.602
22.0400,2.532
22.0800,2.598
22.1200,2.481
22.1600,2.504
22.2000,2.527
22.2400,2.596
22.2800,2.617
22.3200,2.543
22.3600,2.509
22.4000,2.530
22.4400,2.446
22.4800,2.636
22.5200,2.525
22.5600,2.597
22.6000,2.557
22.6400,2.593
22.6800,2.396
22.7200,2.464
22.7600,2.529
22.8000,2.587
22.8400,2.574
22.8800,2.446
22.9200,2.473
22.9600,2.505
23.0000,2.450
23.0400,2.486
23.0800,2.506
23.1200,2.501
23.1600,2.372
23.2000,2.494
23.2400,2.444
23.2800,2.476
23.3200,2.503
23.3600,2.456
23.4000,2.488
23.4400,2.445
23.4800,2.510
23.5200,2.360
23.5600,2.338
23.6000,2.288
23.6400,2.490
23.6800,2.388
23.7200,2.454
23.7600,2.392
23.8000,2.420
23.8400,2.341
23.8800,2.488
23.9200,2.407
23.9600,2.397
24.0000,2.412
24.0400,2.462
24.0800,2.385
24.1200,2.423
24.1600,2.280
24.2000,2.363
24.2400,2.424
24.2800,2.381
24.3200,2.422
24.3600,2.322
24.4000,2.347
24.4400,2.346
24.4800,2.363
24.5200,2.248
24.5600,2.345
24.6000,2.431
24.6400,2.361
24.6800,2.385
24.7200,2.317
24.7600,2.311
24.8000,2.298
24.8400,2.410
24.8800,2.344
24.9200,2.325
24.9600,2.212
25.0000,2.285
25.0400,2.327
25.0800,2.220
25.1200,2.262
25.1600,2.285
25.2000,2.391
25.2400,2.348
25.2800,2.281
25.3200,2.222
25.3600,2.307
25.4000,2.266
25.4400,2.282
25.4800,2.278
25.5200,2.284
25.5600,2.214
25.6000,2.282
25.6400,2.208
25.6800,2.186
25.7200,2.233
25.7600,2.206
25.8000,2.149
25.8400,2.204
25.8800,2.256
25.9200,2.257
25.9600,2.191
26.0000,2.218
26.0400,2.222
26.0800,2.128
26.1200,2.248
26.1600,2.193
26.2000,2.163
26.2400,2.171
26.2800,2.165
26.3200,2.201
26.3600,2.232
26.4000,2.222
26.4400,2.166
26.4800,2.251
26.5200,2.125
26.5600,2.153
26.6000,2.128
26.6400,2.153
26.6800,2.073
26.7200,2.178
26.7600,2.126
26.8000,2.101
26.8400,2.118
26.8800,2.087
26.9200,2.050
26.9600,2.160
27.0000,2.144
27.0400,2.173
27.0800,2.064
27.1200,2.124
27.1600,2.142
27.2000,2.102
27.2400,2.038
27.2800,2.115
27.3200,2.113
27.3600,2.164
27.4000,2.186
27.4400,2.050
27.4800,2.099
27.5200,2.125
27.5600,2.123
27.6000,2.036
27.6400,2.088
27.6800,2.133
27.7200,2.046
27.7600,2.067
27.8000,1.989
27.8400,1.980
27.8800,2.060
27.9200,2.028
27.9600,2.153
28.0000,2.087
28.0400,2.000
28.0800,2.092
28.1200,2.047
28.1600,1.996
28.2000,2.084
28.2400,1.992
28.2800,2.071
28.3200,2.057
28.3600,2.040
28.4000,2.055
28.4400,2.045
28.4800,1.958
28.5200,2.028
28.5600,2.029
28.6000,1.998
28.6400,1.986
28.6800,1.928
28.7200,2.045
28.7600,2.001
28.8000,2.034
28.8400,1.943
28.8800,1.965
28.9200,2.090
28.9600,1.959
29.0000,1.981
29.0400,1.930
29.0800,2.039
29.1200,1.920
29.1600,2.014
29.2000,1.948
29.2400,1.950
29.2800,1.879
29.3200,1.876
29.3600,1.908
29.4000,1.950
29.4400,2.047
29.4800,1.886
29.5200,1.961
29.5600,1.974
29.6000,1.962
29.6400,1.911
29.6800,1.899
29.7200,1.887
29.7600,1.933
29.8000,1.880
29.8400,1.896
29.8800,1.908
29.9200,1.917
29.9600,1.868
30.0000,1.972
30.0400,1.950
30.0800,1.827
30.1200,1.896
30.1600,1.886
30.2000,1.961
30.2400,1.856
30.2800,1.893
30.3200,1.965
30.3600,1.856
30.4000,1.884
30.4400,1.820
30.4800,1.839
30.5200,1.984
30.5600,1.857
30.6000,1.843
30.6400,1.960
30.6800,1.872
30.7200,1.855
30.7600,1.779
30.8000,1.792
30.8400,1.930
30.8800,1.905
30.9200,1.861
30.9600,1.838
31.0000,1.992
31.0400,1.895
31.0800,1.921
31.1200,1.991
31.1600,1.982
31.2000,1.960
31.2400,1.927
31.2800,1.917
31.3200,1.936
31.3600,1.952
31.4000,2.147
31.4400,2.187
31.4800,2.058
31.5200,2.135
31.5600,2.172
31.6000,2.321
31.6400,2.363
31.6800,2.445
31.7200,2.540
31.7600,2.598
31.8000,2.549
31.8400,2.542
31.8800,2.448
31.9200,2.400
31.9600,2.310
32.0000,2.282
32.0400,2.237
32.0800,2.134
32.1200,2.069
32.1600,2.202
32.2000,2.004
32.2400,2.000
32.2800,1.998
32.3200,1.984
32.3600,1.906
32.4000,1.911
32.4400,1.914
32.4800,1.839
32.5200,1.911
32.5600,1.952
32.6000,1.849
32.6400,1.895
32.6800,1.888
32.7200,1.871
32.7600,1.796
32.8000,1.807
32.8400,1.826
32.8800,1.839
32.9200,1.775
32.9600,1.781
33.0000,1.726
33.0400,1.764
33.0800,1.756
33.1200,1.749
33.1600,1.736
33.2000,1.780
33.2400,1.757
33.2800,1.804
33.3200,1.770
33.3600,1.726
33.4000,1.749
33.4400,1.820
33.4800,1.755
33.5200,1.724
33.5600,1.828
33.6000,1.793
33.6400,1.807
33.6800,1.817
33.7200,1.776
33.7600,1.819
33.8000,1.839
33.8400,1.787
33.8800,1.869
33.9200,1.840
33.9600,1.929
34.0000,1.929
34.0400,1.908
34.0800,2.000
34.1200,1.974
34.1600,1.928
34.2000,2.000
34.2400,2.044
34.2800,2.082
34.3200,2.047
34.3600,2.068
34.4000,2.084
34.4400,2.031
34.4800,2.043
34.5200,1.969
34.5600,2.020
34.6000,1.962
34.6400,1.950
34.6800,1.880
34.7200,1.889
34.7600,1.895
34.8000,1.843
34.8400,1.947
34.8800,1.831
34.9200,1.835
34.9600,1.868
35.0000,1.813
35.0400,1.773
35.0800,1.827
35.1200,1.759
35.1600,1.763
35.2000,1.798
35.2400,1.775
35.2800,1.786
35.3200,1.790
35.3600,1.824
35.4000,1.840
35.4400,1.859
35.4800,1.823
35.5200,1.849
35.5600,1.830
35.6000,1.878
35.6400,1.880
35.6800,1.952
35.7200,1.996
35.7600,2.037
35.8000,2.019
35.8400,2.090
35.8800,2.156
35.9200,2.166
35.9600,2.208
36.0000,2.307
36.0400,2.401
36.0800,2.397
36.1200,2.508
36.1600,2.570
36.2000,2.669
36.2400,2.705
36.2800,2.682
36.3200,2.629
36.3600,2.603
36.4000,2.542
36.4400,2.486
36.4800,2.487
36.5200,2.366
36.5600,2.341
36.6000,2.248
36.6400,2.187
36.6800,2.088
36.7200,2.079
36.7600,2.038
36.8000,2.059
36.8400,1.945
36.8800,1.883
36.9200,1.895
36.9600,1.793
37.0000,1.863
37.0400,1.890
37.0800,1.785
37.1200,1.802
37.1600,1.735
37.2000,1.771
37.2400,1.764
37.2800,1.694
37.3200,1.662
37.3600,1.759
37.4000,1.690
37.4400,1.658
37.4800,1.703
37.5200,1.708
37.5600,1.798
37.6000,1.637
37.6400,1.711
37.6800,1.636
37.7200,1.730
37.7600,1.795
37.8000,1.813
37.8400,1.798
37.8800,1.893
37.9200,2.038
37.9600,2.143
38.0000,2.369
38.0400,2.522
38.0800,2.560
38.1200,2.480
38.1600,2.408
38.2000,2.377
38.2400,2.212
38.2800,2.149
38.3200,2.140
38.3600,2.153
38.4000,2.082
38.4400,2.144
38.4800,2.091
38.5200,2.095
38.5600,2.104
38.6000,2.029
38.6400,1.960
38.6800,1.856
38.7200,1.942
38.7600,1.864
38.8000,1.787
38.8400,1.742
38.8800,1.703
38.9200,1.763
38.9600,1.676
39.0000,1.727
39.0400,1.674
39.0800,1.678
39.1200,1.650
39.1600,1.731
39.2000,1.614
39.2400,1.660
39.2800,1.618
39.3200,1.618
39.3600,1.644
39.4000,1.642
39.4400,1.625
39.4800,1.569
39.5200,1.650
39.5600,1.603
39.6000,1.562
39.6400,1.591
39.6800,1.589
39.7200,1.571
39.7600,1.612
39.8000,1.681
39.8400,1.642
39.8800,1.634
39.9200,1.670
39.9600,1.626
40.0000,1.658
40.0400,1.616
40.0800,1.687
40.1200,1.743
40.1600,1.721
40.2000,1.663
40.2400,1.717
40.2800,1.720
40.3200,1.667
40.3600,1.623
40.4000,1.674
40.4400,1.615
40.4800,1.662
40.5200,1.682
40.5600,1.663
40.6000,1.702
40.6400,1.566
40.6800,1.704
40.7200,1.635
40.7600,1.689
40.8000,1.658
40.8400,1.627
40.8800,1.618
40.9200,1.688
40.9600,1.705
41.0000,1.647
41.0400,1.688
41.0800,1.705
41.1200,1.645
41.1600,1.754
41.2000,1.642
41.2400,1.697
41.2800,1.656
41.3200,1.663
41.3600,1.693
41.4000,1.616
41.4400,1.613
41.4800,1.609
41.5200,1.629
41.5600,1.586
41.6000,1.637
41.6400,1.610
41.6800,1.609
41.7200,1.487
41.7600,1.542
41.8000,1.550
41.8400,1.479
41.8800,1.467
41.9200,1.504
41.9600,1.455
42.0000,1.424
42.0400,1.481
42.0800,1.423
42.1200,1.411
42.1600,1.350
42.2000,1.319
42.2400,1.316
42.2800,1.315
42.3200,1.287
42.3600,1.358
42.4000,1.267
42.4400,1.271
42.4800,1.265
42.5200,1.251
42.5600,1.242
42.6000,1.313
42.6400,1.185
42.6800,1.218
42.7200,1.192
42.7600,1.246
42.8000,1.208
42.8400,1.265
42.8800,1.212
42.9200,1.181
42.9600,1.192
43.0000,1.121
43.0400,1.144
43.0800,1.206
43.1200,1.161
43.1600,1.207
43.2000,1.162
43.2400,1.168
43.2800,1.205
43.3200,1.195
43.3600,1.115
43.4000,1.179
43.4400,1.119
43.4800,1.124
43.5200,1.150
43.5600,1.118
43.6000,1.214
43.6400,1.116
43.6800,1.249
43.7200,1.173
43.7600,1.148
43.8000,1.172
43.8400,1.160
43.8800,1.177
43.9200,1.101
43.9600,1.208
44.0000,1.156
44.0400,1.247
44.0800,1.189
44.1200,1.183
44.1600,1.092
44.2000,1.200
44.2400,1.214
44.2800,1.210
44.3200,1.244
44.3600,1.212
44.4000,1.192
44.4400,1.185
44.4800,1.147
44.5200,1.194
44.5600,1.207
44.6000,1.123
44.6400,1.084
44.6800,1.079
44.7200,1.105
44.7600,1.116
44.8000,1.078
44.8400,1.065
44.8800,1.091
44.9200,1.030
44.9600,1.037
45.0000,1.072
45.0400,1.066
45.0800,1.013
45.1200,1.076
45.1600,1.085
45.2000,1.040
45.2400,1.042
45.2800,1.024
45.3200,1.039
45.3600,1.009
45.4000,0.975
45.4400,1.012
45.4800,0.960
45.5200,0.990
45.5600,1.007
45.6000,0.933
45.6400,1.044
45.6800,1.033
45.7200,0.979
45.7600,0.997
45.8000,0.960
45.8400,1.014
45.8800,0.911
45.9200,0.971
45.9600,1.033
46.0000,1.008
46.0400,0.996
46.0800,0.964
46.1200,0.977
46.1600,0.961
46.2000,0.947
46.2400,1.015
46.2800,0.966
46.3200,0.924
46.3600,0.982
46.4000,0.912
46.4400,1.013
46.4800,0.954
46.5200,0.949
46.5600,0.996
46.6000,0.975
46.6400,0.949
46.6800,1.026
46.7200,0.987
46.7600,1.017
46.8000,1.047
46.8400,1.003
46.8800,0.988
46.9200,0.964
46.9600,0.976
47.0000,0.974
47.0400,0.992
47.0800,0.941
47.1200,0.985
47.1600,0.996
47.2000,1.016
47.2400,0.981
47.2800,0.984
47.3200,1.002
47.3600,1.028
47.4000,0.987
47.4400,0.980
47.4800,1.046
47.5200,1.033
47.5600,1.034
47.6000,1.009
47.6400,1.004
47.6800,0.947
47.7200,1.022
47.7600,1.048
47.8000,1.037
47.8400,1.019
47.8800,0.984
47.9200,1.047
47.9600,1.000
48.0000,0.925
48.0400,0.881
48.0800,0.931
48.1200,0.940
48.1600,0.987
48.2000,0.951
48.2400,0.915
48.2800,0.945
48.3200,0.975
48.3600,0.905
48.4000,0.931
48.4400,0.930
48.4800,0.939
48.5200,0.886
48.5600,0.916
48.6000,0.848
48.6400,0.895
48.6800,0.874
48.7200,0.866
48.7600,0.872
48.8000,0.845
48.8400,0.902
48.8800,0.861
48.9200,0.887
48.9600,0.891
49.0000,0.884
49.0400,0.905
49.0800,0.856
49.1200,0.915
49.1600,0.870
49.2000,0.842
49.2400,0.843
49.2800,0.824
49.3200,0.869
49.3600,0.866
49.4000,0.868
49.4400,0.869
49.4800,0.856
49.5200,0.883
49.5600,0.841
49.6000,0.844
49.6400,0.853
49.6800,0.809
49.7200,0.840
49.7600,0.858
49.8000,0.843
49.8400,0.850
49.8800,0.852
49.9200,0.839
49.9600,0.836
50.0000,0.860
50.0400,0.794
50.0800,0.838
50.1200,0.824
50.1600,0.823
50.2000,0.824
50.2400,0.785
50.2800,0.813
50.3200,0.770
50.3600,0.787
50.4000,0.799
50.4400,0.795
50.4800,0.772
50.5200,0.819
50.5600,0.803
50.6000,0.790
50.6400,0.799
50.6800,0.847
50.7200,0.768
50.7600,0.840
50.8000,0.766
50.8400,0.839
50.8800,0.773
50.9200,0.811
50.9600,0.833
51.0000,0.832
51.0400,0.795
51.0800,0.782
51.1200,0.778
51.1600,0.787
51.2000,0.803
51.2400,0.758
51.2800,0.779
51.3200,0.773
51.3600,0.758
51.4000,0.794
51.4400,0.722
51.4800,0.788
51.5200,0.803
51.5600,0.748
51.6000,0.778
51.6400,0.795
51.6800,0.780
51.7200,0.763
51.7600,0.742
51.8000,0.793
51.8400,0.772
51.8800,0.747
51.9200,0.764
51.9600,0.779
52.0000,0.774
52.0400,0.730
52.0800,0.784
52.1200,0.820
52.1600,0.760
52.2000,0.748
52.2400,0.752
52.2800,0.755
52.3200,0.737
52.3600,0.707
52.4000,0.799
52.4400,0.785
52.4800,0.739
52.5200,0.750
52.5600,0.768
52.6000,0.709
52.6400,0.754
52.6800,0.769
52.7200,0.721
52.7600,0.767
52.8000,0.745
52.8400,0.742
52.8800,0.733
52.9200,0.703
52.9600,0.706
53.0000,0.723
53.0400,0.660
53.0800,0.724
53.1200,0.730
53.1600,0.731
53.2000,0.774
53.2400,0.688
53.2800,0.719
53.3200,0.747
53.3600,0.756
53.4000,0.735
53.4400,0.746
53.4800,0.740
53.5200,0.746
53.5600,0.734
53.6000,0.754
53.6400,0.729
53.6800,0.704
53.7200,0.764
53.7600,0.688
53.8000,0.694
53.8400,0.744
53.8800,0.754
53.9200,0.801
53.9600,0.757
54.0000,0.753
54.0400,0.703
54.0800,0.721
54.1200,0.787
54.1600,0.727
54.2000,0.765
54.2400,0.734
54.2800,0.749
54.3200,0.685
54.3600,0.714
54.4000,0.726
54.4400,0.720
54.4800,0.710
54.5200,0.701
54.5600,0.734
54.6000,0.710
54.6400,0.725
54.6800,0.741
54.7200,0.745
54.7600,0.703
54.8000,0.706
54.8400,0.732
54.8800,0.739
54.9200,0.715
54.9600,0.742
55.0000,0.724
55.0400,0.688
55.0800,0.700
55.1200,0.711
55.1600,0.733
55.2000,0.675
55.2400,0.707
55.2800,0.741
55.3200,0.790
55.3600,0.737
55.4000,0.712
55.4400,0.729
55.4800,0.748
55.5200,0.709
55.5600,0.693
55.6000,0.741
55.6400,0.740
55.6800,0.699
55.7200,0.706
55.7600,0.771
55.8000,0.717
55.8400,0.743
55.8800,0.714
55.9200,0.739
55.9600,0.727
56.0000,0.733
56.0400,0.688
56.0800,0.802
56.1200,0.773
56.1600,0.808
56.2000,0.745
56.2400,0.782
56.2800,0.817
56.3200,0.796
56.3600,0.843
56.4000,0.861
56.4400,0.844
56.4800,0.923
56.5200,0.946
56.5600,0.943
56.6000,0.946
56.6400,0.978
56.6800,0.934
56.7200,0.913
56.7600,0.894
56.8000,0.890
56.8400,0.877
56.8800,0.889
56.9200,0.809
56.9600,0.769
57.0000,0.845
57.0400,0.777
57.0800,0.768
57.1200,0.799
57.1600,0.761
57.2000,0.798
57.2400,0.752
57.2800,0.705
57.3200,0.734
57.3600,0.705
57.4000,0.744
57.4400,0.696
57.4800,0.715
57.5200,0.697
57.5600,0.653
57.6000,0.676
57.6400,0.684
57.6800,0.676
57.7200,0.724
57.7600,0.694
57.8000,0.719
57.8400,0.707
57.8800,0.663
57.9200,0.656
57.9600,0.690
58.0000,0.667
58.0400,0.665
58.0800,0.612
58.1200,0.644
58.1600,0.666
58.2000,0.626
58.2400,0.677
58.2800,0.645
58.3200,0.618
58.3600,0.670
58.4000,0.641
58.4400,0.635
58.4800,0.635
58.5200,0.664
58.5600,0.590
58.6000,0.621
58.6400,0.649
58.6800,0.663
58.7200,0.665
58.7600,0.638
58.8000,0.603
58.8400,0.680
58.8800,0.632
58.9200,0.645
58.9600,0.625
59.0000,0.618
59.0400,0.621
59.0800,0.601
59.1200,0.617
59.1600,0.662
59.2000,0.634
59.2400,0.609
59.2800,0.649
59.3200,0.641
59.3600,0.625
59.4000,0.625
59.4400,0.595
59.4800,0.616
59.5200,0.598
59.5600,0.605
59.6000,0.625
59.6400,0.613
59.6800,0.653
59.7200,0.614
59.7600,0.687
59.8000,0.607
59.8400,0.610
59.8800,0.620
59.9200,0.584
59.9600,0.609
60.0000,0.594
60.0400,0.602
60.0800,0.611
60.1200,0.604
60.1600,0.638
60.2000,0.577
60.2400,0.601
60.2800,0.594
60.3200,0.620
60.3600,0.566
60.4000,0.575
60.4400,0.614
60.4800,0.599
60.5200,0.570
60.5600,0.590
60.6000,0.555
60.6400,0.603
60.6800,0.623
60.7200,0.586
60.7600,0.528
60.8000,0.578
60.8400,0.613
60.8800,0.631
60.9200,0.607
60.9600,0.634
61.0000,0.567
61.0400,0.622
61.0800,0.622
61.1200,0.598
61.1600,0.623
61.2000,0.586
61.2400,0.581
61.2800,0.600
61.3200,0.601
61.3600,0.585
61.4000,0.577
61.4400,0.587
61.4800,0.617
61.5200,0.594
61.5600,0.646
61.6000,0.648
61.6400,0.690
61.6800,0.612
61.7200,0.639
61.7600,0.641
61.8000,0.580
61.8400,0.621
61.8800,0.555
61.9200,0.630
61.9600,0.592
62.0000,0.617
62.0400,0.643
62.0800,0.614
62.1200,0.583
62.1600,0.612
62.2000,0.652
62.2400,0.616
62.2800,0.644
62.3200,0.669
62.3600,0.660
62.4000,0.644
62.4400,0.676
62.4800,0.637
62.5200,0.630
62.5600,0.643
62.6000,0.682
62.6400,0.690
62.6800,0.652
62.7200,0.715
62.7600,0.724
62.8000,0.707
62.8400,0.676
62.8800,0.723
62.9200,0.683
62.9600,0.689
63.0000,0.713
63.0400,0.671
63.0800,0.687
63.1200,0.655
63.1600,0.653
63.2000,0.642
63.2400,0.703
63.2800,0.686
63.3200,0.631
63.3600,0.669
63.4000,0.641
63.4400,0.617
63.4800,0.624
63.5200,0.643
63.5600,0.688
63.6000,0.643
63.6400,0.652
63.6800,0.593
63.7200,0.619
63.7600,0.614
63.8000,0.660
63.8400,0.658
63.8800,0.607
63.9200,0.606
63.9600,0.646
64.0000,0.658
64.0400,0.649
64.0800,0.661
64.1200,0.638
64.1600,0.671
64.2000,0.643
64.2400,0.698
64.2800,0.745
64.3200,0.687
64.3600,0.697
64.4000,0.733
64.4400,0.707
64.4800,0.693
64.5200,0.674
64.5600,0.679
64.6000,0.714
64.6400,0.753
64.6800,0.739
64.7200,0.735
64.7600,0.666
64.8000,0.759
64.8400,0.665
64.8800,0.730
64.9200,0.710
64.9600,0.746
65.0000,0.720
65.0400,0.713
65.0800,0.699
65.1200,0.733
65.1600,0.783
65.2000,0.699
65.2400,0.743
65.2800,0.778
65.3200,0.737
65.3600,0.779
65.4000,0.730
65.4400,0.800
65.4800,0.777
65.5200,0.784
65.5600,0.784
65.6000,0.808
65.6400,0.782
65.6800,0.817
65.7200,0.778
65.7600,0.783
65.8000,0.857
65.8400,0.801
65.8800,0.789
65.9200,0.791
65.9600,0.812
66.0000,0.808
66.0400,0.845
66.0800,0.808
66.1200,0.841
66.1600,0.863
66.2000,0.822
66.2400,0.840
66.2800,0.920
66.3200,0.884
66.3600,0.955
66.4000,0.895
66.4400,0.917
66.4800,0.951
66.5200,1.011
66.5600,0.936
66.6000,1.023
66.6400,0.971
66.6800,0.954
66.7200,1.050
66.7600,1.012
66.8000,1.042
66.8400,1.112
66.8800,1.106
66.9200,1.041
66.9600,1.062
67.0000,1.125
67.0400,1.151
67.0800,1.123
67.1200,1.195
67.1600,1.191
67.2000,1.206
67.2400,1.269
67.2800,1.264
67.3200,1.281
67.3600,1.232
67.4000,1.351
67.4400,1.388
67.4800,1.344
67.5200,1.453
67.5600,1.444
67.6000,1.559
67.6400,1.470
67.6800,1.588
67.7200,1.655
67.7600,1.642
67.8000,1.662
67.8400,1.708
67.8800,1.810
67.9200,1.835
67.9600,1.894
68.0000,1.842
68.0400,1.999
68.0800,2.078
68.1200,1.961
68.1600,2.053
68.2000,2.179
68.2400,2.203
68.2800,2.263
68.3200,2.393
68.3600,2.453
68.4000,2.578
68.4400,2.711
68.4800,2.842
68.5200,2.902
68.5600,3.147
68.6000,3.456
68.6400,3.999
68.6800,5.207
68.7200,6.647
68.7600,7.883
68.8000,8.169
68.8400,8.302
68.8800,9.153
68.9200,11.877
68.9600,18.056
69.0000,37.664
69.0400,165.177
69.0800,526.931
69.1200,502.717
69.1600,154.225
69.2000,52.930
69.2400,110.153
69.2800,277.188
69.3200,247.463
69.3600,76.344
69.4000,22.515
69.4400,12.715
69.4800,9.362
69.5200,7.327
69.5600,6.276
69.6000,5.305
69.6400,4.697
69.6800,4.161
69.7200,3.960
69.7600,3.542
69.8000,3.358
69.8400,3.152
69.8800,2.952
69.9200,2.853
69.9600,2.769
70.0000,2.612
70.0400,2.557
70.0800,2.386
70.1200,2.280
70.1600,2.256
70.2000,2.129
70.2400,2.079
70.2800,1.966
70.3200,1.984
70.3600,1.841
70.4000,1.841
70.4400,1.745
70.4800,1.634
70.5200,1.667
70.5600,1.591
70.6000,1.650
70.6400,1.544
70.6800,1.452
70.7200,1.409
70.7600,1.351
70.8000,1.373
70.8400,1.337
70.8800,1.355
70.9200,1.281
70.9600,1.210
71.0000,1.226
71.0400,1.128
71.0800,1.169
71.1200,1.071
71.1600,1.155
71.2000,1.042
71.2400,1.042
71.2800,1.079
71.3200,1.021
71.3600,1.020
71.4000,1.002
71.4400,0.994
71.4800,0.964
71.5200,0.905
71.5600,0.918
71.6000,0.890
71.6400,0.874
71.6800,0.850
71.7200,0.791
71.7600,0.875
71.8000,0.849
71.8400,0.837
71.8800,0.826
71.9200,0.766
71.9600,0.768
72.0000,0.748
72.0400,0.722
72.0800,0.705
72.1200,0.717
72.1600,0.732
72.2000,0.679
72.2400,0.705
72.2800,0.686
72.3200,0.682
72.3600,0.655
72.4000,0.649
72.4400,0.671
72.4800,0.651
72.5200,0.646
72.5600,0.620
72.6000,0.621
72.6400,0.616
72.6800,0.615
72.7200,0.613
72.7600,0.571
72.8000,0.581
72.8400,0.585
72.8800,0.596
72.9200,0.588
72.9600,0.592
73.0000,0.584
73.0400,0.565
73.0800,0.544
73.1200,0.552
73.1600,0.547
73.2000,0.535
73.2400,0.546
73.2800,0.569
73.3200,0.512
73.3600,0.488
73.4000,0.501
73.4400,0.529
73.4800,0.498
73.5200,0.488
73.5600,0.514
73.6000,0.516
73.6400,0.498
73.6800,0.549
73.7200,0.486
73.7600,0.519
73.8000,0.488
73.8400,0.473
73.8800,0.463
73.9200,0.475
73.9600,0.454
74.0000,0.485
74.0400,0.482
74.0800,0.478
74.1200,0.420
74.1600,0.442
74.2000,0.469
74.2400,0.416
74.2800,0.475
74.3200,0.453
74.3600,0.399
74.4000,0.447
74.4400,0.419
74.4800,0.438
74.5200,0.438
74.5600,0.426
74.6000,0.418
74.6400,0.391
74.6800,0.436
74.7200,0.441
74.7600,0.393
74.8000,0.420
74.8400,0.410
74.8800,0.446
74.9200,0.397
74.9600,0.398
75.0000,0.426
75.0400,0.419
75.0800,0.415
75.1200,0.429
75.1600,0.433
75.2000,0.392
75.2400,0.399
75.2800,0.404
75.3200,0.382
75.3600,0.371
75.4000,0.380
75.4400,0.397
75.4800,0.364
75.5200,0.408
75.5600,0.368
75.6000,0.391
75.6400,0.375
75.6800,0.376
75.7200,0.388
75.7600,0.367
75.8000,0.388
75.8400,0.385
75.8800,0.368
75.9200,0.360
75.9600,0.385
76.0000,0.407
76.0400,0.361
76.0800,0.408
76.1200,0.409
76.1600,0.401
76.2000,0.369
76.2400,0.402
76.2800,0.363
76.3200,0.364
76.3600,0.411
76.4000,0.378
76.4400,0.347
76.4800,0.346
76.5200,0.388
76.5600,0.386
76.6000,0.410
76.6400,0.378
76.6800,0.392
76.7200,0.377
76.7600,0.381
76.8000,0.397
76.8400,0.404
76.8800,0.420
76.9200,0.393
76.9600,0.375
77.0000,0.386
77.0400,0.396
77.0800,0.411
77.1200,0.411
77.1600,0.405
77.2000,0.416
77.2400,0.438
77.2800,0.424
77.3200,0.431
77.3600,0.459
77.4000,0.423
77.4400,0.430
77.4800,0.453
77.5200,0.437
77.5600,0.450
77.6000,0.432
77.6400,0.414
77.6800,0.401
77.7200,0.441
77.7600,0.454
77.8000,0.406
77.8400,0.378
77.8800,0.400
77.9200,0.437
77.9600,0.415
78.0000,0.394
78.0400,0.434
78.0800,0.396
78.1200,0.388
78.1600,0.366
78.2000,0.412
78.2400,0.405
78.2800,0.388
78.3200,0.393
78.3600,0.343
78.4000,0.399
78.4400,0.401
78.4800,0.373
78.5200,0.390
78.5600,0.381
78.6000,0.380
78.6400,0.412
78.6800,0.410
78.7200,0.369
78.7600,0.390
78.8000,0.391
78.8400,0.389
78.8800,0.406
78.9200,0.395
78.9600,0.375
79.0000,0.402
79.0400,0.373
79.0800,0.361
79.1200,0.345
79.1600,0.359
79.2000,0.350
79.2400,0.364
79.2800,0.374
79.3200,0.341
79.3600,0.350
79.4000,0.392
79.4400,0.356
79.4800,0.351
79.5200,0.325
79.5600,0.343
79.6000,0.348
79.6400,0.348
79.6800,0.342
79.7200,0.348
79.7600,0.381
79.8000,0.342
79.8400,0.367
79.8800,0.352
79.9200,0.355
79.9600,0.290
80.0000,0.304
