theta,intensity
5.0000,7.013
5.0400,7.014
5.0800,6.846
5.1200,6.834
5.1600,6.978
5.2000,6.747
5.2400,6.754
5.2800,6.646
5.3200,6.597
5.3600,6.516
5.4000,6.554
5.4400,6.471
5.4800,6.300
5.5200,6.313
5.5600,6.162
5.6000,6.303
5.6400,5.883
5.6800,5.781
5.7200,5.726
5.7600,5.580
5.8000,5.656
5.8400,5.616
5.8800,5.391
5.9200,5.355
5.9600,5.489
6.0000,5.251
6.0400,5.355
6.0800,5.220
6.1200,5.258
6.1600,5.122
6.2000,5.109
6.2400,5.111
6.2800,5.096
6.3200,4.857
6.3600,4.843
6.4000,5.046
6.4400,4.899
6.4800,4.878
6.5200,4.750
6.5600,4.822
6.6000,4.910
6.6400,4.675
6.6800,4.715
6.7200,4.728
6.7600,4.654
6.8000,4.564
6.8400,4.686
6.8800,4.659
6.9200,4.443
6.9600,4.439
7.0000,4.498
7.0400,4.492
7.0800,4.417
7.1200,4.476
7.1600,4.432
7.2000,4.379
7.2400,4.228
7.2800,4.269
7.3200,4.429
7.3600,4.280
7.4000,4.269
7.4400,4.244
7.4800,4.301
7.5200,4.232
7.5600,4.173
7.6000,4.157
7.6400,4.193
7.6800,4.182
7.7200,4.093
7.7600,4.206
7.8000,4.216
7.8400,4.216
7.8800,4.125
7.9200,4.149
7.9600,3.992
8.0000,4.118
8.0400,4.110
8.0800,4.020
8.1200,4.003
8.1600,4.028
8.2000,4.082
8.2400,4.040
8.2800,3.952
8.3200,3.909
8.3600,4.022
8.4000,4.005
8.4400,4.043
8.4800,3.910
8.5200,4.025
8.5600,3.960
8.6000,4.007
8.6400,3.933
8.6800,3.957
8.7200,3.961
8.7600,4.026
8.8000,3.988
8.8400,3.809
8.8800,3.782
8.9200,4.015
8.9600,3.950
9.0000,3.928
9.0400,3.854
9.0800,3.865
9.1200,3.859
9.1600,3.849
9.2000,3.853
9.2400,3.703
9.2800,3.913
9.3200,3.858
9.3600,3.867
9.4000,3.768
9.4400,3.780
9.4800,3.790
9.5200,3.789
9.5600,3.737
9.6000,3.841
9.6400,3.888
9.6800,3.777
9.7200,3.812
9.7600,3.842
9.8000,3.715
9.8400,3.696
9.8800,3.664
9.9200,3.654
9.9600,3.716
10.0000,3.673
10.0400,3.713
10.0800,3.639
10.1200,3.804
10.1600,3.815
10.2000,3.733
10.2400,3.754
10.2800,3.734
10.3200,3.720
10.3600,3.703
10.4000,3.750
10.4400,3.622
10.4800,3.654
10.5200,3.595
10.5600,3.649
10.6000,3.556
10.6400,3.633
10.6800,3.682
10.7200,3.594
10.7600,3.655
10.8000,3.593
10.8400,3.614
10.8800,3.503
10.9200,3.586
10.9600,3.610
11.0000,3.562
11.0400,3.546
11.0800,3.605
11.1200,3.580
11.1600,3.606
11.2000,3.561
11.2400,3.452
11.2800,3.591
11.3200,3.616
11.3600,3.577
11.4000,3.475
11.4400,3.588
11.4800,3.599
11.5200,3.541
11.5600,3.594
11.6000,3.540
11.6400,3.508
11.6800,3.547
11.7200,3.619
11.7600,3.482
11.8000,3.361
11.8400,3.527
11.8800,3.475
11.9200,3.556
11.9600,3.524
12.0000,3.470
12.0400,3.471
12.0800,3.419
12.1200,3.460
12.1600,3.567
12.2000,3.499
12.2400,3.430
12.2800,3.487
12.3200,3.545
12.3600,3.532
12.4000,3.548
12.4400,3.377
12.4800,3.380
12.5200,3.445
12.5600,3.492
12.6000,3.455
12.6400,3.446
12.6800,3.402
12.7200,3.468
12.7600,3.469
12.8000,3.388
12.8400,3.471
12.8800,3.488
12.9200,3.544
12.9600,3.315
13.0000,3.339
13.0400,3.364
13.0800,3.380
13.1200,3.380
13.1600,3.351
13.2000,3.450
13.2400,3.344
13.2800,3.436
13.3200,3.356
13.3600,3.303
13.4000,3.354
13.4400,3.435
13.4800,3.446
13.5200,3.298
13.5600,3.259
13.6000,3.328
13.6400,3.341
13.6800,3.299
13.7200,3.378
13.7600,3.348
13.8000,3.342
13.8400,3.373
13.8800,3.344
13.9200,3.351
13.9600,3.306
14.0000,3.382
14.0400,3.330
14.0800,3.279
14.1200,3.320
14.1600,3.384
14.2000,3.275
14.2400,3.269
14.2800,3.329
14.3200,3.293
14.3600,3.333
14.4000,3.260
14.4400,3.274
14.4800,3.269
14.5200,3.322
14.5600,3.370
14.6000,3.223
14.6400,3.110
14.6800,3.254
14.7200,3.325
14.7600,3.336
14.8000,3.375
14.8400,3.358
14.8800,3.262
14.9200,3.176
14.9600,3.084
15.0000,3.168
15.0400,3.233
15.0800,3.142
15.1200,3.073
15.1600,3.113
15.2000,3.114
15.2400,3.174
15.2800,3.205
15.3200,3.204
15.3600,3.161
15.4000,3.276
15.4400,3.192
15.4800,3.189
15.5200,3.144
15.5600,3.150
15.6000,3.229
15.6400,3.108
15.6800,3.152
15.7200,3.181
15.7600,3.086
15.8000,3.193
15.8400,3.127
15.8800,3.144
15.9200,3.073
15.9600,3.207
16.0000,3.227
16.0400,3.174
16.0800,3.123
16.1200,3.087
16.1600,3.210
16.2000,3.153
16.2400,3.160
16.2800,3.052
16.3200,2.985
16.3600,2.941
16.4000,3.125
16.4400,3.221
16.4800,3.088
16.5200,2.997
16.5600,2.983
16.6000,3.110
16.6400,3.127
16.6800,3.018
16.7200,3.091
16.7600,3.033
16.8000,3.095
16.8400,2.964
16.8800,3.093
16.9200,3.009
16.9600,3.060
17.0000,3.028
17.0400,2.976
17.0800,3.050
17.1200,3.054
17.1600,3.116
17.2000,3.041
17.2400,2.920
17.2800,2.948
17.3200,2.915
17.3600,3.036
17.4000,2.985
17.4400,2.924
17.4800,2.904
17.5200,3.034
17.5600,3.007
17.6000,3.026
17.6400,2.923
17.6800,2.898
17.7200,2.894
17.7600,3.011
17.8000,2.916
17.8400,3.030
17.8800,2.973
17.9200,2.928
17.9600,2.930
18.0000,2.925
18.0400,2.859
18.0800,2.913
18.1200,2.966
18.1600,2.881
18.2000,2.917
18.2400,2.975
18.2800,2.996
18.3200,2.900
18.3600,2.961
18.4000,2.816
18.4400,2.942
18.4800,2.898
18.5200,2.827
18.5600,2.823
18.6000,2.917
18.6400,2.866
18.6800,2.971
18.7200,2.871
18.7600,2.886
18.8000,2.888
18.8400,2.853
18.8800,2.877
18.9200,2.869
18.9600,2.810
19.0000,2.789
19.0400,2.884
19.0800,2.826
19.1200,2.771
19.1600,2.806
19.2000,2.734
19.2400,2.728
19.2800,2.777
19.3200,2.885
19.3600,2.925
19.4000,2.710
19.4400,2.754
19.4800,2.788
19.5200,2.785
19.5600,2.798
19.6000,2.762
19.6400,2.825
19.6800,2.716
19.7200,2.807
19.7600,2.756
19.8000,2.844
19.8400,2.688
19.8800,2.774
19.9200,2.736
19.9600,2.636
20.0000,2.729
20.0400,2.756
20.0800,2.784
20.1200,2.713
20.1600,2.766
20.2000,2.686
20.2400,2.702
20.2800,2.782
20.3200,2.769
20.3600,2.711
20.4000,2.778
20.4400,2.735
20.4800,2.674
20.5200,2.712
20.5600,2.702
20.6000,2.686
20.6400,2.724
20.6800,2.704
20.7200,2.707
20.7600,2.749
20.8000,2.665
20.8400,2.680
20.8800,2.679
20.9200,2.663
20.9600,2.737
21.0000,2.692
21.0400,2.662
21.0800,2.799
21.1200,2.708
21.1600,2.689
21.2000,2.668
21.2400,2.826
21.2800,2.861
21.3200,2.848
21.3600,2.957
21.4000,2.892
21.4400,3.010
21.4800,2.950
21.5200,2.886
21.5600,2.863
21.6000,2.808
21.6400,2.899
21.6800,2.713
21.7200,2.729
21.7600,2.772
21.8000,2.665
21.8400,2.735
21.8800,2.621
21.9200,2.622
21.9600,2.545
22.0000,2.665
22.0400,2.599
22.0800,2.559
22.1200,2.633
22.1600,2.704
22.2000,2.573
22.2400,2.549
22.2800,2.658
22.3200,2.522
22.3600,2.618
22.4000,2.618
22.4400,2.565
22.4800,2.533
22.5200,2.434
22.5600,2.499
22.6000,2.577
22.6400,2.589
22.6800,2.557
22.7200,2.628
22.7600,2.439
22.8000,2.533
22.8400,2.537
22.8800,2.515
22.9200,2.511
22.9600,2.436
23.0000,2.438
23.0400,2.515
23.0800,2.445
23.1200,2.539
23.1600,2.585
23.2000,2.452
23.2400,2.550
23.2800,2.512
23.3200,2.473
23.3600,2.458
23.4000,2.437
23.4400,2.445
23.4800,2.472
23.5200,2.419
23.5600,2.396
23.6000,2.465
23.6400,2.388
23.6800,2.410
23.7200,2.484
23.7600,2.479
23.8000,2.482
23.8400,2.528
23.8800,2.398
23.9200,2.436
23.9600,2.406
24.0000,2.443
24.0400,2.404
24.0800,2.413
24.1200,2.393
24.1600,2.453
24.2000,2.513
24.2400,2.262
24.2800,2.360
24.3200,2.417
24.3600,2.309
24.4000,2.328
24.4400,2.308
24.4800,2.349
24.5200,2.316
24.5600,2.284
24.6000,2.372
24.6400,2.414
24.6800,2.301
24.7200,2.436
24.7600,2.311
24.8000,2.364
24.8400,2.338
24.8800,2.263
24.9200,2.279
24.9600,2.299
25.0000,2.297
25.0400,2.344
25.0800,2.233
25.1200,2.332
25.1600,2.336
25.2000,2.259
25.2400,2.276
25.2800,2.255
25.3200,2.278
25.3600,2.418
25.4000,2.228
25.4400,2.268
25.4800,2.249
25.5200,2.281
25.5600,2.247
25.6000,2.225
25.6400,2.271
25.6800,2.304
25.7200,2.262
25.7600,2.220
25.8000,2.331
25.8400,2.283
25.8800,2.311
25.9200,2.259
25.9600,2.217
26.0000,2.301
26.0400,2.231
26.0800,2.351
26.1200,2.268
26.1600,2.198
26.2000,2.236
26.2400,2.247
26.2800,2.190
26.3200,2.204
26.3600,2.236
26.4000,2.319
26.4400,2.191
26.4800,2.252
26.5200,2.259
26.5600,2.214
26.6000,2.320
26.6400,2.239
26.6800,2.179
26.7200,2.143
26.7600,2.162
26.8000,2.294
26.8400,2.212
26.8800,2.132
26.9200,2.240
26.9600,2.206
27.0000,2.244
27.0400,2.205
27.0800,2.245
27.1200,2.194
27.1600,2.216
27.2000,2.314
27.2400,2.187
27.2800,2.186
27.3200,2.232
27.3600,2.246
27.4000,2.284
27.4400,2.243
27.4800,2.230
27.5200,2.225
27.5600,2.230
27.6000,2.247
27.6400,2.221
27.6800,2.233
27.7200,2.189
27.7600,2.140
27.8000,2.139
27.8400,2.190
27.8800,2.035
27.9200,2.059
27.9600,2.168
28.0000,2.084
28.0400,2.126
28.0800,2.147
28.1200,2.111
28.1600,2.155
28.2000,2.131
28.2400,2.137
28.2800,2.180
28.3200,2.161
28.3600,2.161
28.4000,2.132
28.4400,2.160
28.4800,2.095
28.5200,2.128
28.5600,2.151
28.6000,2.162
28.6400,2.117
28.6800,2.149
28.7200,2.206
28.7600,2.182
28.8000,2.204
28.8400,2.152
28.8800,2.199
28.9200,2.118
28.9600,2.080
29.0000,2.168
29.0400,2.116
29.0800,2.138
29.1200,2.222
29.1600,2.202
29.2000,2.154
29.2400,2.165
29.2800,2.233
29.3200,2.181
29.3600,2.268
29.4000,2.302
29.4400,2.261
29.4800,2.327
29.5200,2.236
29.5600,2.169
29.6000,2.390
29.6400,2.456
29.6800,2.427
29.7200,2.497
29.7600,2.644
29.8000,2.615
29.8400,2.504
29.8800,2.507
29.9200,2.656
29.9600,2.668
30.0000,2.688
30.0400,2.877
30.0800,3.006
30.1200,2.996
30.1600,3.209
30.2000,3.216
30.2400,3.479
30.2800,3.795
30.3200,4.059
30.3600,4.299
30.4000,4.634
30.4400,4.958
30.4800,5.217
30.5200,5.537
30.5600,5.742
30.6000,5.661
30.6400,5.381
30.6800,4.901
30.7200,4.646
30.7600,4.212
30.8000,3.775
30.8400,3.504
30.8800,3.355
30.9200,3.086
30.9600,2.929
31.0000,2.805
31.0400,2.817
31.0800,2.659
31.1200,2.548
31.1600,2.504
31.2000,2.365
31.2400,2.342
31.2800,2.432
31.3200,2.238
31.3600,2.217
31.4000,2.115
31.4400,2.266
31.4800,2.107
31.5200,2.073
31.5600,2.167
31.6000,2.091
31.6400,2.056
31.6800,2.031
31.7200,2.002
31.7600,1.969
31.8000,1.999
31.8400,2.041
31.8800,2.018
31.9200,2.080
31.9600,2.169
32.0000,2.468
32.0400,2.676
32.0800,2.708
32.1200,2.432
32.1600,2.193
32.2000,1.877
32.2400,1.891
32.2800,1.925
32.3200,1.956
32.3600,1.836
32.4000,1.828
32.4400,1.803
32.4800,1.853
32.5200,1.885
32.5600,1.861
32.6000,1.831
32.6400,1.821
32.6800,1.848
32.7200,1.789
32.7600,1.778
32.8000,1.809
32.8400,1.799
32.8800,1.832
32.9200,1.792
32.9600,1.837
33.0000,1.791
33.0400,1.800
33.0800,1.883
33.1200,1.849
33.1600,1.743
33.2000,1.817
33.2400,1.774
33.2800,1.813
33.3200,1.787
33.3600,1.769
33.4000,1.739
33.4400,1.724
33.4800,1.726
33.5200,1.807
33.5600,1.688
33.6000,1.746
33.6400,1.809
33.6800,1.618
33.7200,1.667
33.7600,1.715
33.8000,1.712
33.8400,1.678
33.8800,1.732
33.9200,1.787
33.9600,1.759
34.0000,1.814
34.0400,1.666
34.0800,1.753
34.1200,1.651
34.1600,1.663
34.2000,1.675
34.2400,1.626
34.2800,1.661
34.3200,1.749
34.3600,1.687
34.4000,1.747
34.4400,1.701
34.4800,1.645
34.5200,1.872
34.5600,2.007
34.6000,2.055
34.6400,2.077
34.6800,2.008
34.7200,2.040
34.7600,1.959
34.8000,1.873
34.8400,1.886
34.8800,1.824
34.9200,1.900
34.9600,2.023
35.0000,1.954
35.0400,2.075
35.0800,2.099
35.1200,2.258
35.1600,2.206
35.2000,2.282
35.2400,2.554
35.2800,2.724
35.3200,2.928
35.3600,3.412
35.4000,3.560
35.4400,3.847
35.4800,3.925
35.5200,3.651
35.5600,3.472
35.6000,3.035
35.6400,2.668
35.6800,2.503
35.7200,2.232
35.7600,2.164
35.8000,2.053
35.8400,1.955
35.8800,1.852
35.9200,1.806
35.9600,1.808
36.0000,1.687
36.0400,1.664
36.0800,1.639
36.1200,1.530
36.1600,1.592
36.2000,1.452
36.2400,1.551
36.2800,1.535
36.3200,1.576
36.3600,1.551
36.4000,1.506
36.4400,1.606
36.4800,1.530
36.5200,1.547
36.5600,1.529
36.6000,1.546
36.6400,1.539
36.6800,1.427
36.7200,1.521
36.7600,1.441
36.8000,1.458
36.8400,1.482
36.8800,1.497
36.9200,1.550
36.9600,1.492
37.0000,1.487
37.0400,1.478
37.0800,1.527
37.1200,1.440
37.1600,1.497
37.2000,1.485
37.2400,1.512
37.2800,1.480
37.3200,1.569
37.3600,1.536
37.4000,1.594
37.4400,1.773
37.4800,2.150
37.5200,2.773
37.5600,3.536
37.6000,3.832
37.6400,3.597
37.6800,3.263
37.7200,2.688
37.7600,2.196
37.8000,1.956
37.8400,1.794
37.8800,1.663
37.9200,1.551
37.9600,1.645
38.0000,1.497
38.0400,1.563
38.0800,1.415
38.1200,1.373
38.1600,1.434
38.2000,1.360
38.2400,1.321
38.2800,1.417
38.3200,1.435
38.3600,1.382
38.4000,1.376
38.4400,1.389
38.4800,1.347
38.5200,1.310
38.5600,1.332
38.6000,1.404
38.6400,1.377
38.6800,1.353
38.7200,1.399
38.7600,1.292
38.8000,1.314
38.8400,1.315
38.8800,1.313
38.9200,1.312
38.9600,1.357
39.0000,1.379
39.0400,1.297
39.0800,1.302
39.1200,1.274
39.1600,1.358
39.2000,1.331
39.2400,1.430
39.2800,1.367
39.3200,1.309
39.3600,1.325
39.4000,1.418
39.4400,1.607
39.4800,2.125
39.5200,2.260
39.5600,2.256
39.6000,2.386
39.6400,2.417
39.6800,2.080
39.7200,1.762
39.7600,1.685
39.8000,1.553
39.8400,1.435
39.8800,1.458
39.9200,1.620
39.9600,1.656
40.0000,1.809
40.0400,1.964
40.0800,2.202
40.1200,2.669
40.1600,3.362
40.2000,4.276
40.2400,5.265
40.2800,6.087
40.3200,6.272
40.3600,6.059
40.4000,5.306
40.4400,4.505
40.4800,3.788
40.5200,3.097
40.5600,2.587
40.6000,2.253
40.6400,1.943
40.6800,1.725
40.7200,1.600
40.7600,1.587
40.8000,1.528
40.8400,1.367
40.8800,1.395
40.9200,1.315
40.9600,1.297
41.0000,1.299
41.0400,1.299
41.0800,1.326
41.1200,1.274
41.1600,1.225
41.2000,1.279
41.2400,1.301
41.2800,1.240
41.3200,1.302
41.3600,1.204
41.4000,1.288
41.4400,1.282
41.4800,1.209
41.5200,1.228
41.5600,1.212
41.6000,1.206
41.6400,1.286
41.6800,1.253
41.7200,1.231
41.7600,1.249
41.8000,1.283
41.8400,1.248
41.8800,1.291
41.9200,1.188
41.9600,1.226
42.0000,1.097
42.0400,1.249
42.0800,1.147
42.1200,1.159
42.1600,1.153
42.2000,1.155
42.2400,1.125
42.2800,1.160
42.3200,1.220
42.3600,1.114
42.4000,1.231
42.4400,1.160
42.4800,1.118
42.5200,1.153
42.5600,1.140
42.6000,1.117
42.6400,1.154
42.6800,1.153
42.7200,1.152
42.7600,1.097
42.8000,1.128
42.8400,1.157
42.8800,1.128
42.9200,1.131
42.9600,1.072
43.0000,1.100
43.0400,1.043
43.0800,1.125
43.1200,1.138
43.1600,1.133
43.2000,1.066
43.2400,1.050
43.2800,1.095
43.3200,1.076
43.3600,1.066
43.4000,1.150
43.4400,1.086
43.4800,1.088
43.5200,1.066
43.5600,1.057
43.6000,1.086
43.6400,1.029
43.6800,1.011
43.7200,1.130
43.7600,1.103
43.8000,1.030
43.8400,1.137
43.8800,1.216
43.9200,1.175
43.9600,1.144
44.0000,1.151
44.0400,1.138
44.0800,0.990
44.1200,1.077
44.1600,1.118
44.2000,1.077
44.2400,1.168
44.2800,1.352
44.3200,1.259
44.3600,1.168
44.4000,1.201
44.4400,1.126
44.4800,1.102
44.5200,1.044
44.5600,1.038
44.6000,1.053
44.6400,1.067
44.6800,1.085
44.7200,1.009
44.7600,1.055
44.8000,1.097
44.8400,1.124
44.8800,1.189
44.9200,1.206
44.9600,1.167
45.0000,1.152
45.0400,1.123
45.0800,1.072
45.1200,1.061
45.1600,1.064
45.2000,1.020
45.2400,1.082
45.2800,1.072
45.3200,1.137
45.3600,1.014
45.4000,1.083
45.4400,1.121
45.4800,1.132
45.5200,1.155
45.5600,1.163
45.6000,1.178
45.6400,1.156
45.6800,1.124
45.7200,1.095
45.7600,1.158
45.8000,1.074
45.8400,1.136
45.8800,1.074
45.9200,1.088
45.9600,1.049
46.0000,1.090
46.0400,0.990
46.0800,1.006
46.1200,0.997
46.1600,0.969
46.2000,0.974
46.2400,0.938
46.2800,0.957
46.3200,1.007
46.3600,0.999
46.4000,0.996
46.4400,1.015
46.4800,0.983
46.5200,0.934
46.5600,0.919
46.6000,0.944
46.6400,0.891
46.6800,0.977
46.7200,0.919
46.7600,1.001
46.8000,0.931
46.8400,0.954
46.8800,0.949
46.9200,0.944
46.9600,0.898
47.0000,0.947
47.0400,0.941
47.0800,0.906
47.1200,0.914
47.1600,0.906
47.2000,0.961
47.2400,0.959
47.2800,0.934
47.3200,0.922
47.3600,0.927
47.4000,0.977
47.4400,0.954
47.4800,0.959
47.5200,0.932
47.5600,0.934
47.6000,0.938
47.6400,0.893
47.6800,0.990
47.7200,0.946
47.7600,0.927
47.8000,0.972
47.8400,0.878
47.8800,0.914
47.9200,0.908
47.9600,0.909
48.0000,0.855
48.0400,0.891
48.0800,0.911
48.1200,0.923
48.1600,0.887
48.2000,0.931
48.2400,0.895
48.2800,0.878
48.3200,0.925
48.3600,0.864
48.4000,0.969
48.4400,0.926
48.4800,0.866
48.5200,0.904
48.5600,0.900
48.6000,0.923
48.6400,0.904
48.6800,0.901
48.7200,0.860
48.7600,0.926
48.8000,0.945
48.8400,0.917
48.8800,0.888
48.9200,0.874
48.9600,0.899
49.0000,0.948
49.0400,0.884
49.0800,0.868
49.1200,0.922
49.1600,0.928
49.2000,0.926
49.2400,0.902
49.2800,0.926
49.3200,0.951
49.3600,0.883
49.4000,0.921
49.4400,0.889
49.4800,0.901
49.5200,0.903
49.5600,0.914
49.6000,0.899
49.6400,0.916
49.6800,0.896
49.7200,0.898
49.7600,0.874
49.8000,0.922
49.8400,0.882
49.8800,0.925
49.9200,0.892
49.9600,0.950
50.0000,0.961
50.0400,0.975
50.0800,0.959
50.1200,0.917
50.1600,0.915
50.2000,0.978
50.2400,1.013
50.2800,0.990
50.3200,1.041
50.3600,1.041
50.4000,1.021
50.4400,1.100
50.4800,1.093
50.5200,1.180
50.5600,1.190
50.6000,1.169
50.6400,1.237
50.6800,1.286
50.7200,1.327
50.7600,1.309
50.8000,1.442
50.8400,1.534
50.8800,1.584
50.9200,1.640
50.9600,1.554
51.0000,1.494
51.0400,1.549
51.0800,1.508
51.1200,1.487
51.1600,1.417
51.2000,1.322
51.2400,1.230
51.2800,1.206
51.3200,1.190
51.3600,1.103
51.4000,1.058
51.4400,1.092
51.4800,1.017
51.5200,0.959
51.5600,0.940
51.6000,0.917
51.6400,0.910
51.6800,0.913
51.7200,0.901
51.7600,0.909
51.8000,0.888
51.8400,0.885
51.8800,0.975
51.9200,0.915
51.9600,0.886
52.0000,0.984
52.0400,0.942
52.0800,1.009
52.1200,1.012
52.1600,0.927
52.2000,0.952
52.2400,0.865
52.2800,0.867
52.3200,0.880
52.3600,0.869
52.4000,0.944
52.4400,0.956
52.4800,1.042
52.5200,1.169
52.5600,1.180
52.6000,1.242
52.6400,1.311
52.6800,1.225
52.7200,1.238
52.7600,1.211
52.8000,1.128
52.8400,1.133
52.8800,0.997
52.9200,0.959
52.9600,0.902
53.0000,0.861
53.0400,0.852
53.0800,0.797
53.1200,0.838
53.1600,0.832
53.2000,0.841
53.2400,0.820
53.2800,0.826
53.3200,0.822
53.3600,0.765
53.4000,0.762
53.4400,0.784
53.4800,0.741
53.5200,0.770
53.5600,0.756
53.6000,0.761
53.6400,0.757
53.6800,0.764
53.7200,0.771
53.7600,0.713
53.8000,0.796
53.8400,0.767
53.8800,0.739
53.9200,0.757
53.9600,0.790
54.0000,0.737
54.0400,0.754
54.0800,0.746
54.1200,0.744
54.1600,0.722
54.2000,0.736
54.2400,0.745
54.2800,0.756
54.3200,0.750
54.3600,0.802
54.4000,0.745
54.4400,0.737
54.4800,0.748
54.5200,0.745
54.5600,0.734
54.6000,0.728
54.6400,0.713
54.6800,0.716
54.7200,0.733
54.7600,0.711
54.8000,0.685
54.8400,0.711
54.8800,0.687
54.9200,0.743
54.9600,0.758
55.0000,0.692
55.0400,0.707
55.0800,0.751
55.1200,0.723
55.1600,0.713
55.2000,0.689
55.2400,0.696
55.2800,0.752
55.3200,0.732
55.3600,0.726
55.4000,0.766
55.4400,0.714
55.4800,0.772
55.5200,0.768
55.5600,0.678
55.6000,0.730
55.6400,0.715
55.6800,0.727
55.7200,0.731
55.7600,0.732
55.8000,0.700
55.8400,0.768
55.8800,0.791
55.9200,0.863
55.9600,0.750
56.0000,0.798
56.0400,0.737
56.0800,0.783
56.1200,0.742
56.1600,0.734
56.2000,0.741
56.2400,0.706
56.2800,0.755
56.3200,0.683
56.3600,0.741
56.4000,0.720
56.4400,0.714
56.4800,0.712
56.5200,0.683
56.5600,0.694
56.6000,0.704
56.6400,0.674
56.6800,0.685
56.7200,0.668
56.7600,0.639
56.8000,0.693
56.8400,0.709
56.8800,0.654
56.9200,0.705
56.9600,0.682
57.0000,0.661
57.0400,0.672
57.0800,0.698
57.1200,0.663
57.1600,0.712
57.2000,0.740
57.2400,0.672
57.2800,0.683
57.3200,0.704
57.3600,0.663
57.4000,0.622
57.4400,0.714
57.4800,0.679
57.5200,0.674
57.5600,0.647
57.6000,0.680
57.6400,0.678
57.6800,0.700
57.7200,0.680
57.7600,0.682
57.8000,0.696
57.8400,0.739
57.8800,0.703
57.9200,0.658
57.9600,0.675
58.0000,0.649
58.0400,0.662
58.0800,0.666
58.1200,0.693
58.1600,0.666
58.2000,0.621
58.2400,0.649
58.2800,0.683
58.3200,0.690
58.3600,0.679
58.4000,0.672
58.4400,0.636
58.4800,0.623
58.5200,0.651
58.5600,0.626
58.6000,0.682
58.6400,0.671
58.6800,0.648
58.7200,0.708
58.7600,0.696
58.8000,0.742
58.8400,0.718
58.8800,0.705
58.9200,0.726
58.9600,0.678
59.0000,0.682
59.0400,0.699
59.0800,0.713
59.1200,0.723
59.1600,0.715
59.2000,0.715
59.2400,0.694
59.2800,0.676
59.3200,0.732
59.3600,0.681
59.4000,0.673
59.4400,0.718
59.4800,0.738
59.5200,0.667
59.5600,0.642
59.6000,0.655
59.6400,0.717
59.6800,0.684
59.7200,0.726
59.7600,0.714
59.8000,0.723
59.8400,0.783
59.8800,0.736
59.9200,0.716
59.9600,0.799
60.0000,0.772
60.0400,0.795
60.0800,0.809
60.1200,0.789
60.1600,0.840
60.2000,0.861
60.2400,0.839
60.2800,0.908
60.3200,0.930
60.3600,1.051
60.4000,1.014
60.4400,0.989
60.4800,1.066
60.5200,1.028
60.5600,1.069
60.6000,1.057
60.6400,1.112
60.6800,1.075
60.7200,1.021
60.7600,0.988
60.8000,0.989
60.8400,0.936
60.8800,0.871
60.9200,0.835
60.9600,0.836
61.0000,0.783
61.0400,0.762
61.0800,0.785
61.1200,0.690
61.1600,0.725
61.2000,0.736
61.2400,0.708
61.2800,0.693
61.3200,0.711
61.3600,0.676
61.4000,0.644
61.4400,0.642
61.4800,0.666
61.5200,0.709
61.5600,0.718
61.6000,0.648
61.6400,0.759
61.6800,0.789
61.7200,0.710
61.7600,0.712
61.8000,0.636
61.8400,0.667
61.8800,0.651
61.9200,0.648
61.9600,0.667
62.0000,0.716
62.0400,0.690
62.0800,0.682
62.1200,0.721
62.1600,0.715
62.2000,0.730
62.2400,0.689
62.2800,0.703
62.3200,0.676
62.3600,0.692
62.4000,0.699
62.4400,0.616
62.4800,0.718
62.5200,0.621
62.5600,0.681
62.6000,0.640
62.6400,0.671
62.6800,0.637
62.7200,0.631
62.7600,0.657
62.8000,0.638
62.8400,0.597
62.8800,0.595
62.9200,0.618
62.9600,0.617
63.0000,0.608
63.0400,0.607
63.0800,0.647
63.1200,0.669
63.1600,0.642
63.2000,0.677
63.2400,0.651
63.2800,0.722
63.3200,0.715
63.3600,0.700
63.4000,0.762
63.4400,0.775
63.4800,0.864
63.5200,0.837
63.5600,0.910
63.6000,0.938
63.6400,1.021
63.6800,0.984
63.7200,0.906
63.7600,0.978
63.8000,0.902
63.8400,0.915
63.8800,0.871
63.9200,0.860
63.9600,0.826
64.0000,0.754
64.0400,0.698
64.0800,0.736
64.1200,0.689
64.1600,0.623
64.2000,0.624
64.2400,0.654
64.2800,0.624
64.3200,0.645
64.3600,0.633
64.4000,0.619
64.4400,0.616
64.4800,0.626
64.5200,0.646
64.5600,0.650
64.6000,0.678
64.6400,0.618
64.6800,0.606
64.7200,0.680
64.7600,0.626
64.8000,0.607
64.8400,0.632
64.8800,0.605
64.9200,0.582
64.9600,0.626
65.0000,0.626
65.0400,0.623
65.0800,0.603
65.1200,0.632
65.1600,0.627
65.2000,0.614
65.2400,0.676
65.2800,0.607
65.3200,0.645
65.3600,0.672
65.4000,0.624
65.4400,0.645
65.4800,0.678
65.5200,0.652
65.5600,0.615
65.6000,0.689
65.6400,0.695
65.6800,0.664
65.7200,0.706
65.7600,0.709
65.8000,0.669
65.8400,0.655
65.8800,0.649
65.9200,0.646
65.9600,0.726
66.0000,0.703
66.0400,0.669
66.0800,0.683
66.1200,0.675
66.1600,0.739
66.2000,0.728
66.2400,0.755
66.2800,0.798
66.3200,0.763
66.3600,0.817
66.4000,0.765
66.4400,0.778
66.4800,0.824
66.5200,0.801
66.5600,0.844
66.6000,0.810
66.6400,0.766
66.6800,0.828
66.7200,0.808
66.7600,0.851
66.8000,0.871
66.8400,0.933
66.8800,0.865
66.9200,0.921
66.9600,0.908
67.0000,0.949
67.0400,0.957
67.0800,1.016
67.1200,0.965
67.1600,0.998
67.2000,1.013
67.2400,1.062
67.2800,1.027
67.3200,1.011
67.3600,1.076
67.4000,1.033
67.4400,1.107
67.4800,1.167
67.5200,1.118
67.5600,1.224
67.6000,1.147
67.6400,1.264
67.6800,1.235
67.7200,1.285
67.7600,1.295
67.8000,1.303
67.8400,1.324
67.8800,1.370
67.9200,1.416
67.9600,1.542
68.0000,1.450
68.0400,1.545
68.0800,1.550
68.1200,1.599
68.1600,1.605
68.2000,1.639
68.2400,1.746
68.2800,1.832
68.3200,1.867
68.3600,1.973
68.4000,2.001
68.4400,2.141
68.4800,2.212
68.5200,2.272
68.5600,2.408
68.6000,2.571
68.6400,2.805
68.6800,3.155
68.7200,3.861
68.7600,4.984
68.8000,6.216
68.8400,6.785
68.8800,6.976
68.9200,7.380
68.9600,9.094
69.0000,13.549
69.0400,24.074
69.0800,78.818
69.1200,339.691
69.1600,475.016
69.2000,211.274
69.2400,55.156
69.2800,62.845
69.3200,188.106
69.3600,237.823
69.4000,103.454
69.4400,26.300
69.4800,12.520
69.5200,8.851
69.5600,6.836
69.6000,5.736
69.6400,4.848
69.6800,4.427
69.7200,4.065
69.7600,3.647
69.8000,3.260
69.8400,3.222
69.8800,2.894
69.9200,2.725
69.9600,2.686
70.0000,2.440
70.0400,2.378
70.0800,2.209
70.1200,2.177
70.1600,1.993
70.2000,1.939
70.2400,1.900
70.2800,1.726
70.3200,1.745
70.3600,1.735
70.4000,1.657
70.4400,1.551
70.4800,1.483
70.5200,1.485
70.5600,1.464
70.6000,1.371
70.6400,1.327
70.6800,1.332
70.7200,1.234
70.7600,1.233
70.8000,1.231
70.8400,1.188
70.8800,1.162
70.9200,1.109
70.9600,1.100
71.0000,1.023
71.0400,1.087
71.0800,1.042
71.1200,0.991
71.1600,1.008
71.2000,0.930
71.2400,0.952
71.2800,0.957
71.3200,0.947
71.3600,0.894
71.4000,0.909
71.4400,0.855
71.4800,0.836
71.5200,0.831
71.5600,0.825
71.6000,0.811
71.6400,0.782
71.6800,0.763
71.7200,0.747
71.7600,0.712
71.8000,0.697
71.8400,0.712
71.8800,0.656
71.9200,0.703
71.9600,0.662
72.0000,0.692
72.0400,0.694
72.0800,0.674
72.1200,0.644
72.1600,0.625
72.2000,0.614
72.2400,0.613
72.2800,0.602
72.3200,0.619
72.3600,0.606
72.4000,0.604
72.4400,0.573
72.4800,0.572
72.5200,0.601
72.5600,0.578
72.6000,0.569
72.6400,0.612
72.6800,0.574
72.7200,0.541
72.7600,0.559
72.8000,0.534
72.8400,0.556
72.8800,0.520
72.9200,0.504
72.9600,0.510
73.0000,0.520
73.0400,0.513
73.0800,0.506
73.1200,0.533
73.1600,0.527
73.2000,0.536
73.2400,0.560
73.2800,0.480
73.3200,0.483
73.3600,0.472
73.4000,0.491
73.4400,0.504
73.4800,0.463
73.5200,0.541
73.5600,0.495
73.6000,0.504
73.6400,0.494
73.6800,0.465
73.7200,0.462
73.7600,0.440
73.8000,0.469
73.8400,0.486
73.8800,0.454
73.9200,0.459
73.9600,0.418
74.0000,0.456
74.0400,0.467
74.0800,0.471
74.1200,0.426
74.1600,0.421
74.2000,0.448
74.2400,0.437
74.2800,0.414
74.3200,0.416
74.3600,0.457
74.4000,0.445
74.4400,0.408
74.4800,0.470
74.5200,0.470
74.5600,0.461
74.6000,0.463
74.6400,0.495
74.6800,0.473
74.7200,0.473
74.7600,0.463
74.8000,0.475
74.8400,0.464
74.8800,0.516
74.9200,0.529
74.9600,0.554
75.0000,0.532
75.0400,0.503
75.0800,0.537
75.1200,0.525
75.1600,0.542
75.2000,0.500
75.2400,0.504
75.2800,0.458
75.3200,0.459
75.3600,0.412
75.4000,0.401
75.4400,0.411
75.4800,0.426
75.5200,0.404
75.5600,0.432
75.6000,0.407
75.6400,0.359
75.6800,0.435
75.7200,0.416
75.7600,0.428
75.8000,0.435
75.8400,0.423
75.8800,0.480
75.9200,0.489
75.9600,0.503
76.0000,0.525
76.0400,0.497
76.0800,0.512
76.1200,0.517
76.1600,0.581
76.2000,0.598
76.2400,0.576
76.2800,0.674
76.3200,0.692
76.3600,0.651
76.4000,0.659
76.4400,0.637
76.4800,0.610
76.5200,0.639
76.5600,0.575
76.6000,0.566
76.6400,0.579
76.6800,0.529
76.7200,0.460
76.7600,0.501
76.8000,0.459
76.8400,0.407
76.8800,0.471
76.9200,0.421
76.9600,0.440
77.0000,0.423
77.0400,0.371
77.0800,0.391
77.1200,0.366
77.1600,0.378
77.2000,0.348
77.2400,0.409
77.2800,0.330
77.3200,0.372
77.3600,0.375
77.4000,0.349
77.4400,0.391
77.4800,0.402
77.5200,0.397
77.5600,0.385
77.6000,0.370
77.6400,0.420
77.6800,0.382
77.7200,0.398
77.7600,0.407
77.8000,0.432
77.8400,0.438
77.8800,0.467
77.9200,0.459
77.9600,0.468
78.0000,0.471
78.0400,0.495
78.0800,0.476
78.1200,0.526
78.1600,0.499
78.2000,0.491
78.2400,0.504
78.2800,0.522
78.3200,0.413
78.3600,0.424
78.4000,0.427
78.4400,0.428
78.4800,0.413
78.5200,0.377
78.5600,0.391
78.6000,0.411
78.6400,0.389
78.6800,0.362
78.7200,0.367
78.7600,0.362
78.8000,0.360
78.8400,0.362
78.8800,0.348
78.9200,0.352
78.9600,0.331
79.0000,0.323
79.0400,0.354
79.0800,0.358
79.1200,0.333
79.1600,0.324
79.2000,0.345
79.2400,0.320
79.2800,0.348
79.3200,0.335
79.3600,0.345
79.4000,0.329
79.4400,0.343
79.4800,0.326
79.5200,0.351
79.5600,0.324
79.6000,0.317
79.6400,0.342
79.6800,0.331
79.7200,0.324
79.7600,0.336
79.8000,0.356
79.8400,0.310
79.8800,0.323
79.9200,0.316
79.9600,0.333
80.0000,0.327
