theta,intensity
5.0000,4.863
5.0400,4.870
5.0800,4.807
5.1200,4.808
5.1600,4.973
5.2000,4.927
5.2400,4.640
5.2800,4.854
5.3200,4.823
5.3600,4.890
5.4000,4.744
5.4400,4.823
5.4800,4.782
5.5200,4.789
5.5600,4.650
5.6000,4.786
5.6400,4.744
5.6800,4.885
5.7200,4.788
5.7600,4.700
5.8000,4.751
5.8400,4.669
5.8800,4.820
5.9200,4.707
5.9600,4.589
6.0000,4.580
6.0400,4.708
6.0800,4.592
6.1200,4.543
6.1600,4.547
6.2000,4.627
6.2400,4.462
6.2800,4.225
6.3200,4.400
6.3600,4.214
6.4000,4.244
6.4400,4.151
6.4800,4.064
6.5200,4.097
6.5600,3.943
6.6000,3.958
6.6400,4.155
6.6800,4.081
6.7200,4.165
6.7600,4.122
6.8000,3.930
6.8400,4.029
6.8800,4.033
6.9200,4.030
6.9600,4.119
7.0000,3.974
7.0400,3.875
7.0800,4.140
7.1200,4.021
7.1600,3.954
7.2000,3.980
7.2400,3.952
7.2800,3.980
7.3200,3.888
7.3600,4.001
7.4000,4.029
7.4400,4.051
7.4800,4.058
7.5200,4.022
7.5600,4.005
7.6000,3.911
7.6400,3.838
7.6800,3.949
7.7200,4.002
7.7600,3.860
7.8000,4.031
7.8400,3.856
7.8800,3.867
7.9200,3.933
7.9600,3.983
8.0000,3.881
8.0400,3.820
8.0800,3.788
8.1200,3.768
8.1600,3.776
8.2000,3.815
8.2400,3.854
8.2800,3.888
8.3200,3.797
8.3600,3.914
8.4000,3.752
8.4400,3.933
8.4800,3.843
8.5200,3.704
8.5600,3.736
8.6000,3.694
8.6400,3.782
8.6800,3.812
8.7200,3.849
8.7600,3.859
8.8000,3.815
8.8400,3.873
8.8800,3.747
8.9200,3.756
8.9600,3.733
9.0000,3.843
9.0400,3.757
9.0800,3.741
9.1200,3.826
9.1600,3.677
9.2000,3.727
9.2400,3.693
9.2800,3.641
9.3200,3.796
9.3600,3.711
9.4000,3.849
9.4400,3.717
9.4800,3.707
9.5200,3.744
9.5600,3.700
9.6000,3.712
9.6400,3.677
9.6800,3.622
9.7200,3.627
9.7600,3.712
9.8000,3.721
9.8400,3.596
9.8800,3.751
9.9200,3.656
9.9600,3.851
10.0000,3.657
10.0400,3.729
10.0800,3.737
10.1200,3.650
10.1600,3.666
10.2000,3.703
10.2400,3.814
10.2800,3.584
10.3200,3.694
10.3600,3.643
10.4000,3.682
10.4400,3.649
10.4800,3.649
10.5200,3.608
10.5600,3.506
10.6000,3.645
10.6400,3.517
10.6800,3.660
10.7200,3.695
10.7600,3.667
10.8000,3.722
10.8400,3.596
10.8800,3.537
10.9200,3.440
10.9600,3.481
11.0000,3.540
11.0400,3.567
11.0800,3.611
11.1200,3.452
11.1600,3.452
11.2000,3.570
11.2400,3.528
11.2800,3.580
11.3200,3.545
11.3600,3.565
11.4000,3.530
11.4400,3.600
11.4800,3.558
11.5200,3.555
11.5600,3.479
11.6000,3.661
11.6400,3.551
11.6800,3.372
11.7200,3.518
11.7600,3.576
11.8000,3.364
11.8400,3.576
11.8800,3.384
11.9200,3.549
11.9600,3.486
12.0000,3.452
12.0400,3.514
12.0800,3.550
12.1200,3.314
12.1600,3.434
12.2000,3.344
12.2400,3.496
12.2800,3.426
12.3200,3.521
12.3600,3.475
12.4000,3.418
12.4400,3.459
12.4800,3.353
12.5200,3.481
12.5600,3.425
12.6000,3.303
12.6400,3.392
12.6800,3.488
12.7200,3.320
12.7600,3.431
12.8000,3.453
12.8400,3.478
12.8800,3.403
12.9200,3.419
12.9600,3.358
13.0000,3.423
13.0400,3.459
13.0800,3.416
13.1200,3.475
13.1600,3.369
13.2000,3.428
13.2400,3.395
13.2800,3.604
13.3200,3.423
13.3600,3.320
13.4000,3.354
13.4400,3.367
13.4800,3.187
13.5200,3.471
13.5600,3.507
13.6000,3.427
13.6400,3.368
13.6800,3.303
13.7200,3.283
13.7600,3.302
13.8000,3.359
13.8400,3.370
13.8800,3.322
13.9200,3.312
13.9600,3.238
14.0000,3.393
14.0400,3.239
14.0800,3.328
14.1200,3.373
14.1600,3.340
14.2000,3.202
14.2400,3.270
14.2800,3.334
14.3200,3.188
14.3600,3.175
14.4000,3.324
14.4400,3.374
14.4800,3.172
14.5200,3.163
14.5600,3.265
14.6000,3.287
14.6400,3.209
14.6800,3.208
14.7200,3.176
14.7600,3.188
14.8000,3.135
14.8400,3.148
14.8800,3.226
14.9200,3.091
14.9600,3.286
15.0000,3.168
15.0400,3.116
15.0800,3.138
15.1200,3.163
15.1600,3.095
15.2000,3.280
15.2400,3.205
15.2800,3.183
15.3200,3.208
15.3600,3.235
15.4000,3.120
15.4400,3.084
15.4800,3.186
15.5200,3.261
15.5600,3.226
15.6000,3.025
15.6400,3.124
15.6800,3.202
15.7200,3.239
15.7600,3.111
15.8000,3.087
15.8400,3.283
15.8800,3.076
15.9200,3.032
15.9600,3.136
16.0000,3.149
16.0400,3.058
16.0800,3.035
16.1200,3.203
16.1600,2.997
16.2000,3.237
16.2400,3.058
16.2800,3.150
16.3200,3.028
16.3600,3.044
16.4000,3.076
16.4400,3.045
16.4800,3.103
16.5200,3.081
16.5600,2.913
16.6000,2.942
16.6400,2.975
16.6800,2.979
16.7200,3.090
16.7600,3.044
16.8000,2.911
16.8400,2.966
16.8800,3.013
16.9200,3.156
16.9600,3.100
17.0000,2.946
17.0400,3.030
17.0800,2.982
17.1200,3.108
17.1600,3.009
17.2000,2.955
17.2400,2.961
17.2800,3.040
17.3200,2.939
17.3600,3.045
17.4000,3.015
17.4400,2.869
17.4800,2.953
17.5200,3.033
17.5600,2.940
17.6000,2.970
17.6400,3.031
17.6800,2.933
17.7200,3.047
17.7600,2.903
17.8000,2.832
17.8400,2.928
17.8800,2.885
17.9200,2.868
17.9600,2.933
18.0000,3.041
18.0400,2.988
18.0800,2.960
18.1200,2.977
18.1600,2.900
18.2000,2.883
18.2400,2.863
18.2800,2.862
18.3200,2.994
18.3600,2.864
18.4000,2.874
18.4400,2.793
18.4800,2.835
18.5200,2.864
18.5600,2.889
18.6000,2.927
18.6400,2.947
18.6800,2.824
18.7200,2.922
18.7600,2.832
18.8000,2.943
18.8400,2.821
18.8800,2.779
18.9200,2.765
18.9600,2.906
19.0000,2.733
19.0400,2.934
19.0800,2.947
19.1200,2.962
19.1600,2.804
19.2000,2.845
19.2400,2.775
19.2800,2.818
19.3200,2.784
19.3600,2.750
19.4000,2.830
19.4400,2.884
19.4800,2.705
19.5200,2.775
19.5600,2.802
19.6000,2.847
19.6400,2.828
19.6800,2.798
19.7200,2.745
19.7600,2.760
19.8000,2.818
19.8400,2.916
19.8800,2.826
19.9200,2.806
19.9600,2.748
20.0000,2.774
20.0400,2.765
20.0800,2.829
20.1200,2.739
20.1600,2.688
20.2000,2.766
20.2400,2.797
20.2800,2.729
20.3200,2.695
20.3600,2.737
20.4000,2.745
20.4400,2.715
20.4800,2.639
20.5200,2.645
20.5600,2.701
20.6000,2.740
20.6400,2.725
20.6800,2.676
20.7200,2.707
20.7600,2.640
20.8000,2.769
20.8400,2.734
20.8800,2.749
20.9200,2.635
20.9600,2.698
21.0000,2.710
21.0400,2.598
21.0800,2.788
21.1200,2.698
21.1600,2.668
21.2000,2.686
21.2400,2.747
21.2800,2.596
21.3200,2.678
21.3600,2.683
21.4000,2.592
21.4400,2.689
21.4800,2.664
21.5200,2.597
21.5600,2.610
21.6000,2.638
21.6400,2.603
21.6800,2.553
21.7200,2.633
21.7600,2.628
21.8000,2.556
21.8400,2.609
21.8800,2.656
21.9200,2.605
21.9600,2.501
22.0000,2.566
22.0400,2.647
22.0800,2.567
22.1200,2.621
22.1600,2.593
22.2000,2.539
22.2400,2.604
22.2800,2.604
22.3200,2.560
22.3600,2.608
22.4000,2.704
22.4400,2.710
22.4800,2.683
22.5200,2.626
22.5600,2.601
22.6000,2.520
22.6400,2.542
22.6800,2.551
22.7200,2.617
22.7600,2.565
22.8000,2.644
22.8400,2.569
22.8800,2.511
22.9200,2.454
22.9600,2.603
23.0000,2.518
23.0400,2.505
23.0800,2.514
23.1200,2.565
23.1600,2.564
23.2000,2.591
23.2400,2.581
23.2800,2.506
23.3200,2.545
23.3600,2.474
23.4000,2.625
23.4400,2.587
23.4800,2.518
23.5200,2.509
23.5600,2.455
23.6000,2.514
23.6400,2.498
23.6800,2.531
23.7200,2.641
23.7600,2.517
23.8000,2.563
23.8400,2.601
23.8800,2.514
23.9200,2.590
23.9600,2.610
24.0000,2.572
24.0400,2.586
24.0800,2.506
24.1200,2.430
24.1600,2.505
24.2000,2.492
24.2400,2.627
24.2800,2.578
24.3200,2.633
24.3600,2.445
24.4000,2.459
24.4400,2.546
24.4800,2.542
24.5200,2.409
24.5600,2.496
24.6000,2.499
24.6400,2.607
24.6800,2.475
24.7200,2.559
24.7600,2.479
24.8000,2.475
24.8400,2.471
24.8800,2.439
24.9200,2.485
24.9600,2.481
25.0000,2.473
25.0400,2.443
25.0800,2.446
25.1200,2.476
25.1600,2.570
25.2000,2.471
25.2400,2.483
25.2800,2.463
25.3200,2.431
25.3600,2.394
25.4000,2.367
25.4400,2.377
25.4800,2.351
25.5200,2.335
25.5600,2.281
25.6000,2.414
25.6400,2.325
25.6800,2.492
25.7200,2.448
25.7600,2.347
25.8000,2.376
25.8400,2.387
25.8800,2.343
25.9200,2.365
25.9600,2.367
26.0000,2.376
26.0400,2.282
26.0800,2.332
26.1200,2.279
26.1600,2.355
26.2000,2.418
26.2400,2.387
26.2800,2.341
26.3200,2.466
26.3600,2.354
26.4000,2.298
26.4400,2.273
26.4800,2.394
26.5200,2.327
26.5600,2.249
26.6000,2.166
26.6400,2.289
26.6800,2.344
26.7200,2.305
26.7600,2.271
26.8000,2.338
26.8400,2.255
26.8800,2.356
26.9200,2.342
26.9600,2.345
27.0000,2.289
27.0400,2.318
27.0800,2.285
27.1200,2.401
27.1600,2.320
27.2000,2.319
27.2400,2.295
27.2800,2.291
27.3200,2.190
27.3600,2.309
27.4000,2.314
27.4400,2.328
27.4800,2.236
27.5200,2.383
27.5600,2.258
27.6000,2.300
27.6400,2.351
27.6800,2.307
27.7200,2.392
27.7600,2.434
27.8000,2.425
27.8400,2.350
27.8800,2.453
27.9200,2.450
27.9600,2.491
28.0000,2.413
28.0400,2.622
28.0800,2.479
28.1200,2.457
28.1600,2.643
28.2000,2.617
28.2400,2.699
28.2800,2.653
28.3200,2.733
28.3600,2.939
28.4000,2.949
28.4400,3.223
28.4800,3.312
28.5200,3.590
28.5600,3.588
28.6000,3.710
28.6400,3.908
28.6800,4.278
28.7200,4.409
28.7600,4.736
28.8000,4.869
28.8400,5.058
28.8800,5.243
28.9200,5.304
28.9600,5.087
29.0000,4.994
29.0400,4.797
29.0800,4.276
29.1200,4.233
29.1600,4.041
29.2000,3.767
29.2400,3.375
29.2800,3.130
29.3200,3.068
29.3600,2.904
29.4000,2.676
29.4400,2.692
29.4800,2.753
29.5200,2.495
29.5600,2.535
29.6000,2.356
29.6400,2.269
29.6800,2.262
29.7200,2.265
29.7600,2.230
29.8000,2.211
29.8400,2.247
29.8800,2.231
29.9200,2.261
29.9600,2.191
30.0000,2.121
30.0400,2.157
30.0800,2.209
30.1200,2.190
30.1600,2.144
30.2000,2.151
30.2400,2.062
30.2800,2.175
30.3200,2.067
30.3600,2.075
30.4000,2.062
30.4400,2.029
30.4800,2.039
30.5200,2.104
30.5600,2.175
30.6000,2.117
30.6400,2.077
30.6800,2.062
30.7200,2.132
30.7600,2.032
30.8000,2.145
30.8400,2.075
30.8800,2.138
30.9200,2.095
30.9600,2.062
31.0000,2.099
31.0400,2.145
31.0800,2.066
31.1200,2.120
31.1600,2.265
31.2000,2.103
31.2400,2.126
31.2800,2.150
31.3200,2.193
31.3600,2.209
31.4000,2.302
31.4400,2.342
31.4800,2.446
31.5200,2.309
31.5600,2.353
31.6000,2.512
31.6400,2.570
31.6800,2.478
31.7200,2.565
31.7600,2.631
31.8000,2.559
31.8400,2.699
31.8800,2.634
31.9200,2.794
31.9600,2.747
32.0000,2.712
32.0400,2.513
32.0800,2.450
32.1200,2.671
32.1600,2.593
32.2000,2.484
32.2400,2.514
32.2800,2.378
32.3200,2.372
32.3600,2.204
32.4000,2.242
32.4400,2.284
32.4800,2.238
32.5200,2.213
32.5600,2.081
32.6000,2.080
32.6400,2.153
32.6800,2.091
32.7200,2.089
32.7600,1.971
32.8000,2.116
32.8400,1.979
32.8800,2.033
32.9200,1.998
32.9600,2.029
33.0000,2.051
33.0400,1.938
33.0800,1.948
33.1200,1.948
33.1600,1.937
33.2000,1.984
33.2400,1.852
33.2800,1.908
33.3200,1.969
33.3600,1.897
33.4000,1.997
33.4400,1.921
33.4800,1.873
33.5200,2.003
33.5600,1.997
33.6000,1.999
33.6400,2.006
33.6800,1.961
33.7200,2.001
33.7600,2.024
33.8000,2.014
33.8400,2.118
33.8800,2.099
33.9200,2.113
33.9600,2.128
34.0000,2.194
34.0400,2.067
34.0800,2.163
34.1200,2.219
34.1600,2.368
34.2000,2.381
34.2400,2.352
34.2800,2.379
34.3200,2.254
34.3600,2.346
34.4000,2.445
34.4400,2.449
34.4800,2.343
34.5200,2.439
34.5600,2.435
34.6000,2.436
34.6400,2.387
34.6800,2.265
34.7200,2.337
34.7600,2.261
34.8000,2.348
34.8400,2.261
34.8800,2.236
34.9200,2.287
34.9600,2.107
35.0000,2.124
35.0400,2.208
35.0800,2.047
35.1200,2.149
35.1600,2.180
35.2000,2.075
35.2400,2.063
35.2800,2.000
35.3200,2.016
35.3600,2.007
35.4000,2.068
35.4400,2.147
35.4800,2.137
35.5200,2.210
35.5600,2.255
35.6000,2.127
35.6400,2.179
35.6800,2.193
35.7200,2.221
35.7600,2.237
35.8000,2.241
35.8400,2.291
35.8800,2.421
35.9200,2.368
35.9600,2.534
36.0000,2.530
36.0400,2.648
36.0800,2.680
36.1200,2.530
36.1600,2.542
36.2000,2.683
36.2400,2.605
36.2800,2.775
36.3200,2.797
36.3600,2.604
36.4000,2.825
36.4400,2.701
36.4800,2.798
36.5200,2.707
36.5600,2.679
36.6000,2.678
36.6400,2.722
36.6800,2.419
36.7200,2.486
36.7600,2.451
36.8000,2.410
36.8400,2.419
36.8800,2.194
36.9200,2.325
36.9600,2.213
37.0000,2.011
37.0400,2.193
37.0800,2.170
37.1200,1.977
37.1600,1.979
37.2000,1.910
37.2400,2.064
37.2800,1.936
37.3200,1.887
37.3600,1.974
37.4000,1.838
37.4400,1.851
37.4800,1.862
37.5200,1.849
37.5600,1.854
37.6000,1.825
37.6400,1.887
37.6800,1.811
37.7200,1.697
37.7600,1.818
37.8000,1.777
37.8400,1.730
37.8800,1.730
37.9200,1.724
37.9600,1.719
38.0000,1.746
38.0400,1.669
38.0800,1.759
38.1200,1.715
38.1600,1.759
38.2000,1.794
38.2400,1.666
38.2800,1.648
38.3200,1.706
38.3600,1.718
38.4000,1.710
38.4400,1.758
38.4800,1.682
38.5200,1.729
38.5600,1.746
38.6000,1.638
38.6400,1.756
38.6800,1.811
38.7200,1.620
38.7600,1.694
38.8000,1.734
38.8400,1.787
38.8800,1.697
38.9200,1.776
38.9600,1.735
39.0000,1.677
39.0400,1.728
39.0800,1.743
39.1200,1.804
39.1600,1.847
39.2000,1.693
39.2400,1.764
39.2800,1.752
39.3200,1.844
39.3600,1.778
39.4000,1.804
39.4400,1.859
39.4800,1.933
39.5200,2.000
39.5600,1.935
39.6000,1.981
39.6400,1.818
39.6800,1.936
39.7200,1.923
39.7600,1.979
39.8000,1.986
39.8400,2.120
39.8800,2.052
39.9200,2.068
39.9600,2.246
40.0000,2.166
40.0400,2.305
40.0800,2.321
40.1200,2.313
40.1600,2.438
40.2000,2.521
40.2400,2.658
40.2800,2.620
40.3200,2.677
40.3600,2.910
40.4000,3.033
40.4400,3.151
40.4800,3.277
40.5200,3.594
40.5600,3.657
40.6000,4.112
40.6400,4.421
40.6800,4.777
40.7200,5.165
40.7600,5.558
40.8000,6.327
40.8400,6.797
40.8800,7.853
40.9200,8.676
40.9600,9.755
41.0000,10.866
41.0400,12.248
41.0800,13.286
41.1200,14.491
41.1600,15.419
41.2000,15.672
41.2400,15.696
41.2800,15.427
41.3200,14.352
41.3600,12.898
41.4000,11.810
41.4400,10.443
41.4800,9.048
41.5200,7.627
41.5600,6.815
41.6000,5.896
41.6400,5.236
41.6800,4.630
41.7200,4.239
41.7600,3.783
41.8000,3.685
41.8400,3.372
41.8800,3.159
41.9200,2.982
41.9600,2.817
42.0000,2.653
42.0400,2.441
42.0800,2.420
42.1200,2.392
42.1600,2.329
42.2000,2.180
42.2400,2.221
42.2800,2.021
42.3200,2.014
42.3600,2.033
42.4000,1.914
42.4400,1.896
42.4800,1.919
42.5200,1.753
42.5600,1.741
42.6000,1.732
42.6400,1.733
42.6800,1.752
42.7200,1.704
42.7600,1.616
42.8000,1.670
42.8400,1.642
42.8800,1.589
42.9200,1.595
42.9600,1.587
43.0000,1.556
43.0400,1.413
43.0800,1.543
43.1200,1.577
43.1600,1.482
43.2000,1.541
43.2400,1.402
43.2800,1.452
43.3200,1.402
43.3600,1.465
43.4000,1.482
43.4400,1.428
43.4800,1.460
43.5200,1.373
43.5600,1.355
43.6000,1.312
43.6400,1.330
43.6800,1.431
43.7200,1.332
43.7600,1.289
43.8000,1.292
43.8400,1.318
43.8800,1.320
43.9200,1.340
43.9600,1.324
44.0000,1.318
44.0400,1.258
44.0800,1.379
44.1200,1.364
44.1600,1.342
44.2000,1.236
44.2400,1.196
44.2800,1.268
44.3200,1.288
44.3600,1.241
44.4000,1.296
44.4400,1.265
44.4800,1.238
44.5200,1.226
44.5600,1.298
44.6000,1.214
44.6400,1.250
44.6800,1.208
44.7200,1.211
44.7600,1.199
44.8000,1.195
44.8400,1.250
44.8800,1.226
44.9200,1.229
44.9600,1.179
45.0000,1.222
45.0400,1.228
45.0800,1.201
45.1200,1.233
45.1600,1.287
45.2000,1.162
45.2400,1.263
45.2800,1.259
45.3200,1.161
45.3600,1.169
45.4000,1.153
45.4400,1.141
45.4800,1.201
45.5200,1.200
45.5600,1.193
45.6000,1.138
45.6400,1.133
45.6800,1.174
45.7200,1.233
45.7600,1.219
45.8000,1.166
45.8400,1.167
45.8800,1.178
45.9200,1.153
45.9600,1.152
46.0000,1.206
46.0400,1.171
46.0800,1.153
46.1200,1.227
46.1600,1.132
46.2000,1.168
46.2400,1.177
46.2800,1.149
46.3200,1.147
46.3600,1.182
46.4000,1.224
46.4400,1.224
46.4800,1.166
46.5200,1.165
46.5600,1.164
46.6000,1.194
46.6400,1.173
46.6800,1.130
46.7200,1.134
46.7600,1.204
46.8000,1.197
46.8400,1.167
46.8800,1.216
46.9200,1.229
46.9600,1.233
47.0000,1.137
47.0400,1.269
47.0800,1.150
47.1200,1.196
47.1600,1.148
47.2000,1.151
47.2400,1.171
47.2800,1.178
47.3200,1.194
47.3600,1.138
47.4000,1.184
47.4400,1.224
47.4800,1.124
47.5200,1.216
47.5600,1.197
47.6000,1.218
47.6400,1.145
47.6800,1.124
47.7200,1.240
47.7600,1.225
47.8000,1.221
47.8400,1.188
47.8800,1.113
47.9200,1.197
47.9600,1.187
48.0000,1.129
48.0400,1.125
48.0800,1.208
48.1200,0.973
48.1600,1.084
48.2000,1.150
48.2400,1.191
48.2800,1.129
48.3200,1.172
48.3600,1.177
48.4000,1.093
48.4400,1.115
48.4800,1.137
48.5200,1.071
48.5600,1.042
48.6000,1.089
48.6400,1.075
48.6800,1.119
48.7200,1.119
48.7600,1.035
48.8000,1.079
48.8400,1.069
48.8800,1.093
48.9200,1.082
48.9600,1.079
49.0000,1.047
49.0400,1.012
49.0800,1.044
49.1200,1.054
49.1600,1.016
49.2000,0.954
49.2400,1.094
49.2800,1.044
49.3200,1.053
49.3600,0.985
49.4000,0.984
49.4400,1.012
49.4800,0.988
49.5200,0.981
49.5600,1.043
49.6000,0.974
49.6400,0.961
49.6800,0.961
49.7200,1.003
49.7600,0.976
49.8000,0.956
49.8400,0.994
49.8800,1.017
49.9200,1.024
49.9600,0.989
50.0000,0.965
50.0400,1.006
50.0800,1.098
50.1200,0.997
50.1600,1.002
50.2000,1.112
50.2400,1.006
50.2800,1.020
50.3200,0.996
50.3600,1.121
50.4000,1.109
50.4400,1.063
50.4800,1.080
50.5200,1.101
50.5600,1.175
50.6000,1.147
50.6400,1.225
50.6800,1.318
50.7200,1.357
50.7600,1.494
50.8000,1.530
50.8400,1.596
50.8800,1.761
50.9200,1.838
50.9600,1.911
51.0000,1.840
51.0400,1.938
51.0800,1.822
51.1200,1.618
51.1600,1.638
51.2000,1.534
51.2400,1.447
51.2800,1.298
51.3200,1.241
51.3600,1.177
51.4000,1.156
51.4400,1.066
51.4800,1.077
51.5200,1.021
51.5600,0.999
51.6000,0.977
51.6400,0.995
51.6800,0.976
51.7200,0.923
51.7600,0.898
51.8000,1.008
51.8400,0.964
51.8800,1.029
51.9200,0.912
51.9600,0.843
52.0000,0.917
52.0400,0.984
52.0800,0.906
52.1200,0.936
52.1600,0.990
52.2000,0.855
52.2400,0.855
52.2800,0.868
52.3200,0.844
52.3600,0.840
52.4000,0.881
52.4400,0.849
52.4800,0.855
52.5200,0.832
52.5600,0.837
52.6000,0.853
52.6400,0.853
52.6800,0.877
52.7200,0.845
52.7600,0.770
52.8000,0.831
52.8400,0.877
52.8800,0.845
52.9200,0.895
52.9600,0.826
53.0000,0.880
53.0400,0.811
53.0800,0.868
53.1200,0.879
53.1600,0.899
53.2000,0.830
53.2400,0.840
53.2800,0.823
53.3200,0.872
53.3600,0.888
53.4000,0.875
53.4400,0.770
53.4800,0.768
53.5200,0.873
53.5600,0.835
53.6000,0.790
53.6400,0.761
53.6800,0.808
53.7200,0.813
53.7600,0.852
53.8000,0.815
53.8400,0.806
53.8800,0.815
53.9200,0.793
53.9600,0.824
54.0000,0.874
54.0400,0.854
54.0800,0.797
54.1200,0.806
54.1600,0.774
54.2000,0.778
54.2400,0.787
54.2800,0.797
54.3200,0.795
54.3600,0.827
54.4000,0.854
54.4400,0.840
54.4800,0.739
54.5200,0.773
54.5600,0.810
54.6000,0.791
54.6400,0.791
54.6800,0.701
54.7200,0.766
54.7600,0.742
54.8000,0.738
54.8400,0.795
54.8800,0.831
54.9200,0.757
54.9600,0.756
55.0000,0.779
55.0400,0.785
55.0800,0.830
55.1200,0.846
55.1600,0.744
55.2000,0.795
55.2400,0.789
55.2800,0.860
55.3200,0.805
55.3600,0.815
55.4000,0.852
55.4400,0.841
55.4800,0.827
55.5200,0.739
55.5600,0.773
55.6000,0.831
55.6400,0.854
55.6800,0.846
55.7200,0.822
55.7600,0.907
55.8000,0.849
55.8400,0.836
55.8800,0.892
55.9200,0.858
55.9600,0.927
56.0000,0.952
56.0400,0.880
56.0800,0.832
56.1200,0.879
56.1600,0.871
56.2000,0.883
56.2400,0.973
56.2800,1.007
56.3200,0.942
56.3600,0.986
56.4000,0.989
56.4400,1.069
56.4800,1.062
56.5200,1.035
56.5600,1.107
56.6000,1.023
56.6400,1.173
56.6800,1.108
56.7200,1.108
56.7600,1.055
56.8000,1.057
56.8400,1.062
56.8800,1.164
56.9200,1.019
56.9600,1.134
57.0000,1.046
57.0400,1.034
57.0800,1.083
57.1200,0.994
57.1600,1.036
57.2000,1.007
57.2400,0.976
57.2800,1.003
57.3200,0.965
57.3600,0.896
57.4000,0.872
57.4400,0.939
57.4800,0.905
57.5200,0.904
57.5600,0.935
57.6000,0.867
57.6400,0.862
57.6800,0.873
57.7200,0.897
57.7600,0.844
57.8000,0.841
57.8400,0.832
57.8800,0.805
57.9200,0.763
57.9600,0.894
58.0000,0.880
58.0400,0.835
58.0800,0.855
58.1200,0.860
58.1600,0.895
58.2000,0.818
58.2400,0.842
58.2800,0.856
58.3200,0.837
58.3600,0.789
58.4000,0.814
58.4400,0.790
58.4800,0.772
58.5200,0.855
58.5600,0.836
58.6000,0.873
58.6400,0.878
58.6800,0.895
58.7200,0.845
58.7600,0.887
58.8000,0.894
58.8400,0.888
58.8800,0.895
58.9200,0.924
58.9600,1.018
59.0000,0.900
59.0400,0.972
59.0800,1.048
59.1200,1.071
59.1600,0.999
59.2000,1.075
59.2400,1.125
59.2800,1.130
59.3200,1.183
59.3600,1.161
59.4000,1.189
59.4400,1.190
59.4800,1.274
59.5200,1.314
59.5600,1.402
59.6000,1.367
59.6400,1.387
59.6800,1.423
59.7200,1.435
59.7600,1.449
59.8000,1.344
59.8400,1.341
59.8800,1.345
59.9200,1.484
59.9600,1.401
60.0000,1.453
60.0400,1.364
60.0800,1.386
60.1200,1.346
60.1600,1.320
60.2000,1.297
60.2400,1.286
60.2800,1.239
60.3200,1.170
60.3600,1.139
60.4000,1.064
60.4400,1.098
60.4800,1.063
60.5200,1.098
60.5600,0.979
60.6000,1.005
60.6400,1.012
60.6800,0.932
60.7200,0.921
60.7600,0.851
60.8000,0.878
60.8400,0.916
60.8800,0.839
60.9200,0.796
60.9600,0.857
61.0000,0.835
61.0400,0.768
61.0800,0.785
61.1200,0.749
61.1600,0.744
61.2000,0.719
61.2400,0.758
61.2800,0.781
61.3200,0.704
61.3600,0.688
61.4000,0.689
61.4400,0.772
61.4800,0.728
61.5200,0.736
61.5600,0.705
61.6000,0.739
61.6400,0.769
61.6800,0.845
61.7200,0.850
61.7600,0.775
61.8000,0.782
61.8400,0.761
61.8800,0.746
61.9200,0.764
61.9600,0.744
62.0000,0.755
62.0400,0.725
62.0800,0.734
62.1200,0.725
62.1600,0.749
62.2000,0.740
62.2400,0.805
62.2800,0.800
62.3200,0.716
62.3600,0.715
62.4000,0.770
62.4400,0.792
62.4800,0.802
62.5200,0.734
62.5600,0.870
62.6000,0.796
62.6400,0.791
62.6800,0.811
62.7200,0.802
62.7600,0.753
62.8000,0.789
62.8400,0.796
62.8800,0.815
62.9200,0.813
62.9600,0.843
63.0000,0.835
63.0400,0.810
63.0800,0.756
63.1200,0.755
63.1600,0.780
63.2000,0.775
63.2400,0.813
63.2800,0.768
63.3200,0.797
63.3600,0.818
63.4000,0.800
63.4400,0.788
63.4800,0.774
63.5200,0.782
63.5600,0.751
63.6000,0.777
63.6400,0.729
63.6800,0.752
63.7200,0.725
63.7600,0.664
63.8000,0.704
63.8400,0.707
63.8800,0.716
63.9200,0.709
63.9600,0.704
64.0000,0.690
64.0400,0.664
64.0800,0.666
64.1200,0.744
64.1600,0.636
64.2000,0.669
64.2400,0.662
64.2800,0.634
64.3200,0.700
64.3600,0.648
64.4000,0.687
64.4400,0.633
64.4800,0.669
64.5200,0.662
64.5600,0.637
64.6000,0.662
64.6400,0.642
64.6800,0.714
64.7200,0.636
64.7600,0.622
64.8000,0.675
64.8400,0.680
64.8800,0.606
64.9200,0.637
64.9600,0.689
65.0000,0.713
65.0400,0.725
65.0800,0.637
65.1200,0.691
65.1600,0.694
65.2000,0.700
65.2400,0.700
65.2800,0.707
65.3200,0.702
65.3600,0.715
65.4000,0.737
65.4400,0.705
65.4800,0.686
65.5200,0.762
65.5600,0.741
65.6000,0.792
65.6400,0.751
65.6800,0.715
65.7200,0.676
65.7600,0.797
65.8000,0.768
65.8400,0.743
65.8800,0.818
65.9200,0.788
65.9600,0.811
66.0000,0.770
66.0400,0.774
66.0800,0.801
66.1200,0.817
66.1600,0.826
66.2000,0.841
66.2400,0.840
66.2800,0.880
66.3200,0.847
66.3600,0.861
66.4000,0.841
66.4400,0.926
66.4800,0.859
66.5200,0.912
66.5600,0.949
66.6000,0.965
66.6400,1.009
66.6800,1.053
66.7200,1.030
66.7600,1.068
66.8000,1.110
66.8400,1.110
66.8800,1.110
66.9200,1.086
66.9600,1.193
67.0000,1.188
67.0400,1.204
67.0800,1.183
67.1200,1.328
67.1600,1.244
67.2000,1.368
67.2400,1.459
67.2800,1.445
67.3200,1.429
67.3600,1.480
67.4000,1.520
67.4400,1.592
67.4800,1.582
67.5200,1.497
67.5600,1.665
67.6000,1.627
67.6400,1.765
67.6800,1.787
67.7200,1.723
67.7600,1.755
67.8000,1.856
67.8400,1.899
67.8800,1.878
67.9200,1.895
67.9600,1.792
68.0000,1.834
68.0400,1.920
68.0800,1.811
68.1200,1.841
68.1600,1.928
68.2000,1.885
68.2400,1.980
68.2800,2.011
68.3200,2.082
68.3600,2.085
68.4000,2.102
68.4400,2.053
68.4800,2.051
68.5200,2.236
68.5600,2.212
68.6000,2.473
68.6400,2.666
68.6800,2.641
68.7200,2.865
68.7600,3.719
68.8000,4.579
68.8400,5.480
68.8800,6.118
68.9200,5.936
68.9600,6.731
69.0000,8.767
69.0400,13.057
69.0800,25.011
69.1200,79.740
69.1600,286.327
69.2000,345.525
69.2400,139.536
69.2800,45.503
69.3200,60.014
69.3600,156.386
69.4000,171.628
69.4400,68.375
69.4800,20.116
69.5200,10.530
69.5600,7.267
69.6000,5.714
69.6400,4.878
69.6800,3.963
69.7200,3.644
69.7600,3.144
69.8000,3.065
69.8400,2.684
69.8800,2.466
69.9200,2.402
69.9600,2.261
70.0000,2.192
70.0400,2.087
70.0800,1.990
70.1200,1.963
70.1600,1.867
70.2000,1.771
70.2400,1.699
70.2800,1.665
70.3200,1.652
70.3600,1.536
70.4000,1.588
70.4400,1.483
70.4800,1.412
70.5200,1.351
70.5600,1.281
70.6000,1.328
70.6400,1.339
70.6800,1.231
70.7200,1.225
70.7600,1.233
70.8000,1.212
70.8400,1.175
70.8800,1.125
70.9200,1.148
70.9600,1.158
71.0000,1.122
71.0400,1.026
71.0800,1.072
71.1200,1.063
71.1600,0.978
71.2000,1.015
71.2400,1.034
71.2800,0.923
71.3200,0.951
71.3600,0.926
71.4000,0.888
71.4400,0.941
71.4800,0.912
71.5200,0.912
71.5600,0.843
71.6000,0.820
71.6400,0.865
71.6800,0.797
71.7200,0.826
71.7600,0.782
71.8000,0.787
71.8400,0.793
71.8800,0.817
71.9200,0.759
71.9600,0.784
72.0000,0.719
72.0400,0.732
72.0800,0.726
72.1200,0.727
72.1600,0.785
72.2000,0.742
72.2400,0.755
72.2800,0.684
72.3200,0.730
72.3600,0.758
72.4000,0.674
72.4400,0.710
72.4800,0.676
72.5200,0.743
72.5600,0.692
72.6000,0.648
72.6400,0.713
72.6800,0.637
72.7200,0.689
72.7600,0.698
72.8000,0.705
72.8400,0.668
72.8800,0.618
72.9200,0.624
72.9600,0.700
73.0000,0.646
73.0400,0.662
73.0800,0.734
73.1200,0.624
73.1600,0.677
73.2000,0.622
73.2400,0.677
73.2800,0.629
73.3200,0.687
73.3600,0.659
73.4000,0.683
73.4400,0.722
73.4800,0.646
73.5200,0.633
73.5600,0.663
73.6000,0.630
73.6400,0.694
73.6800,0.686
73.7200,0.682
73.7600,0.718
73.8000,0.753
73.8400,0.688
73.8800,0.726
73.9200,0.704
73.9600,0.766
74.0000,0.778
74.0400,0.831
74.0800,0.836
74.1200,0.903
74.1600,0.861
74.2000,0.893
74.2400,0.936
74.2800,0.953
74.3200,0.963
74.3600,1.029
74.4000,1.101
74.4400,1.144
74.4800,1.169
74.5200,1.276
74.5600,1.285
74.6000,1.298
74.6400,1.402
74.6800,1.455
74.7200,1.631
74.7600,1.674
74.8000,1.783
74.8400,1.820
74.8800,1.870
74.9200,1.845
74.9600,1.917
75.0000,2.014
75.0400,1.812
75.0800,2.020
75.1200,1.860
75.1600,1.842
75.2000,1.790
75.2400,1.735
75.2800,1.788
75.3200,1.632
75.3600,1.550
75.4000,1.528
75.4400,1.347
75.4800,1.279
75.5200,1.231
75.5600,1.155
75.6000,1.109
75.6400,1.044
75.6800,0.999
75.7200,0.953
75.7600,0.896
75.8000,0.887
75.8400,0.825
75.8800,0.800
75.9200,0.680
75.9600,0.779
76.0000,0.668
76.0400,0.665
76.0800,0.684
76.1200,0.665
76.1600,0.616
76.2000,0.631
76.2400,0.618
76.2800,0.599
76.3200,0.638
76.3600,0.635
76.4000,0.577
76.4400,0.595
76.4800,0.573
76.5200,0.581
76.5600,0.499
76.6000,0.542
76.6400,0.565
76.6800,0.497
76.7200,0.495
76.7600,0.486
76.8000,0.549
76.8400,0.516
76.8800,0.468
76.9200,0.605
76.9600,0.452
77.0000,0.462
77.0400,0.537
77.0800,0.502
77.1200,0.501
77.1600,0.494
77.2000,0.515
77.2400,0.513
77.2800,0.543
77.3200,0.448
77.3600,0.448
77.4000,0.472
77.4400,0.491
77.4800,0.481
77.5200,0.497
77.5600,0.476
77.6000,0.479
77.6400,0.430
77.6800,0.442
77.7200,0.459
77.7600,0.459
77.8000,0.459
77.8400,0.438
77.8800,0.403
77.9200,0.402
77.9600,0.464
78.0000,0.409
78.0400,0.446
78.0800,0.399
78.1200,0.393
78.1600,0.432
78.2000,0.445
78.2400,0.423
78.2800,0.404
78.3200,0.450
78.3600,0.438
78.4000,0.435
78.4400,0.436
78.4800,0.415
78.5200,0.412
78.5600,0.425
78.6000,0.393
78.6400,0.427
78.6800,0.419
78.7200,0.446
78.7600,0.447
78.8000,0.420
78.8400,0.430
78.8800,0.454
78.9200,0.387
78.9600,0.400
79.0000,0.390
79.0400,0.411
79.0800,0.417
79.1200,0.398
79.1600,0.397
79.2000,0.409
79.2400,0.411
79.2800,0.401
79.3200,0.382
79.3600,0.418
79.4000,0.414
79.4400,0.447
79.4800,0.411
79.5200,0.376
79.5600,0.410
79.6000,0.399
79.6400,0.400
79.6800,0.388
79.7200,0.399
79.7600,0.378
79.8000,0.408
79.8400,0.376
79.8800,0.424
79.9200,0.401
79.9600,0.413
80.0000,0.407
