theta,intensity
5.0000,5.751
5.0400,5.825
5.0800,5.718
5.1200,5.576
5.1600,5.778
5.2000,5.561
5.2400,5.495
5.2800,5.436
5.3200,5.598
5.3600,5.471
5.4000,5.457
5.4400,5.439
5.4800,5.481
5.5200,5.381
5.5600,5.481
5.6000,5.198
5.6400,5.072
5.6800,5.082
5.7200,4.985
5.7600,4.948
5.8000,4.955
5.8400,4.788
5.8800,4.743
5.9200,4.620
5.9600,4.714
6.0000,4.679
6.0400,4.605
6.0800,4.534
6.1200,4.562
6.1600,4.517
6.2000,4.488
6.2400,4.531
6.2800,4.543
6.3200,4.415
6.3600,4.482
6.4000,4.467
6.4400,4.410
6.4800,4.377
6.5200,4.316
6.5600,4.404
6.6000,4.337
6.6400,4.110
6.6800,4.151
6.7200,4.256
6.7600,4.217
6.8000,4.264
6.8400,4.206
6.8800,4.232
6.9200,4.193
6.9600,4.201
7.0000,4.142
7.0400,4.156
7.0800,4.097
7.1200,4.119
7.1600,4.077
7.2000,4.064
7.2400,4.161
7.2800,4.103
7.3200,4.007
7.3600,4.004
7.4000,4.056
7.4400,4.042
7.4800,4.081
7.5200,4.061
7.5600,4.008
7.6000,3.971
7.6400,3.899
7.6800,4.015
7.7200,3.959
7.7600,3.949
7.8000,4.007
7.8400,3.986
7.8800,4.085
7.9200,4.041
7.9600,3.887
8.0000,3.804
8.0400,3.923
8.0800,3.937
8.1200,3.800
8.1600,3.868
8.2000,3.893
8.2400,3.950
8.2800,3.976
8.3200,3.855
8.3600,3.871
8.4000,3.815
8.4400,3.802
8.4800,3.825
8.5200,3.805
8.5600,3.771
8.6000,3.923
8.6400,3.847
8.6800,3.841
8.7200,3.870
8.7600,3.829
8.8000,3.660
8.8400,3.766
8.8800,3.765
8.9200,3.844
8.9600,3.825
9.0000,3.763
9.0400,3.825
9.0800,3.755
9.1200,3.790
9.1600,3.659
9.2000,3.715
9.2400,3.731
9.2800,3.753
9.3200,3.731
9.3600,3.836
9.4000,3.735
9.4400,3.701
9.4800,3.697
9.5200,3.728
9.5600,3.727
9.6000,3.772
9.6400,3.732
9.6800,3.609
9.7200,3.715
9.7600,3.676
9.8000,3.675
9.8400,3.647
9.8800,3.659
9.9200,3.833
9.9600,3.649
10.0000,3.672
10.0400,3.752
10.0800,3.710
10.1200,3.618
10.1600,3.673
10.2000,3.697
10.2400,3.689
10.2800,3.668
10.3200,3.657
10.3600,3.690
10.4000,3.544
10.4400,3.603
10.4800,3.653
10.5200,3.594
10.5600,3.550
10.6000,3.679
10.6400,3.565
10.6800,3.614
10.7200,3.689
10.7600,3.574
10.8000,3.496
10.8400,3.477
10.8800,3.495
10.9200,3.687
10.9600,3.629
11.0000,3.667
11.0400,3.628
11.0800,3.538
11.1200,3.565
11.1600,3.539
11.2000,3.563
11.2400,3.542
11.2800,3.582
11.3200,3.458
11.3600,3.395
11.4000,3.568
11.4400,3.578
11.4800,3.559
11.5200,3.511
11.5600,3.443
11.6000,3.575
11.6400,3.512
11.6800,3.436
11.7200,3.503
11.7600,3.496
11.8000,3.530
11.8400,3.573
11.8800,3.386
11.9200,3.485
11.9600,3.500
12.0000,3.559
12.0400,3.476
12.0800,3.361
12.1200,3.396
12.1600,3.373
12.2000,3.319
12.2400,3.490
12.2800,3.462
12.3200,3.417
12.3600,3.383
12.4000,3.386
12.4400,3.461
12.4800,3.464
12.5200,3.478
12.5600,3.322
12.6000,3.426
12.6400,3.455
12.6800,3.425
12.7200,3.372
12.7600,3.346
12.8000,3.482
12.8400,3.308
12.8800,3.366
12.9200,3.449
12.9600,3.350
13.0000,3.423
13.0400,3.379
13.0800,3.388
13.1200,3.390
13.1600,3.335
13.2000,3.412
13.2400,3.305
13.2800,3.340
13.3200,3.259
13.3600,3.274
13.4000,3.366
13.4400,3.309
13.4800,3.247
13.5200,3.330
13.5600,3.271
13.6000,3.366
13.6400,3.363
13.6800,3.336
13.7200,3.297
13.7600,3.319
13.8000,3.206
13.8400,3.381
13.8800,3.386
13.9200,3.275
13.9600,3.308
14.0000,3.231
14.0400,3.342
14.0800,3.185
14.1200,3.259
14.1600,3.319
14.2000,3.181
14.2400,3.271
14.2800,3.352
14.3200,3.303
14.3600,3.333
14.4000,3.176
14.4400,3.149
14.4800,3.210
14.5200,3.174
14.5600,3.232
14.6000,3.233
14.6400,3.317
14.6800,3.243
14.7200,3.211
14.7600,3.212
14.8000,3.134
14.8400,3.118
14.8800,3.212
14.9200,3.169
14.9600,3.155
15.0000,3.129
15.0400,3.167
15.0800,3.115
15.1200,3.178
15.1600,3.235
15.2000,3.148
15.2400,3.180
15.2800,3.206
15.3200,3.177
15.3600,3.175
15.4000,3.117
15.4400,3.192
15.4800,3.043
15.5200,3.151
15.5600,3.236
15.6000,3.109
15.6400,3.107
15.6800,3.069
15.7200,3.115
15.7600,3.104
15.8000,3.149
15.8400,3.104
15.8800,3.052
15.9200,3.116
15.9600,3.171
16.0000,3.057
16.0400,2.997
16.0800,3.097
16.1200,3.144
16.1600,3.198
16.2000,3.057
16.2400,2.995
16.2800,3.072
16.3200,3.057
16.3600,3.079
16.4000,3.077
16.4400,3.064
16.4800,3.044
16.5200,3.047
16.5600,3.005
16.6000,3.025
16.6400,3.078
16.6800,3.049
16.7200,3.051
16.7600,3.051
16.8000,3.060
16.8400,3.040
16.8800,3.053
16.9200,2.934
16.9600,2.947
17.0000,3.027
17.0400,2.991
17.0800,3.009
17.1200,2.863
17.1600,2.948
17.2000,3.055
17.2400,2.997
17.2800,2.979
17.3200,3.015
17.3600,2.931
17.4000,2.956
17.4400,2.923
17.4800,2.974
17.5200,2.954
17.5600,2.967
17.6000,2.915
17.6400,2.937
17.6800,2.944
17.7200,2.969
17.7600,2.908
17.8000,2.975
17.8400,2.929
17.8800,2.889
17.9200,2.955
17.9600,2.975
18.0000,2.918
18.0400,2.925
18.0800,3.001
18.1200,2.858
18.1600,2.928
18.2000,2.830
18.2400,2.897
18.2800,2.833
18.3200,2.798
18.3600,2.819
18.4000,2.939
18.4400,2.919
18.4800,2.869
18.5200,2.892
18.5600,2.951
18.6000,2.906
18.6400,2.859
18.6800,2.834
18.7200,2.810
18.7600,2.820
18.8000,2.891
18.8400,2.863
18.8800,2.806
18.9200,2.757
18.9600,2.812
19.0000,2.767
19.0400,2.815
19.0800,2.811
19.1200,2.816
19.1600,2.726
19.2000,2.829
19.2400,2.872
19.2800,2.910
19.3200,2.782
19.3600,2.818
19.4000,2.688
19.4400,2.797
19.4800,2.735
19.5200,2.812
19.5600,2.763
19.6000,2.754
19.6400,2.862
19.6800,2.833
19.7200,2.707
19.7600,2.729
19.8000,2.874
19.8400,2.732
19.8800,2.778
19.9200,2.791
19.9600,2.823
20.0000,2.774
20.0400,2.700
20.0800,2.739
20.1200,2.692
20.1600,2.687
20.2000,2.779
20.2400,2.739
20.2800,2.721
20.3200,2.651
20.3600,2.736
20.4000,2.718
20.4400,2.731
20.4800,2.680
20.5200,2.668
20.5600,2.675
20.6000,2.719
20.6400,2.653
20.6800,2.669
20.7200,2.654
20.7600,2.636
20.8000,2.779
20.8400,2.695
20.8800,2.648
20.9200,2.624
20.9600,2.658
21.0000,2.677
21.0400,2.622
21.0800,2.584
21.1200,2.658
21.1600,2.547
21.2000,2.619
21.2400,2.717
21.2800,2.629
21.3200,2.574
21.3600,2.742
21.4000,2.602
21.4400,2.694
21.4800,2.565
21.5200,2.680
21.5600,2.497
21.6000,2.573
21.6400,2.595
21.6800,2.525
21.7200,2.566
21.7600,2.550
21.8000,2.656
21.8400,2.574
21.8800,2.523
21.9200,2.595
21.9600,2.534
22.0000,2.583
22.0400,2.591
22.0800,2.533
22.1200,2.467
22.1600,2.503
22.2000,2.532
22.2400,2.489
22.2800,2.470
22.3200,2.491
22.3600,2.545
22.4000,2.477
22.4400,2.574
22.4800,2.584
22.5200,2.560
22.5600,2.524
22.6000,2.525
22.6400,2.552
22.6800,2.431
22.7200,2.462
22.7600,2.563
22.8000,2.442
22.8400,2.437
22.8800,2.483
22.9200,2.477
22.9600,2.519
23.0000,2.487
23.0400,2.476
23.0800,2.481
23.1200,2.440
23.1600,2.508
23.2000,2.432
23.2400,2.461
23.2800,2.495
23.3200,2.458
23.3600,2.447
23.4000,2.427
23.4400,2.543
23.4800,2.454
23.5200,2.496
23.5600,2.440
23.6000,2.489
23.6400,2.351
23.6800,2.373
23.7200,2.429
23.7600,2.394
23.8000,2.370
23.8400,2.441
23.8800,2.416
23.9200,2.398
23.9600,2.465
24.0000,2.430
24.0400,2.427
24.0800,2.336
24.1200,2.340
24.1600,2.409
24.2000,2.402
24.2400,2.381
24.2800,2.507
24.3200,2.517
24.3600,2.522
24.4000,2.430
24.4400,2.451
24.4800,2.447
24.5200,2.378
24.5600,2.333
24.6000,2.341
24.6400,2.415
24.6800,2.365
24.7200,2.375
24.7600,2.500
24.8000,2.417
24.8400,2.394
24.8800,2.354
24.9200,2.304
24.9600,2.325
25.0000,2.311
25.0400,2.317
25.0800,2.247
25.1200,2.296
25.1600,2.365
25.2000,2.346
25.2400,2.277
25.2800,2.189
25.3200,2.248
25.3600,2.411
25.4000,2.298
25.4400,2.298
25.4800,2.265
25.5200,2.296
25.5600,2.258
25.6000,2.250
25.6400,2.215
25.6800,2.279
25.7200,2.271
25.7600,2.207
25.8000,2.284
25.8400,2.115
25.8800,2.182
25.9200,2.234
25.9600,2.327
26.0000,2.120
26.0400,2.306
26.0800,2.121
26.1200,2.286
26.1600,2.184
26.2000,2.176
26.2400,2.222
26.2800,2.104
26.3200,2.191
26.3600,2.144
26.4000,2.219
26.4400,2.219
26.4800,2.114
26.5200,2.278
26.5600,2.232
26.6000,2.186
26.6400,2.233
26.6800,2.128
26.7200,2.110
26.7600,2.194
26.8000,2.210
26.8400,2.193
26.8800,2.148
26.9200,2.168
26.9600,2.146
27.0000,2.095
27.0400,2.108
27.0800,2.142
27.1200,2.226
27.1600,2.153
27.2000,2.120
27.2400,2.143
27.2800,2.088
27.3200,2.173
27.3600,2.141
27.4000,2.136
27.4400,2.169
27.4800,2.182
27.5200,2.160
27.5600,2.099
27.6000,2.097
27.6400,2.162
27.6800,2.231
27.7200,2.201
27.7600,2.187
27.8000,2.187
27.8400,2.132
27.8800,2.217
27.9200,2.183
27.9600,2.237
28.0000,2.350
28.0400,2.397
28.0800,2.321
28.1200,2.314
28.1600,2.417
28.2000,2.317
28.2400,2.428
28.2800,2.412
28.3200,2.437
28.3600,2.423
28.4000,2.384
28.4400,2.303
28.4800,2.220
28.5200,2.213
28.5600,2.263
28.6000,2.233
28.6400,2.287
28.6800,2.143
28.7200,2.185
28.7600,2.149
28.8000,2.128
28.8400,2.016
28.8800,2.057
28.9200,2.020
28.9600,2.044
29.0000,2.017
29.0400,2.048
29.0800,1.994
29.1200,1.993
29.1600,2.011
29.2000,2.001
29.2400,2.038
29.2800,1.914
29.3200,1.948
29.3600,1.992
29.4000,1.957
29.4400,1.944
29.4800,1.956
29.5200,1.957
29.5600,1.888
29.6000,1.918
29.6400,1.958
29.6800,1.921
29.7200,1.907
29.7600,1.917
29.8000,1.937
29.8400,1.907
29.8800,1.898
29.9200,1.977
29.9600,1.842
30.0000,1.993
30.0400,1.902
30.0800,1.980
30.1200,1.873
30.1600,1.873
30.2000,1.862
30.2400,1.934
30.2800,1.929
30.3200,1.867
30.3600,1.886
30.4000,1.907
30.4400,1.973
30.4800,1.848
30.5200,1.894
30.5600,1.850
30.6000,1.952
30.6400,1.898
30.6800,1.848
30.7200,1.798
30.7600,1.865
30.8000,1.935
30.8400,1.856
30.8800,1.892
30.9200,1.950
30.9600,1.899
31.0000,1.881
31.0400,1.944
31.0800,1.843
31.1200,1.935
31.1600,1.989
31.2000,1.869
31.2400,1.920
31.2800,1.968
31.3200,1.928
31.3600,1.972
31.4000,2.009
31.4400,1.991
31.4800,2.000
31.5200,2.007
31.5600,2.121
31.6000,2.185
31.6400,2.182
31.6800,2.285
31.7200,2.260
31.7600,2.354
31.8000,2.351
31.8400,2.507
31.8800,2.480
31.9200,2.403
31.9600,2.389
32.0000,2.353
32.0400,2.358
32.0800,2.297
32.1200,2.281
32.1600,2.195
32.2000,2.190
32.2400,2.121
32.2800,2.039
32.3200,1.976
32.3600,2.103
32.4000,1.997
32.4400,1.991
32.4800,2.005
32.5200,1.921
32.5600,1.946
32.6000,1.930
32.6400,1.911
32.6800,1.950
32.7200,1.855
32.7600,1.850
32.8000,1.867
32.8400,1.869
32.8800,1.778
32.9200,1.912
32.9600,1.957
33.0000,2.416
33.0400,2.567
33.0800,2.067
33.1200,1.845
33.1600,1.841
33.2000,1.827
33.2400,1.780
33.2800,1.792
33.3200,1.803
33.3600,1.838
33.4000,1.710
33.4400,1.835
33.4800,1.755
33.5200,1.802
33.5600,1.784
33.6000,1.777
33.6400,1.811
33.6800,1.809
33.7200,1.817
33.7600,1.885
33.8000,1.853
33.8400,1.828
33.8800,1.807
33.9200,1.892
33.9600,1.903
34.0000,2.012
34.0400,1.846
34.0800,1.961
34.1200,1.937
34.1600,2.020
34.2000,1.987
34.2400,2.003
34.2800,2.017
34.3200,2.030
34.3600,2.087
34.4000,2.018
34.4400,1.983
34.4800,2.054
34.5200,2.060
34.5600,1.974
34.6000,2.054
34.6400,1.954
34.6800,2.024
34.7200,1.971
34.7600,2.023
34.8000,1.931
34.8400,1.884
34.8800,1.898
34.9200,1.921
34.9600,1.845
35.0000,1.866
35.0400,1.870
35.0800,1.839
35.1200,1.889
35.1600,1.875
35.2000,1.882
35.2400,1.853
35.2800,1.750
35.3200,1.847
35.3600,1.860
35.4000,1.835
35.4400,1.857
35.4800,1.922
35.5200,1.852
35.5600,1.928
35.6000,1.890
35.6400,1.939
35.6800,2.009
35.7200,2.024
35.7600,1.955
35.8000,2.036
35.8400,2.087
35.8800,2.254
35.9200,2.200
35.9600,2.192
36.0000,2.352
36.0400,2.384
36.0800,2.478
36.1200,2.504
36.1600,2.540
36.2000,2.657
36.2400,2.667
36.2800,2.744
36.3200,2.688
36.3600,2.734
36.4000,2.704
36.4400,2.672
36.4800,2.587
36.5200,2.581
36.5600,2.487
36.6000,2.556
36.6400,2.423
36.6800,2.323
36.7200,2.324
36.7600,2.181
36.8000,2.210
36.8400,2.166
36.8800,2.126
36.9200,2.105
36.9600,2.051
37.0000,2.009
37.0400,2.106
37.0800,2.021
37.1200,1.989
37.1600,1.960
37.2000,1.941
37.2400,1.929
37.2800,1.923
37.3200,1.951
37.3600,1.903
37.4000,1.926
37.4400,1.879
37.4800,1.932
37.5200,1.942
37.5600,1.906
37.6000,1.976
37.6400,1.934
37.6800,1.930
37.7200,1.966
37.7600,2.012
37.8000,2.035
37.8400,1.990
37.8800,2.096
37.9200,2.197
37.9600,2.299
38.0000,2.358
38.0400,2.534
38.0800,2.547
38.1200,2.771
38.1600,3.012
38.2000,3.238
38.2400,3.471
38.2800,3.754
38.3200,4.084
38.3600,4.260
38.4000,4.404
38.4400,4.519
38.4800,4.409
38.5200,4.221
38.5600,3.901
38.6000,3.504
38.6400,3.266
38.6800,3.049
38.7200,2.890
38.7600,2.627
38.8000,2.452
38.8400,2.427
38.8800,2.343
38.9200,2.261
38.9600,2.200
39.0000,2.089
39.0400,2.147
39.0800,2.023
39.1200,2.090
39.1600,2.016
39.2000,2.062
39.2400,2.001
39.2800,1.957
39.3200,1.966
39.3600,2.017
39.4000,1.978
39.4400,1.953
39.4800,1.996
39.5200,1.969
39.5600,1.944
39.6000,1.953
39.6400,2.019
39.6800,2.054
39.7200,2.177
39.7600,2.147
39.8000,2.154
39.8400,2.260
39.8800,2.348
39.9200,2.411
39.9600,2.527
40.0000,2.757
40.0400,2.919
40.0800,2.895
40.1200,3.033
40.1600,3.236
40.2000,3.510
40.2400,3.677
40.2800,3.661
40.3200,3.857
40.3600,3.653
40.4000,3.704
40.4400,3.563
40.4800,3.362
40.5200,3.226
40.5600,3.263
40.6000,3.000
40.6400,2.873
40.6800,2.683
40.7200,2.624
40.7600,2.526
40.8000,2.424
40.8400,2.502
40.8800,2.346
40.9200,2.269
40.9600,2.324
41.0000,2.287
41.0400,2.235
41.0800,2.220
41.1200,2.157
41.1600,2.241
41.2000,2.197
41.2400,2.036
41.2800,2.045
41.3200,1.998
41.3600,2.000
41.4000,1.996
41.4400,1.943
41.4800,1.943
41.5200,1.838
41.5600,1.794
41.6000,1.851
41.6400,1.711
41.6800,1.750
41.7200,1.675
41.7600,1.685
41.8000,1.636
41.8400,1.622
41.8800,1.651
41.9200,1.598
41.9600,1.581
42.0000,1.502
42.0400,1.583
42.0800,1.565
42.1200,1.544
42.1600,1.492
42.2000,1.513
42.2400,1.556
42.2800,1.455
42.3200,1.486
42.3600,1.420
42.4000,1.464
42.4400,1.422
42.4800,1.440
42.5200,1.384
42.5600,1.446
42.6000,1.373
42.6400,1.395
42.6800,1.416
42.7200,1.368
42.7600,1.340
42.8000,1.357
42.8400,1.338
42.8800,1.331
42.9200,1.335
42.9600,1.352
43.0000,1.296
43.0400,1.278
43.0800,1.231
43.1200,1.327
43.1600,1.321
43.2000,1.263
43.2400,1.283
43.2800,1.241
43.3200,1.298
43.3600,1.313
43.4000,1.313
43.4400,1.287
43.4800,1.276
43.5200,1.222
43.5600,1.305
43.6000,1.315
43.6400,1.313
43.6800,1.334
43.7200,1.319
43.7600,1.303
43.8000,1.275
43.8400,1.328
43.8800,1.289
43.9200,1.270
43.9600,1.241
44.0000,1.315
44.0400,1.313
44.0800,1.321
44.1200,1.324
44.1600,1.371
44.2000,1.328
44.2400,1.383
44.2800,1.412
44.3200,1.374
44.3600,1.401
44.4000,1.448
44.4400,1.518
44.4800,1.526
44.5200,1.527
44.5600,1.628
44.6000,1.531
44.6400,1.563
44.6800,1.605
44.7200,1.480
44.7600,1.558
44.8000,1.533
44.8400,1.494
44.8800,1.452
44.9200,1.469
44.9600,1.408
45.0000,1.345
45.0400,1.374
45.0800,1.270
45.1200,1.309
45.1600,1.313
45.2000,1.233
45.2400,1.241
45.2800,1.211
45.3200,1.202
45.3600,1.159
45.4000,1.174
45.4400,1.126
45.4800,1.112
45.5200,1.133
45.5600,1.136
45.6000,1.154
45.6400,1.158
45.6800,1.104
45.7200,1.086
45.7600,1.086
45.8000,1.074
45.8400,1.116
45.8800,1.032
45.9200,1.018
45.9600,1.062
46.0000,1.046
46.0400,1.075
46.0800,1.066
46.1200,1.059
46.1600,1.033
46.2000,1.079
46.2400,1.017
46.2800,1.047
46.3200,1.018
46.3600,1.056
46.4000,1.024
46.4400,1.089
46.4800,1.070
46.5200,1.013
46.5600,0.989
46.6000,1.048
46.6400,1.034
46.6800,0.986
46.7200,1.016
46.7600,0.959
46.8000,1.039
46.8400,1.017
46.8800,1.002
46.9200,1.033
46.9600,1.028
47.0000,1.098
47.0400,1.020
47.0800,1.039
47.1200,1.033
47.1600,1.035
47.2000,1.034
47.2400,1.061
47.2800,1.064
47.3200,0.999
47.3600,1.002
47.4000,1.032
47.4400,1.040
47.4800,1.029
47.5200,1.062
47.5600,1.024
47.6000,1.035
47.6400,1.031
47.6800,1.005
47.7200,1.058
47.7600,1.005
47.8000,1.040
47.8400,0.986
47.8800,0.946
47.9200,1.030
47.9600,1.038
48.0000,1.056
48.0400,0.980
48.0800,0.991
48.1200,0.929
48.1600,0.987
48.2000,0.968
48.2400,1.015
48.2800,0.947
48.3200,0.969
48.3600,0.938
48.4000,0.903
48.4400,0.931
48.4800,0.983
48.5200,0.960
48.5600,0.948
48.6000,0.897
48.6400,0.909
48.6800,0.931
48.7200,0.939
48.7600,0.905
48.8000,0.928
48.8400,0.923
48.8800,0.902
48.9200,0.865
48.9600,0.924
49.0000,0.827
49.0400,0.944
49.0800,0.924
49.1200,0.948
49.1600,0.885
49.2000,0.902
49.2400,0.895
49.2800,0.954
49.3200,0.919
49.3600,0.891
49.4000,0.947
49.4400,0.857
49.4800,0.910
49.5200,0.863
49.5600,0.898
49.6000,0.891
49.6400,0.894
49.6800,0.914
49.7200,0.900
49.7600,0.935
49.8000,0.905
49.8400,0.927
49.8800,0.949
49.9200,0.924
49.9600,0.893
50.0000,0.903
50.0400,0.919
50.0800,0.878
50.1200,0.889
50.1600,0.958
50.2000,0.911
50.2400,0.876
50.2800,0.846
50.3200,0.851
50.3600,0.866
50.4000,0.853
50.4400,0.876
50.4800,0.877
50.5200,0.835
50.5600,0.870
50.6000,0.842
50.6400,0.830
50.6800,0.852
50.7200,0.872
50.7600,0.862
50.8000,0.776
50.8400,0.813
50.8800,0.842
50.9200,0.823
50.9600,0.801
51.0000,0.790
51.0400,0.838
51.0800,0.828
51.1200,0.836
51.1600,0.792
51.2000,0.831
51.2400,0.855
51.2800,0.806
51.3200,0.795
51.3600,0.850
51.4000,0.779
51.4400,0.805
51.4800,0.815
51.5200,0.807
51.5600,0.777
51.6000,0.820
51.6400,0.798
51.6800,0.800
51.7200,0.810
51.7600,0.804
51.8000,0.777
51.8400,0.792
51.8800,0.781
51.9200,0.813
51.9600,0.819
52.0000,0.821
52.0400,0.817
52.0800,0.810
52.1200,0.784
52.1600,0.794
52.2000,0.809
52.2400,0.794
52.2800,0.819
52.3200,0.777
52.3600,0.758
52.4000,0.736
52.4400,0.781
52.4800,0.734
52.5200,0.782
52.5600,0.809
52.6000,0.789
52.6400,0.778
52.6800,0.803
52.7200,0.794
52.7600,0.756
52.8000,0.777
52.8400,0.769
52.8800,0.759
52.9200,0.784
52.9600,0.793
53.0000,0.793
53.0400,0.795
53.0800,0.759
53.1200,0.754
53.1600,0.772
53.2000,0.766
53.2400,0.711
53.2800,0.770
53.3200,0.785
53.3600,0.807
53.4000,0.783
53.4400,0.821
53.4800,0.754
53.5200,0.745
53.5600,0.797
53.6000,0.769
53.6400,0.774
53.6800,0.776
53.7200,0.747
53.7600,0.794
53.8000,0.746
53.8400,0.743
53.8800,0.769
53.9200,0.743
53.9600,0.831
54.0000,0.749
54.0400,0.760
54.0800,0.796
54.1200,0.798
54.1600,0.744
54.2000,0.763
54.2400,0.764
54.2800,0.724
54.3200,0.710
54.3600,0.687
54.4000,0.803
54.4400,0.741
54.4800,0.770
54.5200,0.808
54.5600,0.721
54.6000,0.758
54.6400,0.750
54.6800,0.752
54.7200,0.773
54.7600,0.725
54.8000,0.716
54.8400,0.729
54.8800,0.735
54.9200,0.769
54.9600,0.779
55.0000,0.720
55.0400,0.682
55.0800,0.721
55.1200,0.684
55.1600,0.706
55.2000,0.760
55.2400,0.713
55.2800,0.728
55.3200,0.688
55.3600,0.744
55.4000,0.714
55.4400,0.687
55.4800,0.738
55.5200,0.679
55.5600,0.718
55.6000,0.729
55.6400,0.723
55.6800,0.714
55.7200,0.702
55.7600,0.723
55.8000,0.736
55.8400,0.758
55.8800,0.777
55.9200,0.775
55.9600,0.756
56.0000,0.781
56.0400,0.757
56.0800,0.741
56.1200,0.738
56.1600,0.764
56.2000,0.750
56.2400,0.781
56.2800,0.793
56.3200,0.808
56.3600,0.807
56.4000,0.817
56.4400,0.812
56.4800,0.828
56.5200,0.832
56.5600,0.903
56.6000,0.902
56.6400,0.880
56.6800,0.990
56.7200,0.883
56.7600,0.901
56.8000,0.903
56.8400,0.929
56.8800,0.901
56.9200,0.874
56.9600,0.913
57.0000,0.872
57.0400,0.864
57.0800,0.820
57.1200,0.788
57.1600,0.824
57.2000,0.835
57.2400,0.808
57.2800,0.798
57.3200,0.778
57.3600,0.784
57.4000,0.769
57.4400,0.808
57.4800,0.791
57.5200,0.786
57.5600,0.757
57.6000,0.762
57.6400,0.764
57.6800,0.755
57.7200,0.740
57.7600,0.757
57.8000,0.786
57.8400,0.785
57.8800,0.738
57.9200,0.766
57.9600,0.702
58.0000,0.707
58.0400,0.709
58.0800,0.719
58.1200,0.762
58.1600,0.766
58.2000,0.747
58.2400,0.661
58.2800,0.734
58.3200,0.771
58.3600,0.786
58.4000,0.774
58.4400,0.720
58.4800,0.792
58.5200,0.751
58.5600,0.704
58.6000,0.760
58.6400,0.706
58.6800,0.677
58.7200,0.708
58.7600,0.755
58.8000,0.709
58.8400,0.686
58.8800,0.709
58.9200,0.697
58.9600,0.704
59.0000,0.667
59.0400,0.696
59.0800,0.689
59.1200,0.653
59.1600,0.679
59.2000,0.705
59.2400,0.653
59.2800,0.653
59.3200,0.649
59.3600,0.651
59.4000,0.668
59.4400,0.664
59.4800,0.610
59.5200,0.667
59.5600,0.628
59.6000,0.639
59.6400,0.609
59.6800,0.634
59.7200,0.673
59.7600,0.689
59.8000,0.651
59.8400,0.642
59.8800,0.706
59.9200,0.636
59.9600,0.633
60.0000,0.615
60.0400,0.580
60.0800,0.637
60.1200,0.612
60.1600,0.599
60.2000,0.637
60.2400,0.589
60.2800,0.629
60.3200,0.597
60.3600,0.600
60.4000,0.597
60.4400,0.644
60.4800,0.641
60.5200,0.628
60.5600,0.620
60.6000,0.626
60.6400,0.583
60.6800,0.577
60.7200,0.608
60.7600,0.606
60.8000,0.651
60.8400,0.620
60.8800,0.629
60.9200,0.639
60.9600,0.583
61.0000,0.600
61.0400,0.615
61.0800,0.620
61.1200,0.597
61.1600,0.588
61.2000,0.610
61.2400,0.624
61.2800,0.602
61.3200,0.609
61.3600,0.597
61.4000,0.625
61.4400,0.591
61.4800,0.593
61.5200,0.638
61.5600,0.633
61.6000,0.607
61.6400,0.655
61.6800,0.719
61.7200,0.735
61.7600,0.627
61.8000,0.638
61.8400,0.603
61.8800,0.634
61.9200,0.601
61.9600,0.595
62.0000,0.683
62.0400,0.612
62.0800,0.583
62.1200,0.648
62.1600,0.647
62.2000,0.661
62.2400,0.678
62.2800,0.620
62.3200,0.619
62.3600,0.673
62.4000,0.684
62.4400,0.658
62.4800,0.643
62.5200,0.673
62.5600,0.677
62.6000,0.697
62.6400,0.685
62.6800,0.709
62.7200,0.632
62.7600,0.679
62.8000,0.680
62.8400,0.641
62.8800,0.703
62.9200,0.691
62.9600,0.732
63.0000,0.648
63.0400,0.752
63.0800,0.735
63.1200,0.713
63.1600,0.672
63.2000,0.677
63.2400,0.704
63.2800,0.653
63.3200,0.627
63.3600,0.648
63.4000,0.662
63.4400,0.696
63.4800,0.666
63.5200,0.690
63.5600,0.658
63.6000,0.642
63.6400,0.690
63.6800,0.646
63.7200,0.645
63.7600,0.636
63.8000,0.637
63.8400,0.690
63.8800,0.666
63.9200,0.662
63.9600,0.668
64.0000,0.661
64.0400,0.672
64.0800,0.662
64.1200,0.684
64.1600,0.690
64.2000,0.692
64.2400,0.680
64.2800,0.708
64.3200,0.722
64.3600,0.710
64.4000,0.761
64.4400,0.736
64.4800,0.763
64.5200,0.811
64.5600,0.859
64.6000,0.844
64.6400,0.847
64.6800,0.872
64.7200,0.911
64.7600,0.918
64.8000,1.014
64.8400,0.983
64.8800,0.993
64.9200,1.049
64.9600,1.064
65.0000,1.053
65.0400,1.113
65.0800,1.057
65.1200,1.072
65.1600,1.025
65.2000,0.998
65.2400,0.964
65.2800,0.975
65.3200,0.921
65.3600,0.936
65.4000,0.907
65.4400,0.883
65.4800,0.893
65.5200,0.882
65.5600,0.936
65.6000,0.842
65.6400,0.875
65.6800,0.817
65.7200,0.803
65.7600,0.836
65.8000,0.830
65.8400,0.817
65.8800,0.855
65.9200,0.847
65.9600,0.837
66.0000,0.851
66.0400,0.820
66.0800,0.840
66.1200,0.816
66.1600,0.850
66.2000,0.883
66.2400,0.838
66.2800,0.856
66.3200,0.897
66.3600,0.887
66.4000,0.875
66.4400,0.889
66.4800,0.967
66.5200,0.935
66.5600,0.924
66.6000,0.972
66.6400,0.943
66.6800,0.969
66.7200,0.961
66.7600,0.975
66.8000,0.996
66.8400,0.986
66.8800,0.982
66.9200,1.011
66.9600,1.026
67.0000,1.061
67.0400,1.034
67.0800,1.104
67.1200,1.094
67.1600,1.071
67.2000,1.105
67.2400,1.151
67.2800,1.130
67.3200,1.148
67.3600,1.204
67.4000,1.196
67.4400,1.239
67.4800,1.249
67.5200,1.317
67.5600,1.314
67.6000,1.335
67.6400,1.379
67.6800,1.371
67.7200,1.442
67.7600,1.499
67.8000,1.542
67.8400,1.518
67.8800,1.632
67.9200,1.674
67.9600,1.662
68.0000,1.757
68.0400,1.723
68.0800,1.813
68.1200,1.907
68.1600,1.945
68.2000,1.802
68.2400,2.010
68.2800,2.083
68.3200,2.149
68.3600,2.227
68.4000,2.236
68.4400,2.323
68.4800,2.395
68.5200,2.417
68.5600,2.669
68.6000,2.746
68.6400,3.002
68.6800,3.311
68.7200,3.953
68.7600,5.107
68.8000,6.371
68.8400,7.627
68.8800,7.918
68.9200,7.929
68.9600,9.014
69.0000,12.214
69.0400,19.359
69.0800,41.507
69.1200,190.331
69.1600,512.959
69.2000,417.059
69.2400,117.648
69.2800,50.881
69.3200,121.533
69.3600,266.987
69.4000,205.187
69.4400,58.502
69.4800,19.351
69.5200,11.493
69.5600,8.465
69.6000,6.604
69.6400,5.577
69.6800,4.794
69.7200,4.372
69.7600,3.901
69.8000,3.576
69.8400,3.297
69.8800,3.123
69.9200,2.904
69.9600,2.811
70.0000,2.645
70.0400,2.604
70.0800,2.348
70.1200,2.316
70.1600,2.141
70.2000,2.129
70.2400,2.066
70.2800,2.032
70.3200,1.941
70.3600,1.896
70.4000,1.760
70.4400,1.793
70.4800,1.750
70.5200,1.724
70.5600,1.641
70.6000,1.582
70.6400,1.530
70.6800,1.482
70.7200,1.453
70.7600,1.426
70.8000,1.328
70.8400,1.399
70.8800,1.269
70.9200,1.341
70.9600,1.302
71.0000,1.196
71.0400,1.196
71.0800,1.166
71.1200,1.184
71.1600,1.127
71.2000,1.160
71.2400,1.083
71.2800,1.064
71.3200,1.081
71.3600,1.032
71.4000,1.020
71.4400,1.013
71.4800,0.976
71.5200,0.920
71.5600,0.984
71.6000,0.938
71.6400,0.921
71.6800,0.869
71.7200,0.923
71.7600,0.875
71.8000,0.868
71.8400,0.890
71.8800,0.823
71.9200,0.839
71.9600,0.842
72.0000,0.729
72.0400,0.803
72.0800,0.756
72.1200,0.780
72.1600,0.709
72.2000,0.774
72.2400,0.737
72.2800,0.732
72.3200,0.693
72.3600,0.689
72.4000,0.739
72.4400,0.667
72.4800,0.687
72.5200,0.694
72.5600,0.648
72.6000,0.679
72.6400,0.688
72.6800,0.742
72.7200,0.703
72.7600,0.710
72.8000,0.684
72.8400,0.659
72.8800,0.671
72.9200,0.665
72.9600,0.683
73.0000,0.647
73.0400,0.686
73.0800,0.647
73.1200,0.691
73.1600,0.684
73.2000,0.673
73.2400,0.647
73.2800,0.713
73.3200,0.678
73.3600,0.691
73.4000,0.641
73.4400,0.639
73.4800,0.662
73.5200,0.635
73.5600,0.587
73.6000,0.602
73.6400,0.602
73.6800,0.581
73.7200,0.604
73.7600,0.560
73.8000,0.572
73.8400,0.545
73.8800,0.513
73.9200,0.523
73.9600,0.563
74.0000,0.538
74.0400,0.488
74.0800,0.494
74.1200,0.507
74.1600,0.540
74.2000,0.480
74.2400,0.492
74.2800,0.531
74.3200,0.489
74.3600,0.468
74.4000,0.469
74.4400,0.502
74.4800,0.452
74.5200,0.464
74.5600,0.493
74.6000,0.445
74.6400,0.449
74.6800,0.445
74.7200,0.443
74.7600,0.449
74.8000,0.456
74.8400,0.467
74.8800,0.459
74.9200,0.454
74.9600,0.406
75.0000,0.463
75.0400,0.420
75.0800,0.434
75.1200,0.457
75.1600,0.486
75.2000,0.454
75.2400,0.407
75.2800,0.429
75.3200,0.422
75.3600,0.435
75.4000,0.424
75.4400,0.428
75.4800,0.433
75.5200,0.416
75.5600,0.401
75.6000,0.419
75.6400,0.430
75.6800,0.454
75.7200,0.404
75.7600,0.395
75.8000,0.444
75.8400,0.391
75.8800,0.422
75.9200,0.397
75.9600,0.397
76.0000,0.397
76.0400,0.410
76.0800,0.426
76.1200,0.416
76.1600,0.407
76.2000,0.398
76.2400,0.396
76.2800,0.399
76.3200,0.413
76.3600,0.436
76.4000,0.407
76.4400,0.405
76.4800,0.407
76.5200,0.456
76.5600,0.434
76.6000,0.451
76.6400,0.417
76.6800,0.398
76.7200,0.447
76.7600,0.420
76.8000,0.445
76.8400,0.465
76.8800,0.442
76.9200,0.444
76.9600,0.440
77.0000,0.474
77.0400,0.460
77.0800,0.483
77.1200,0.485
77.1600,0.458
77.2000,0.493
77.2400,0.475
77.2800,0.471
77.3200,0.478
77.3600,0.471
77.4000,0.505
77.4400,0.465
77.4800,0.545
77.5200,0.537
77.5600,0.536
77.6000,0.563
77.6400,0.577
77.6800,0.568
77.7200,0.602
77.7600,0.574
77.8000,0.618
77.8400,0.606
77.8800,0.642
77.9200,0.663
77.9600,0.669
78.0000,0.714
78.0400,0.694
78.0800,0.682
78.1200,0.716
78.1600,0.656
78.2000,0.686
78.2400,0.675
78.2800,0.696
78.3200,0.653
78.3600,0.625
78.4000,0.617
78.4400,0.608
78.4800,0.602
78.5200,0.560
78.5600,0.541
78.6000,0.566
78.6400,0.560
78.6800,0.495
78.7200,0.509
78.7600,0.487
78.8000,0.455
78.8400,0.429
78.8800,0.469
78.9200,0.475
78.9600,0.464
79.0000,0.441
79.0400,0.410
79.0800,0.453
79.1200,0.436
79.1600,0.447
79.2000,0.446
79.2400,0.436
79.2800,0.394
79.3200,0.402
79.3600,0.397
79.4000,0.384
79.4400,0.426
79.4800,0.376
79.5200,0.410
79.5600,0.375
79.6000,0.369
79.6400,0.411
79.6800,0.398
79.7200,0.405
79.7600,0.394
79.8000,0.398
79.8400,0.374
79.8800,0.387
79.9200,0.386
79.9600,0.382
80.0000,0.397
