theta,intensity
5.0000,4.509
5.0400,4.607
5.0800,4.386
5.1200,4.570
5.1600,4.347
5.2000,4.386
5.2400,4.481
5.2800,4.380
5.3200,4.321
5.3600,4.299
5.4000,4.379
5.4400,4.367
5.4800,4.405
5.5200,4.274
5.5600,4.378
5.6000,4.295
5.6400,4.439
5.6800,4.476
5.7200,4.456
5.7600,4.230
5.8000,4.387
5.8400,4.501
5.8800,4.300
5.9200,4.382
5.9600,4.234
6.0000,4.381
6.0400,4.225
6.0800,4.126
6.1200,4.173
6.1600,4.123
6.2000,4.117
6.2400,4.168
6.2800,4.107
6.3200,4.108
6.3600,4.102
6.4000,3.988
6.4400,4.058
6.4800,4.158
6.5200,4.059
6.5600,3.996
6.6000,4.014
6.6400,4.020
6.6800,4.028
6.7200,4.112
6.7600,4.035
6.8000,4.016
6.8400,3.856
6.8800,3.971
6.9200,4.034
6.9600,3.991
7.0000,3.856
7.0400,3.967
7.0800,3.918
7.1200,3.992
7.1600,3.960
7.2000,4.050
7.2400,4.023
7.2800,4.066
7.3200,3.973
7.3600,3.885
7.4000,3.880
7.4400,4.057
7.4800,4.034
7.5200,4.071
7.5600,3.977
7.6000,4.003
7.6400,3.855
7.6800,3.770
7.7200,3.867
7.7600,3.902
7.8000,3.959
7.8400,3.886
7.8800,3.956
7.9200,3.825
7.9600,3.850
8.0000,3.823
8.0400,3.808
8.0800,3.974
8.1200,3.694
8.1600,3.949
8.2000,3.800
8.2400,3.715
8.2800,3.859
8.3200,3.852
8.3600,3.765
8.4000,3.829
8.4400,3.796
8.4800,3.840
8.5200,3.721
8.5600,3.844
8.6000,3.992
8.6400,3.914
8.6800,3.717
8.7200,3.747
8.7600,3.763
8.8000,3.874
8.8400,3.807
8.8800,3.809
8.9200,3.753
8.9600,3.801
9.0000,3.818
9.0400,3.657
9.0800,3.711
9.1200,3.784
9.1600,3.921
9.2000,3.669
9.2400,3.881
9.2800,3.666
9.3200,3.703
9.3600,3.684
9.4000,3.752
9.4400,3.822
9.4800,3.732
9.5200,3.770
9.5600,3.586
9.6000,3.538
9.6400,3.600
9.6800,3.582
9.7200,3.594
9.7600,3.657
9.8000,3.601
9.8400,3.693
9.8800,3.704
9.9200,3.845
9.9600,3.560
10.0000,3.635
10.0400,3.581
10.0800,3.613
10.1200,3.587
10.1600,3.669
10.2000,3.636
10.2400,3.705
10.2800,3.629
10.3200,3.671
10.3600,3.459
10.4000,3.579
10.4400,3.549
10.4800,3.547
10.5200,3.741
10.5600,3.597
10.6000,3.541
10.6400,3.547
10.6800,3.626
10.7200,3.655
10.7600,3.600
10.8000,3.525
10.8400,3.643
10.8800,3.467
10.9200,3.508
10.9600,3.566
11.0000,3.611
11.0400,3.513
11.0800,3.486
11.1200,3.523
11.1600,3.577
11.2000,3.526
11.2400,3.487
11.2800,3.447
11.3200,3.589
11.3600,3.486
11.4000,3.561
11.4400,3.541
11.4800,3.405
11.5200,3.604
11.5600,3.447
11.6000,3.539
11.6400,3.506
11.6800,3.453
11.7200,3.356
11.7600,3.328
11.8000,3.475
11.8400,3.460
11.8800,3.577
11.9200,3.441
11.9600,3.482
12.0000,3.530
12.0400,3.440
12.0800,3.525
12.1200,3.433
12.1600,3.572
12.2000,3.440
12.2400,3.566
12.2800,3.578
12.3200,3.487
12.3600,3.494
12.4000,3.346
12.4400,3.402
12.4800,3.361
12.5200,3.268
12.5600,3.481
12.6000,3.421
12.6400,3.476
12.6800,3.361
12.7200,3.453
12.7600,3.339
12.8000,3.461
12.8400,3.273
12.8800,3.438
12.9200,3.256
12.9600,3.363
13.0000,3.370
13.0400,3.352
13.0800,3.310
13.1200,3.441
13.1600,3.360
13.2000,3.270
13.2400,3.331
13.2800,3.254
13.3200,3.258
13.3600,3.155
13.4000,3.310
13.4400,3.318
13.4800,3.398
13.5200,3.377
13.5600,3.360
13.6000,3.433
13.6400,3.271
13.6800,3.365
13.7200,3.338
13.7600,3.392
13.8000,3.395
13.8400,3.317
13.8800,3.227
13.9200,3.289
13.9600,3.329
14.0000,3.404
14.0400,3.315
14.0800,3.301
14.1200,3.274
14.1600,3.253
14.2000,3.297
14.2400,3.225
14.2800,3.260
14.3200,3.184
14.3600,3.257
14.4000,3.221
14.4400,3.028
14.4800,3.123
14.5200,3.181
14.5600,3.301
14.6000,3.332
14.6400,3.174
14.6800,3.184
14.7200,3.097
14.7600,3.211
14.8000,3.316
14.8400,3.168
14.8800,3.211
14.9200,3.223
14.9600,3.196
15.0000,3.150
15.0400,3.112
15.0800,3.303
15.1200,3.138
15.1600,3.222
15.2000,3.221
15.2400,3.216
15.2800,3.359
15.3200,3.260
15.3600,3.237
15.4000,3.253
15.4400,3.120
15.4800,3.103
15.5200,3.079
15.5600,3.133
15.6000,3.147
15.6400,3.187
15.6800,3.126
15.7200,3.081
15.7600,3.155
15.8000,3.167
15.8400,3.175
15.8800,3.088
15.9200,3.012
15.9600,3.023
16.0000,3.059
16.0400,2.965
16.0800,3.051
16.1200,3.047
16.1600,3.086
16.2000,3.189
16.2400,3.108
16.2800,3.099
16.3200,3.208
16.3600,3.204
16.4000,3.108
16.4400,3.196
16.4800,2.986
16.5200,2.956
16.5600,3.073
16.6000,3.026
16.6400,2.924
16.6800,3.111
16.7200,3.230
16.7600,3.061
16.8000,2.906
16.8400,3.029
16.8800,2.983
16.9200,2.937
16.9600,3.024
17.0000,3.096
17.0400,3.071
17.0800,2.974
17.1200,2.972
17.1600,2.997
17.2000,3.041
17.2400,3.049
17.2800,2.989
17.3200,2.992
17.3600,3.069
17.4000,3.069
17.4400,2.905
17.4800,2.953
17.5200,3.011
17.5600,2.894
17.6000,3.019
17.6400,2.961
17.6800,2.970
17.7200,3.026
17.7600,2.900
17.8000,2.827
17.8400,2.966
17.8800,2.854
17.9200,2.878
17.9600,2.858
18.0000,3.050
18.0400,2.977
18.0800,2.872
18.1200,2.889
18.1600,2.993
18.2000,2.899
18.2400,3.024
18.2800,2.995
18.3200,2.915
18.3600,2.938
18.4000,2.915
18.4400,2.951
18.4800,2.855
18.5200,2.876
18.5600,2.847
18.6000,2.912
18.6400,3.007
18.6800,2.873
18.7200,2.870
18.7600,2.955
18.8000,2.839
18.8400,2.781
18.8800,2.780
18.9200,2.898
18.9600,2.848
19.0000,2.868
19.0400,2.789
19.0800,2.758
19.1200,2.830
19.1600,2.713
19.2000,2.790
19.2400,2.899
19.2800,2.796
19.3200,2.830
19.3600,2.666
19.4000,2.730
19.4400,2.819
19.4800,2.851
19.5200,2.761
19.5600,2.743
19.6000,2.886
19.6400,2.771
19.6800,2.815
19.7200,2.771
19.7600,2.785
19.8000,2.815
19.8400,2.664
19.8800,2.695
19.9200,2.792
19.9600,2.818
20.0000,2.871
20.0400,2.750
20.0800,2.739
20.1200,2.827
20.1600,2.709
20.2000,2.735
20.2400,2.772
20.2800,2.652
20.3200,2.759
20.3600,2.831
20.4000,2.738
20.4400,2.815
20.4800,2.750
20.5200,2.622
20.5600,2.679
20.6000,2.678
20.6400,2.690
20.6800,2.684
20.7200,2.697
20.7600,2.688
20.8000,2.736
20.8400,2.729
20.8800,2.685
20.9200,2.731
20.9600,2.663
21.0000,2.615
21.0400,2.706
21.0800,2.798
21.1200,2.593
21.1600,2.694
21.2000,2.613
21.2400,2.667
21.2800,2.620
21.3200,2.800
21.3600,2.567
21.4000,2.593
21.4400,2.637
21.4800,2.603
21.5200,2.673
21.5600,2.594
21.6000,2.695
21.6400,2.605
21.6800,2.570
21.7200,2.565
21.7600,2.747
21.8000,2.648
21.8400,2.580
21.8800,2.536
21.9200,2.658
21.9600,2.622
22.0000,2.671
22.0400,2.525
22.0800,2.541
22.1200,2.528
22.1600,2.553
22.2000,2.681
22.2400,2.573
22.2800,2.670
22.3200,2.609
22.3600,2.512
22.4000,2.602
22.4400,2.597
22.4800,2.618
22.5200,2.484
22.5600,2.536
22.6000,2.656
22.6400,2.537
22.6800,2.419
22.7200,2.610
22.7600,2.583
22.8000,2.522
22.8400,2.530
22.8800,2.638
22.9200,2.529
22.9600,2.597
23.0000,2.533
23.0400,2.583
23.0800,2.601
23.1200,2.501
23.1600,2.577
23.2000,2.629
23.2400,2.571
23.2800,2.514
23.3200,2.471
23.3600,2.534
23.4000,2.678
23.4400,2.564
23.4800,2.628
23.5200,2.542
23.5600,2.564
23.6000,2.479
23.6400,2.463
23.6800,2.543
23.7200,2.633
23.7600,2.484
23.8000,2.537
23.8400,2.561
23.8800,2.407
23.9200,2.456
23.9600,2.564
24.0000,2.533
24.0400,2.549
24.0800,2.451
24.1200,2.565
24.1600,2.525
24.2000,2.488
24.2400,2.512
24.2800,2.509
24.3200,2.576
24.3600,2.452
24.4000,2.475
24.4400,2.449
24.4800,2.509
24.5200,2.492
24.5600,2.488
24.6000,2.525
24.6400,2.500
24.6800,2.503
24.7200,2.407
24.7600,2.358
24.8000,2.457
24.8400,2.407
24.8800,2.422
24.9200,2.409
24.9600,2.471
25.0000,2.452
25.0400,2.384
25.0800,2.451
25.1200,2.422
25.1600,2.346
25.2000,2.456
25.2400,2.336
25.2800,2.398
25.3200,2.381
25.3600,2.328
25.4000,2.437
25.4400,2.318
25.4800,2.283
25.5200,2.284
25.5600,2.344
25.6000,2.344
25.6400,2.284
25.6800,2.370
25.7200,2.345
25.7600,2.280
25.8000,2.372
25.8400,2.286
25.8800,2.304
25.9200,2.368
25.9600,2.325
26.0000,2.371
26.0400,2.260
26.0800,2.252
26.1200,2.366
26.1600,2.281
26.2000,2.306
26.2400,2.225
26.2800,2.329
26.3200,2.326
26.3600,2.338
26.4000,2.222
26.4400,2.344
26.4800,2.244
26.5200,2.406
26.5600,2.317
26.6000,2.321
26.6400,2.407
26.6800,2.308
26.7200,2.285
26.7600,2.287
26.8000,2.394
26.8400,2.303
26.8800,2.165
26.9200,2.272
26.9600,2.330
27.0000,2.265
27.0400,2.340
27.0800,2.387
27.1200,2.291
27.1600,2.304
27.2000,2.230
27.2400,2.307
27.2800,2.263
27.3200,2.227
27.3600,2.238
27.4000,2.315
27.4400,2.327
27.4800,2.358
27.5200,2.296
27.5600,2.330
27.6000,2.341
27.6400,2.481
27.6800,2.366
27.7200,2.455
27.7600,2.406
27.8000,2.495
27.8400,2.635
27.8800,2.569
27.9200,2.561
27.9600,2.650
28.0000,2.679
28.0400,2.747
28.0800,2.933
28.1200,2.902
28.1600,2.958
28.2000,3.105
28.2400,3.425
28.2800,3.448
28.3200,3.730
28.3600,3.962
28.4000,4.339
28.4400,4.813
28.4800,5.447
28.5200,6.081
28.5600,6.968
28.6000,7.553
28.6400,8.256
28.6800,8.544
28.7200,8.577
28.7600,8.704
28.8000,8.456
28.8400,8.037
28.8800,7.241
28.9200,6.370
28.9600,5.652
29.0000,5.040
29.0400,4.490
29.0800,3.878
29.1200,3.719
29.1600,3.292
29.2000,3.007
29.2400,3.025
29.2800,2.795
29.3200,2.757
29.3600,2.582
29.4000,2.581
29.4400,2.619
29.4800,2.363
29.5200,2.487
29.5600,2.333
29.6000,2.311
29.6400,2.246
29.6800,2.388
29.7200,2.285
29.7600,2.238
29.8000,2.205
29.8400,2.190
29.8800,2.234
29.9200,2.244
29.9600,2.186
30.0000,2.188
30.0400,2.200
30.0800,2.191
30.1200,2.127
30.1600,2.165
30.2000,2.103
30.2400,2.151
30.2800,2.206
30.3200,1.999
30.3600,2.230
30.4000,2.164
30.4400,2.087
30.4800,2.019
30.5200,2.164
30.5600,2.041
30.6000,2.065
30.6400,2.025
30.6800,2.145
30.7200,2.167
30.7600,2.160
30.8000,2.078
30.8400,2.076
30.8800,2.026
30.9200,2.126
30.9600,2.102
31.0000,2.061
31.0400,2.146
31.0800,2.082
31.1200,2.054
31.1600,2.182
31.2000,2.160
31.2400,2.208
31.2800,2.161
31.3200,2.202
31.3600,2.315
31.4000,2.293
31.4400,2.196
31.4800,2.159
31.5200,2.324
31.5600,2.496
31.6000,2.383
31.6400,2.586
31.6800,2.570
31.7200,2.648
31.7600,2.622
31.8000,2.663
31.8400,2.654
31.8800,2.724
31.9200,2.662
31.9600,2.776
32.0000,2.598
32.0400,2.587
32.0800,2.634
32.1200,2.566
32.1600,2.676
32.2000,2.473
32.2400,2.467
32.2800,2.595
32.3200,2.377
32.3600,2.391
32.4000,2.342
32.4400,2.357
32.4800,2.210
32.5200,2.324
32.5600,2.293
32.6000,2.157
32.6400,2.217
32.6800,2.122
32.7200,2.082
32.7600,2.089
32.8000,2.065
32.8400,2.046
32.8800,2.146
32.9200,2.188
32.9600,2.043
33.0000,2.052
33.0400,2.024
33.0800,2.035
33.1200,1.986
33.1600,1.997
33.2000,1.965
33.2400,2.067
33.2800,1.980
33.3200,1.979
33.3600,1.988
33.4000,1.913
33.4400,2.022
33.4800,2.043
33.5200,1.990
33.5600,1.958
33.6000,1.984
33.6400,2.201
33.6800,2.138
33.7200,2.094
33.7600,2.042
33.8000,1.992
33.8400,2.059
33.8800,2.125
33.9200,2.152
33.9600,2.151
34.0000,2.147
34.0400,2.303
34.0800,2.241
34.1200,2.285
34.1600,2.394
34.2000,2.363
34.2400,2.320
34.2800,2.380
34.3200,2.371
34.3600,2.407
34.4000,2.467
34.4400,2.427
34.4800,2.505
34.5200,2.439
34.5600,2.516
34.6000,2.439
34.6400,2.435
34.6800,2.393
34.7200,2.399
34.7600,2.474
34.8000,2.383
34.8400,2.305
34.8800,2.341
34.9200,2.241
34.9600,2.253
35.0000,2.169
35.0400,2.247
35.0800,2.326
35.1200,2.200
35.1600,2.249
35.2000,2.178
35.2400,2.169
35.2800,2.088
35.3200,2.257
35.3600,2.228
35.4000,2.270
35.4400,2.314
35.4800,2.200
35.5200,2.229
35.5600,2.296
35.6000,2.270
35.6400,2.216
35.6800,2.282
35.7200,2.325
35.7600,2.350
35.8000,2.303
35.8400,2.334
35.8800,2.466
35.9200,2.522
35.9600,2.536
36.0000,2.560
36.0400,2.721
36.0800,2.769
36.1200,2.693
36.1600,2.835
36.2000,2.792
36.2400,2.921
36.2800,2.940
36.3200,2.999
36.3600,2.913
36.4000,2.915
36.4400,2.927
36.4800,2.838
36.5200,2.754
36.5600,2.674
36.6000,2.813
36.6400,2.618
36.6800,2.567
36.7200,2.555
36.7600,2.512
36.8000,2.421
36.8400,2.458
36.8800,2.471
36.9200,2.328
36.9600,2.382
37.0000,2.200
37.0400,2.255
37.0800,2.152
37.1200,2.152
37.1600,2.166
37.2000,2.141
37.2400,2.160
37.2800,2.071
37.3200,1.958
37.3600,1.999
37.4000,1.979
37.4400,1.948
37.4800,1.940
37.5200,1.926
37.5600,1.896
37.6000,1.847
37.6400,1.850
37.6800,1.872
37.7200,1.914
37.7600,1.875
37.8000,1.825
37.8400,1.819
37.8800,1.943
37.9200,1.891
37.9600,1.872
38.0000,1.759
38.0400,1.861
38.0800,1.767
38.1200,1.859
38.1600,1.902
38.2000,1.859
38.2400,1.915
38.2800,1.795
38.3200,1.828
38.3600,1.959
38.4000,1.854
38.4400,1.874
38.4800,1.801
38.5200,1.951
38.5600,1.876
38.6000,1.816
38.6400,1.819
38.6800,1.951
38.7200,1.890
38.7600,1.870
38.8000,1.866
38.8400,1.893
38.8800,1.920
38.9200,1.886
38.9600,1.945
39.0000,2.049
39.0400,1.990
39.0800,2.153
39.1200,2.027
39.1600,2.116
39.2000,2.172
39.2400,2.156
39.2800,2.194
39.3200,2.274
39.3600,2.333
39.4000,2.312
39.4400,2.373
39.4800,2.549
39.5200,2.556
39.5600,2.649
39.6000,2.655
39.6400,2.422
39.6800,2.467
39.7200,2.588
39.7600,2.601
39.8000,2.544
39.8400,2.492
39.8800,2.773
39.9200,2.750
39.9600,2.684
40.0000,2.955
40.0400,2.948
40.0800,3.019
40.1200,3.204
40.1600,3.300
40.2000,3.350
40.2400,3.532
40.2800,3.899
40.3200,3.896
40.3600,4.274
40.4000,4.718
40.4400,5.243
40.4800,5.815
40.5200,6.609
40.5600,7.679
40.6000,9.126
40.6400,10.673
40.6800,13.171
40.7200,16.194
40.7600,19.577
40.8000,23.265
40.8400,27.376
40.8800,30.967
40.9200,33.058
40.9600,33.984
41.0000,33.527
41.0400,30.506
41.0800,27.839
41.1200,23.974
41.1600,19.894
41.2000,16.348
41.2400,13.566
41.2800,11.040
41.3200,9.054
41.3600,7.519
41.4000,6.484
41.4400,5.530
41.4800,4.836
41.5200,4.408
41.5600,4.134
41.6000,3.841
41.6400,3.599
41.6800,3.453
41.7200,3.102
41.7600,2.999
41.8000,2.954
41.8400,2.757
41.8800,2.564
41.9200,2.551
41.9600,2.575
42.0000,2.467
42.0400,2.368
42.0800,2.215
42.1200,2.213
42.1600,2.119
42.2000,2.138
42.2400,2.027
42.2800,2.014
42.3200,1.944
42.3600,1.845
42.4000,1.946
42.4400,1.886
42.4800,1.783
42.5200,1.782
42.5600,1.715
42.6000,1.717
42.6400,1.742
42.6800,1.635
42.7200,1.687
42.7600,1.538
42.8000,1.573
42.8400,1.647
42.8800,1.568
42.9200,1.558
42.9600,1.515
43.0000,1.574
43.0400,1.396
43.0800,1.506
43.1200,1.542
43.1600,1.582
43.2000,1.570
43.2400,1.411
43.2800,1.489
43.3200,1.443
43.3600,1.418
43.4000,1.437
43.4400,1.496
43.4800,1.425
43.5200,1.512
43.5600,1.381
43.6000,1.392
43.6400,1.384
43.6800,1.360
43.7200,1.405
43.7600,1.361
43.8000,1.401
43.8400,1.389
43.8800,1.374
43.9200,1.355
43.9600,1.387
44.0000,1.380
44.0400,1.316
44.0800,1.351
44.1200,1.394
44.1600,1.234
44.2000,1.265
44.2400,1.330
44.2800,1.351
44.3200,1.270
44.3600,1.393
44.4000,1.321
44.4400,1.265
44.4800,1.228
44.5200,1.306
44.5600,1.312
44.6000,1.212
44.6400,1.334
44.6800,1.335
44.7200,1.324
44.7600,1.346
44.8000,1.299
44.8400,1.289
44.8800,1.319
44.9200,1.267
44.9600,1.263
45.0000,1.217
45.0400,1.221
45.0800,1.246
45.1200,1.192
45.1600,1.315
45.2000,1.255
45.2400,1.279
45.2800,1.244
45.3200,1.350
45.3600,1.222
45.4000,1.218
45.4400,1.187
45.4800,1.203
45.5200,1.228
45.5600,1.274
45.6000,1.267
45.6400,1.269
45.6800,1.234
45.7200,1.181
45.7600,1.264
45.8000,1.222
45.8400,1.204
45.8800,1.289
45.9200,1.297
45.9600,1.196
46.0000,1.194
46.0400,1.120
46.0800,1.212
46.1200,1.165
46.1600,1.161
46.2000,1.204
46.2400,1.209
46.2800,1.266
46.3200,1.190
46.3600,1.222
46.4000,1.213
46.4400,1.154
46.4800,1.171
46.5200,1.178
46.5600,1.217
46.6000,1.227
46.6400,1.142
46.6800,1.202
46.7200,1.201
46.7600,1.204
46.8000,1.242
46.8400,1.157
46.8800,1.167
46.9200,1.130
46.9600,1.256
47.0000,1.210
47.0400,1.181
47.0800,1.196
47.1200,1.167
47.1600,1.197
47.2000,1.175
47.2400,1.218
47.2800,1.200
47.3200,1.170
47.3600,1.178
47.4000,1.137
47.4400,1.182
47.4800,1.239
47.5200,1.183
47.5600,1.200
47.6000,1.237
47.6400,1.230
47.6800,1.116
47.7200,1.167
47.7600,1.224
47.8000,1.171
47.8400,1.189
47.8800,1.177
47.9200,1.252
47.9600,1.217
48.0000,1.203
48.0400,1.204
48.0800,1.171
48.1200,1.144
48.1600,1.158
48.2000,1.217
48.2400,1.137
48.2800,1.117
48.3200,1.139
48.3600,1.154
48.4000,1.102
48.4400,1.075
48.4800,1.102
48.5200,1.076
48.5600,1.112
48.6000,1.109
48.6400,1.170
48.6800,1.101
48.7200,1.053
48.7600,1.060
48.8000,1.051
48.8400,1.015
48.8800,1.111
48.9200,1.038
48.9600,1.064
49.0000,1.050
49.0400,1.126
49.0800,1.078
49.1200,1.041
49.1600,1.091
49.2000,1.050
49.2400,1.004
49.2800,1.055
49.3200,1.020
49.3600,1.011
49.4000,1.024
49.4400,0.953
49.4800,1.098
49.5200,1.032
49.5600,0.985
49.6000,1.027
49.6400,1.085
49.6800,1.062
49.7200,1.043
49.7600,1.055
49.8000,1.087
49.8400,1.038
49.8800,1.139
49.9200,1.196
49.9600,1.106
50.0000,1.113
50.0400,1.129
50.0800,1.142
50.1200,1.217
50.1600,1.198
50.2000,1.281
50.2400,1.311
50.2800,1.426
50.3200,1.460
50.3600,1.539
50.4000,1.738
50.4400,2.004
50.4800,2.485
50.5200,2.812
50.5600,3.188
50.6000,3.622
50.6400,3.741
50.6800,3.700
50.7200,3.665
50.7600,3.347
50.8000,2.990
50.8400,2.600
50.8800,2.346
50.9200,2.044
50.9600,1.756
51.0000,1.552
51.0400,1.435
51.0800,1.310
51.1200,1.218
51.1600,1.189
51.2000,1.162
51.2400,1.159
51.2800,1.120
51.3200,1.098
51.3600,1.052
51.4000,1.068
51.4400,1.004
51.4800,0.972
51.5200,1.069
51.5600,1.005
51.6000,0.994
51.6400,0.969
51.6800,0.942
51.7200,0.920
51.7600,0.971
51.8000,0.993
51.8400,1.040
51.8800,0.922
51.9200,0.877
51.9600,0.904
52.0000,0.919
52.0400,0.980
52.0800,0.942
52.1200,0.966
52.1600,0.896
52.2000,0.913
52.2400,0.888
52.2800,0.909
52.3200,0.869
52.3600,0.976
52.4000,0.935
52.4400,0.927
52.4800,0.929
52.5200,0.873
52.5600,0.833
52.6000,0.868
52.6400,0.877
52.6800,0.918
52.7200,0.940
52.7600,0.866
52.8000,0.920
52.8400,0.857
52.8800,0.851
52.9200,0.880
52.9600,0.859
53.0000,0.865
53.0400,0.942
53.0800,0.905
53.1200,0.883
53.1600,0.802
53.2000,0.865
53.2400,0.862
53.2800,0.908
53.3200,0.875
53.3600,0.933
53.4000,0.902
53.4400,0.866
53.4800,0.917
53.5200,0.858
53.5600,0.833
53.6000,0.879
53.6400,0.890
53.6800,0.891
53.7200,0.925
53.7600,0.896
53.8000,0.764
53.8400,0.851
53.8800,0.815
53.9200,0.872
53.9600,0.805
54.0000,0.810
54.0400,0.887
54.0800,0.894
54.1200,0.841
54.1600,0.849
54.2000,0.830
54.2400,0.882
54.2800,0.846
54.3200,0.813
54.3600,0.782
54.4000,0.818
54.4400,0.870
54.4800,0.824
54.5200,0.812
54.5600,0.880
54.6000,0.927
54.6400,0.854
54.6800,0.791
54.7200,0.874
54.7600,0.872
54.8000,0.853
54.8400,0.814
54.8800,0.820
54.9200,0.827
54.9600,0.931
55.0000,0.860
55.0400,0.821
55.0800,0.827
55.1200,0.791
55.1600,0.810
55.2000,0.815
55.2400,0.847
55.2800,0.865
55.3200,0.790
55.3600,0.845
55.4000,0.843
55.4400,0.864
55.4800,0.874
55.5200,0.912
55.5600,0.857
55.6000,0.811
55.6400,0.894
55.6800,0.890
55.7200,0.908
55.7600,0.904
55.8000,0.874
55.8400,0.872
55.8800,0.878
55.9200,0.944
55.9600,0.871
56.0000,0.951
56.0400,0.925
56.0800,0.917
56.1200,0.949
56.1600,0.984
56.2000,1.053
56.2400,1.042
56.2800,1.021
56.3200,1.041
56.3600,1.095
56.4000,1.211
56.4400,1.123
56.4800,1.125
56.5200,1.158
56.5600,1.201
56.6000,1.260
56.6400,1.176
56.6800,1.315
56.7200,1.211
56.7600,1.235
56.8000,1.296
56.8400,1.202
56.8800,1.245
56.9200,1.158
56.9600,1.155
57.0000,1.192
57.0400,1.196
57.0800,1.153
57.1200,1.063
57.1600,1.164
57.2000,1.074
57.2400,1.026
57.2800,1.070
57.3200,1.038
57.3600,1.071
57.4000,0.984
57.4400,0.970
57.4800,1.064
57.5200,0.949
57.5600,0.975
57.6000,0.937
57.6400,0.932
57.6800,0.996
57.7200,0.958
57.7600,0.885
57.8000,0.887
57.8400,0.946
57.8800,0.994
57.9200,0.928
57.9600,0.898
58.0000,0.962
58.0400,0.880
58.0800,0.975
58.1200,0.884
58.1600,0.988
58.2000,0.957
58.2400,0.884
58.2800,0.998
58.3200,0.990
58.3600,0.972
58.4000,1.022
58.4400,1.062
58.4800,1.047
58.5200,1.082
58.5600,1.155
58.6000,1.112
58.6400,1.244
58.6800,1.361
58.7200,1.262
58.7600,1.404
58.8000,1.453
58.8400,1.500
58.8800,1.628
58.9200,1.705
58.9600,1.699
59.0000,1.840
59.0400,2.011
59.0800,2.075
59.1200,2.183
59.1600,2.412
59.2000,2.456
59.2400,2.611
59.2800,2.673
59.3200,2.691
59.3600,2.887
59.4000,2.735
59.4400,2.840
59.4800,2.753
59.5200,2.775
59.5600,2.767
59.6000,2.681
59.6400,2.594
59.6800,2.522
59.7200,2.346
59.7600,2.171
59.8000,2.160
59.8400,2.140
59.8800,1.918
59.9200,1.781
59.9600,1.665
60.0000,1.589
60.0400,1.492
60.0800,1.420
60.1200,1.336
60.1600,1.293
60.2000,1.213
60.2400,1.216
60.2800,1.166
60.3200,1.094
60.3600,1.088
60.4000,0.944
60.4400,1.007
60.4800,0.921
60.5200,0.927
60.5600,0.852
60.6000,0.840
60.6400,0.891
60.6800,0.856
60.7200,0.789
60.7600,0.879
60.8000,0.871
60.8400,0.868
60.8800,0.819
60.9200,0.806
60.9600,0.759
61.0000,0.768
61.0400,0.776
61.0800,0.769
61.1200,0.747
61.1600,0.762
61.2000,0.799
61.2400,0.750
61.2800,0.776
61.3200,0.756
61.3600,0.832
61.4000,0.792
61.4400,0.773
61.4800,0.763
61.5200,0.724
61.5600,0.709
61.6000,0.748
61.6400,0.729
61.6800,0.821
61.7200,0.880
61.7600,0.791
61.8000,0.799
61.8400,0.800
61.8800,0.736
61.9200,0.735
61.9600,0.747
62.0000,0.782
62.0400,0.771
62.0800,0.815
62.1200,0.803
62.1600,0.806
62.2000,0.822
62.2400,0.764
62.2800,0.802
62.3200,0.790
62.3600,0.803
62.4000,0.779
62.4400,0.799
62.4800,0.811
62.5200,0.842
62.5600,0.837
62.6000,0.833
62.6400,0.838
62.6800,0.822
62.7200,0.889
62.7600,0.820
62.8000,0.801
62.8400,0.898
62.8800,0.850
62.9200,0.829
62.9600,0.805
63.0000,0.822
63.0400,0.833
63.0800,0.916
63.1200,0.814
63.1600,0.881
63.2000,0.884
63.2400,0.829
63.2800,0.791
63.3200,0.845
63.3600,0.794
63.4000,0.790
63.4400,0.812
63.4800,0.807
63.5200,0.848
63.5600,0.756
63.6000,0.798
63.6400,0.799
63.6800,0.759
63.7200,0.758
63.7600,0.729
63.8000,0.799
63.8400,0.739
63.8800,0.767
63.9200,0.713
63.9600,0.747
64.0000,0.727
64.0400,0.741
64.0800,0.766
64.1200,0.701
64.1600,0.701
64.2000,0.747
64.2400,0.705
64.2800,0.685
64.3200,0.643
64.3600,0.749
64.4000,0.676
64.4400,0.682
64.4800,0.719
64.5200,0.680
64.5600,0.661
64.6000,0.659
64.6400,0.671
64.6800,0.715
64.7200,0.705
64.7600,0.730
64.8000,0.660
64.8400,0.712
64.8800,0.723
64.9200,0.662
64.9600,0.697
65.0000,0.720
65.0400,0.733
65.0800,0.706
65.1200,0.699
65.1600,0.691
65.2000,0.712
65.2400,0.752
65.2800,0.664
65.3200,0.680
65.3600,0.729
65.4000,0.730
65.4400,0.693
65.4800,0.709
65.5200,0.736
65.5600,0.661
65.6000,0.758
65.6400,0.739
65.6800,0.693
65.7200,0.766
65.7600,0.781
65.8000,0.761
65.8400,0.839
65.8800,0.791
65.9200,0.741
65.9600,0.816
66.0000,0.780
66.0400,0.851
66.0800,0.824
66.1200,0.867
66.1600,0.851
66.2000,0.888
66.2400,0.973
66.2800,0.930
66.3200,0.877
66.3600,1.015
66.4000,0.995
66.4400,1.074
66.4800,1.046
66.5200,1.106
66.5600,1.246
66.6000,1.295
66.6400,1.360
66.6800,1.423
66.7200,1.433
66.7600,1.513
66.8000,1.596
66.8400,1.809
66.8800,1.814
66.9200,1.920
66.9600,2.033
67.0000,2.073
67.0400,2.226
67.0800,2.277
67.1200,2.361
67.1600,2.332
67.2000,2.312
67.2400,2.195
67.2800,2.216
67.3200,2.343
67.3600,2.219
67.4000,2.223
67.4400,2.015
67.4800,1.929
67.5200,1.940
67.5600,1.821
67.6000,1.772
67.6400,1.682
67.6800,1.627
67.7200,1.577
67.7600,1.536
67.8000,1.491
67.8400,1.381
67.8800,1.409
67.9200,1.431
67.9600,1.313
68.0000,1.405
68.0400,1.407
68.0800,1.392
68.1200,1.290
68.1600,1.374
68.2000,1.365
68.2400,1.333
68.2800,1.432
68.3200,1.372
68.3600,1.376
68.4000,1.315
68.4400,1.355
68.4800,1.406
68.5200,1.512
68.5600,1.451
68.6000,1.497
68.6400,1.507
68.6800,1.660
68.7200,1.785
68.7600,1.988
68.8000,2.460
68.8400,2.707
68.8800,3.066
68.9200,3.146
68.9600,3.450
69.0000,4.614
69.0400,6.747
69.0800,12.543
69.1200,32.213
69.1600,101.039
69.2000,140.383
69.2400,74.418
69.2800,27.802
69.3200,26.655
69.3600,57.242
69.4000,70.426
69.4400,36.403
69.4800,12.531
69.5200,6.414
69.5600,4.170
69.6000,3.248
69.6400,2.567
69.6800,2.227
69.7200,2.016
69.7600,1.704
69.8000,1.674
69.8400,1.521
69.8800,1.474
69.9200,1.432
69.9600,1.310
70.0000,1.278
70.0400,1.226
70.0800,1.164
70.1200,1.261
70.1600,1.108
70.2000,1.080
70.2400,1.128
70.2800,0.977
70.3200,1.057
70.3600,1.123
70.4000,0.988
70.4400,0.953
70.4800,0.939
70.5200,0.955
70.5600,0.963
70.6000,0.895
70.6400,0.921
70.6800,0.926
70.7200,0.891
70.7600,0.884
70.8000,0.835
70.8400,0.878
70.8800,0.884
70.9200,0.837
70.9600,0.846
71.0000,0.812
71.0400,0.842
71.0800,0.828
71.1200,0.836
71.1600,0.761
71.2000,0.765
71.2400,0.746
71.2800,0.770
71.3200,0.724
71.3600,0.772
71.4000,0.762
71.4400,0.776
71.4800,0.765
71.5200,0.753
71.5600,0.782
71.6000,0.784
71.6400,0.724
71.6800,0.722
71.7200,0.748
71.7600,0.771
71.8000,0.700
71.8400,0.697
71.8800,0.694
71.9200,0.705
71.9600,0.721
72.0000,0.690
72.0400,0.681
72.0800,0.717
72.1200,0.740
72.1600,0.747
72.2000,0.699
72.2400,0.667
72.2800,0.756
72.3200,0.798
72.3600,0.714
72.4000,0.707
72.4400,0.691
72.4800,0.719
72.5200,0.714
72.5600,0.712
72.6000,0.746
72.6400,0.766
72.6800,0.825
72.7200,0.729
72.7600,0.709
72.8000,0.691
72.8400,0.722
72.8800,0.716
72.9200,0.728
72.9600,0.817
73.0000,0.719
73.0400,0.827
73.0800,0.766
73.1200,0.798
73.1600,0.818
73.2000,0.857
73.2400,0.816
73.2800,0.798
73.3200,0.843
73.3600,0.865
73.4000,0.885
73.4400,0.972
73.4800,0.942
73.5200,0.976
73.5600,0.988
73.6000,1.068
73.6400,1.085
73.6800,1.116
73.7200,1.180
73.7600,1.268
73.8000,1.431
73.8400,1.507
73.8800,1.613
73.9200,1.757
73.9600,1.946
74.0000,2.225
74.0400,2.424
74.0800,2.621
74.1200,2.813
74.1600,3.055
74.2000,3.473
74.2400,3.877
74.2800,4.019
74.3200,4.413
74.3600,4.563
74.4000,4.641
74.4400,4.873
74.4800,4.919
74.5200,4.856
74.5600,4.935
74.6000,4.714
74.6400,4.346
74.6800,4.295
74.7200,4.056
74.7600,3.849
74.8000,3.370
74.8400,3.252
74.8800,2.933
74.9200,2.535
74.9600,2.288
75.0000,2.194
75.0400,1.947
75.0800,1.742
75.1200,1.629
75.1600,1.474
75.2000,1.459
75.2400,1.243
75.2800,1.157
75.3200,1.070
75.3600,1.095
75.4000,1.030
75.4400,0.983
75.4800,0.990
75.5200,0.933
75.5600,0.821
75.6000,0.751
75.6400,0.851
75.6800,0.804
75.7200,0.798
75.7600,0.699
75.8000,0.708
75.8400,0.727
75.8800,0.722
75.9200,0.736
75.9600,0.633
76.0000,0.658
76.0400,0.685
76.0800,0.615
76.1200,0.648
76.1600,0.637
76.2000,0.617
76.2400,0.641
76.2800,0.662
76.3200,0.633
76.3600,0.610
76.4000,0.627
76.4400,0.594
76.4800,0.656
76.5200,0.569
76.5600,0.575
76.6000,0.573
76.6400,0.567
76.6800,0.620
76.7200,0.584
76.7600,0.574
76.8000,0.562
76.8400,0.573
76.8800,0.603
76.9200,0.577
76.9600,0.603
77.0000,0.583
77.0400,0.564
77.0800,0.553
77.1200,0.534
77.1600,0.534
77.2000,0.535
77.2400,0.491
77.2800,0.556
77.3200,0.536
77.3600,0.547
77.4000,0.498
77.4400,0.585
77.4800,0.533
77.5200,0.506
77.5600,0.544
77.6000,0.517
77.6400,0.493
77.6800,0.485
77.7200,0.535
77.7600,0.553
77.8000,0.502
77.8400,0.481
77.8800,0.474
77.9200,0.532
77.9600,0.529
78.0000,0.476
78.0400,0.520
78.0800,0.487
78.1200,0.495
78.1600,0.493
78.2000,0.512
78.2400,0.488
78.2800,0.458
78.3200,0.476
78.3600,0.466
78.4000,0.503
78.4400,0.475
78.4800,0.458
78.5200,0.525
78.5600,0.499
78.6000,0.525
78.6400,0.454
78.6800,0.448
78.7200,0.482
78.7600,0.522
78.8000,0.506
78.8400,0.513
78.8800,0.478
78.9200,0.461
78.9600,0.427
79.0000,0.445
79.0400,0.483
79.0800,0.463
79.1200,0.456
79.1600,0.471
79.2000,0.534
79.2400,0.463
79.2800,0.498
79.3200,0.455
79.3600,0.507
79.4000,0.466
79.4400,0.425
79.4800,0.421
79.5200,0.478
79.5600,0.434
79.6000,0.440
79.6400,0.442
79.6800,0.508
79.7200,0.417
79.7600,0.469
79.8000,0.471
79.8400,0.433
79.8800,0.403
79.9200,0.451
79.9600,0.481
80.0000,0.442
