theta,intensity
5.0000,6.471
5.0400,6.542
5.0800,6.537
5.1200,6.411
5.1600,6.312
5.2000,6.333
5.2400,6.179
5.2800,6.231
5.3200,6.387
5.3600,6.117
5.4000,6.144
5.4400,6.045
5.4800,5.994
5.5200,5.927
5.5600,5.994
5.6000,5.751
5.6400,5.786
5.6800,5.741
5.7200,5.579
5.7600,5.446
5.8000,5.448
5.8400,5.332
5.8800,5.330
5.9200,5.298
5.9600,5.102
6.0000,5.239
6.0400,5.075
6.0800,5.076
6.1200,5.051
6.1600,4.930
6.2000,4.871
6.2400,4.886
6.2800,4.572
6.3200,4.640
6.3600,4.606
6.4000,4.420
6.4400,4.485
6.4800,4.436
6.5200,4.334
6.5600,4.290
6.6000,4.365
6.6400,4.332
6.6800,4.193
6.7200,4.241
6.7600,4.255
6.8000,4.171
6.8400,4.247
6.8800,4.100
6.9200,4.094
6.9600,4.163
7.0000,4.140
7.0400,4.165
7.0800,4.210
7.1200,4.208
7.1600,4.039
7.2000,4.103
7.2400,4.069
7.2800,4.140
7.3200,4.078
7.3600,4.176
7.4000,4.164
7.4400,4.074
7.4800,4.073
7.5200,4.051
7.5600,4.084
7.6000,4.042
7.6400,4.069
7.6800,4.063
7.7200,3.986
7.7600,4.039
7.8000,4.045
7.8400,4.013
7.8800,4.053
7.9200,3.994
7.9600,3.967
8.0000,4.083
8.0400,3.915
8.0800,4.037
8.1200,4.062
8.1600,3.908
8.2000,3.940
8.2400,3.984
8.2800,4.018
8.3200,3.909
8.3600,3.872
8.4000,3.919
8.4400,4.020
8.4800,3.777
8.5200,4.046
8.5600,3.958
8.6000,4.015
8.6400,3.892
8.6800,3.967
8.7200,3.846
8.7600,3.806
8.8000,3.931
8.8400,3.973
8.8800,3.894
8.9200,3.949
8.9600,3.925
9.0000,3.799
9.0400,3.788
9.0800,3.857
9.1200,3.872
9.1600,3.883
9.2000,3.754
9.2400,3.767
9.2800,3.796
9.3200,3.836
9.3600,3.883
9.4000,3.809
9.4400,3.895
9.4800,3.865
9.5200,3.715
9.5600,3.912
9.6000,3.739
9.6400,3.848
9.6800,3.815
9.7200,3.845
9.7600,3.765
9.8000,3.748
9.8400,3.745
9.8800,3.743
9.9200,3.697
9.9600,3.768
10.0000,3.757
10.0400,3.809
10.0800,3.772
10.1200,3.848
10.1600,3.833
10.2000,3.679
10.2400,3.770
10.2800,3.697
10.3200,3.714
10.3600,3.718
10.4000,3.782
10.4400,3.709
10.4800,3.761
10.5200,3.697
10.5600,3.776
10.6000,3.686
10.6400,3.749
10.6800,3.760
10.7200,3.661
10.7600,3.702
10.8000,3.606
10.8400,3.703
10.8800,3.578
10.9200,3.628
10.9600,3.753
11.0000,3.704
11.0400,3.670
11.0800,3.663
11.1200,3.481
11.1600,3.661
11.2000,3.524
11.2400,3.580
11.2800,3.597
11.3200,3.471
11.3600,3.629
11.4000,3.592
11.4400,3.585
11.4800,3.571
11.5200,3.604
11.5600,3.601
11.6000,3.600
11.6400,3.554
11.6800,3.668
11.7200,3.643
11.7600,3.587
11.8000,3.578
11.8400,3.570
11.8800,3.523
11.9200,3.586
11.9600,3.635
12.0000,3.544
12.0400,3.623
12.0800,3.521
12.1200,3.493
12.1600,3.473
12.2000,3.550
12.2400,3.510
12.2800,3.518
12.3200,3.586
12.3600,3.528
12.4000,3.528
12.4400,3.431
12.4800,3.578
12.5200,3.443
12.5600,3.480
12.6000,3.429
12.6400,3.588
12.6800,3.508
12.7200,3.358
12.7600,3.518
12.8000,3.514
12.8400,3.437
12.8800,3.475
12.9200,3.424
12.9600,3.458
13.0000,3.388
13.0400,3.379
13.0800,3.488
13.1200,3.429
13.1600,3.352
13.2000,3.510
13.2400,3.367
13.2800,3.370
13.3200,3.409
13.3600,3.424
13.4000,3.393
13.4400,3.448
13.4800,3.419
13.5200,3.458
13.5600,3.476
13.6000,3.475
13.6400,3.447
13.6800,3.339
13.7200,3.321
13.7600,3.363
13.8000,3.415
13.8400,3.352
13.8800,3.264
13.9200,3.398
13.9600,3.343
14.0000,3.335
14.0400,3.347
14.0800,3.236
14.1200,3.385
14.1600,3.286
14.2000,3.336
14.2400,3.277
14.2800,3.355
14.3200,3.393
14.3600,3.374
14.4000,3.409
14.4400,3.264
14.4800,3.305
14.5200,3.300
14.5600,3.365
14.6000,3.266
14.6400,3.330
14.6800,3.294
14.7200,3.270
14.7600,3.273
14.8000,3.266
14.8400,3.276
14.8800,3.262
14.9200,3.224
14.9600,3.216
15.0000,3.239
15.0400,3.308
15.0800,3.168
15.1200,3.285
15.1600,3.221
15.2000,3.194
15.2400,3.230
15.2800,3.277
15.3200,3.111
15.3600,3.186
15.4000,3.103
15.4400,3.215
15.4800,3.250
15.5200,3.136
15.5600,3.136
15.6000,3.211
15.6400,3.188
15.6800,3.162
15.7200,3.243
15.7600,3.085
15.8000,3.063
15.8400,3.148
15.8800,3.168
15.9200,3.224
15.9600,3.087
16.0000,3.063
16.0400,3.238
16.0800,3.146
16.1200,3.157
16.1600,3.108
16.2000,3.080
16.2400,3.071
16.2800,3.089
16.3200,3.140
16.3600,3.192
16.4000,3.103
16.4400,3.083
16.4800,3.137
16.5200,3.117
16.5600,3.104
16.6000,3.069
16.6400,3.084
16.6800,3.180
16.7200,3.102
16.7600,3.070
16.8000,3.079
16.8400,3.035
16.8800,3.110
16.9200,3.041
16.9600,3.028
17.0000,3.100
17.0400,3.126
17.0800,2.968
17.1200,3.068
17.1600,2.916
17.2000,3.004
17.2400,3.059
17.2800,3.076
17.3200,3.020
17.3600,2.914
17.4000,2.970
17.4400,3.007
17.4800,2.917
17.5200,2.880
17.5600,2.994
17.6000,2.966
17.6400,2.872
17.6800,2.891
17.7200,2.909
17.7600,3.032
17.8000,2.920
17.8400,2.991
17.8800,2.943
17.9200,3.009
17.9600,2.948
18.0000,2.837
18.0400,2.969
18.0800,2.876
18.1200,2.961
18.1600,2.935
18.2000,2.979
18.2400,2.921
18.2800,2.981
18.3200,2.913
18.3600,2.914
18.4000,2.919
18.4400,2.830
18.4800,2.882
18.5200,2.975
18.5600,2.883
18.6000,2.908
18.6400,2.808
18.6800,2.939
18.7200,2.841
18.7600,2.998
18.8000,2.864
18.8400,2.819
18.8800,2.835
18.9200,2.837
18.9600,2.769
19.0000,2.845
19.0400,2.853
19.0800,2.900
19.1200,2.805
19.1600,2.849
19.2000,2.787
19.2400,2.787
19.2800,2.791
19.3200,2.805
19.3600,2.823
19.4000,2.846
19.4400,2.769
19.4800,2.779
19.5200,2.786
19.5600,2.768
19.6000,2.790
19.6400,2.844
19.6800,2.810
19.7200,2.833
19.7600,2.801
19.8000,2.715
19.8400,2.777
19.8800,2.806
19.9200,2.710
19.9600,2.675
20.0000,2.766
20.0400,2.673
20.0800,2.727
20.1200,2.653
20.1600,2.697
20.2000,2.806
20.2400,2.664
20.2800,2.767
20.3200,2.792
20.3600,2.695
20.4000,2.688
20.4400,2.759
20.4800,2.738
20.5200,2.700
20.5600,2.540
20.6000,2.651
20.6400,2.688
20.6800,2.731
20.7200,2.689
20.7600,2.671
20.8000,2.703
20.8400,2.761
20.8800,2.716
20.9200,2.535
20.9600,2.695
21.0000,2.743
21.0400,2.699
21.0800,2.737
21.1200,2.614
21.1600,2.742
21.2000,2.707
21.2400,2.591
21.2800,2.627
21.3200,2.628
21.3600,2.543
21.4000,2.597
21.4400,2.646
21.4800,2.669
21.5200,2.667
21.5600,2.575
21.6000,2.537
21.6400,2.587
21.6800,2.583
21.7200,2.619
21.7600,2.598
21.8000,2.689
21.8400,2.606
21.8800,2.587
21.9200,2.566
21.9600,2.598
22.0000,2.546
22.0400,2.645
22.0800,2.627
22.1200,2.608
22.1600,2.577
22.2000,2.430
22.2400,2.577
22.2800,2.445
22.3200,2.546
22.3600,2.575
22.4000,2.570
22.4400,2.532
22.4800,2.479
22.5200,2.512
22.5600,2.496
22.6000,2.449
22.6400,2.614
22.6800,2.507
22.7200,2.458
22.7600,2.530
22.8000,2.629
22.8400,2.386
22.8800,2.533
22.9200,2.513
22.9600,2.517
23.0000,2.448
23.0400,2.508
23.0800,2.436
23.1200,2.505
23.1600,2.422
23.2000,2.416
23.2400,2.503
23.2800,2.477
23.3200,2.324
23.3600,2.474
23.4000,2.464
23.4400,2.430
23.4800,2.465
23.5200,2.436
23.5600,2.424
23.6000,2.387
23.6400,2.441
23.6800,2.390
23.7200,2.401
23.7600,2.451
23.8000,2.422
23.8400,2.394
23.8800,2.422
23.9200,2.407
23.9600,2.371
24.0000,2.417
24.0400,2.341
24.0800,2.461
24.1200,2.439
24.1600,2.391
24.2000,2.401
24.2400,2.356
24.2800,2.321
24.3200,2.314
24.3600,2.363
24.4000,2.309
24.4400,2.383
24.4800,2.359
24.5200,2.415
24.5600,2.324
24.6000,2.321
24.6400,2.345
24.6800,2.335
24.7200,2.352
24.7600,2.278
24.8000,2.312
24.8400,2.336
24.8800,2.271
24.9200,2.314
24.9600,2.238
25.0000,2.294
25.0400,2.192
25.0800,2.265
25.1200,2.324
25.1600,2.320
25.2000,2.314
25.2400,2.206
25.2800,2.254
25.3200,2.261
25.3600,2.241
25.4000,2.334
25.4400,2.342
25.4800,2.308
25.5200,2.251
25.5600,2.219
25.6000,2.180
25.6400,2.220
25.6800,2.282
25.7200,2.269
25.7600,2.207
25.8000,2.248
25.8400,2.170
25.8800,2.212
25.9200,2.224
25.9600,2.237
26.0000,2.258
26.0400,2.295
26.0800,2.212
26.1200,2.264
26.1600,2.157
26.2000,2.164
26.2400,2.198
26.2800,2.173
26.3200,2.162
26.3600,2.192
26.4000,2.204
26.4400,2.098
26.4800,2.174
26.5200,2.164
26.5600,2.171
26.6000,2.147
26.6400,2.096
26.6800,2.198
26.7200,2.208
26.7600,2.149
26.8000,2.136
26.8400,2.176
26.8800,2.175
26.9200,2.099
26.9600,2.094
27.0000,2.082
27.0400,2.244
27.0800,2.124
27.1200,2.174
27.1600,2.126
27.2000,2.083
27.2400,2.156
27.2800,1.994
27.3200,2.078
27.3600,2.106
27.4000,2.087
27.4400,2.109
27.4800,2.094
27.5200,2.113
27.5600,2.176
27.6000,2.135
27.6400,2.060
27.6800,2.064
27.7200,2.058
27.7600,2.063
27.8000,2.054
27.8400,2.087
27.8800,2.088
27.9200,2.037
27.9600,1.982
28.0000,2.051
28.0400,2.135
28.0800,2.106
28.1200,2.040
28.1600,1.980
28.2000,2.104
28.2400,2.076
28.2800,2.054
28.3200,2.096
28.3600,2.019
28.4000,1.953
28.4400,1.999
28.4800,2.077
28.5200,1.987
28.5600,1.951
28.6000,2.016
28.6400,1.969
28.6800,2.062
28.7200,2.000
28.7600,1.976
28.8000,2.012
28.8400,2.021
28.8800,1.931
28.9200,1.946
28.9600,1.926
29.0000,1.981
29.0400,1.926
29.0800,1.996
29.1200,1.910
29.1600,1.924
29.2000,1.930
29.2400,2.006
29.2800,1.971
29.3200,1.955
29.3600,1.956
29.4000,1.959
29.4400,1.988
29.4800,1.903
29.5200,1.946
29.5600,1.890
29.6000,1.908
29.6400,1.868
29.6800,1.992
29.7200,1.916
29.7600,1.842
29.8000,1.951
29.8400,1.875
29.8800,1.823
29.9200,1.897
29.9600,1.874
30.0000,1.901
30.0400,1.878
30.0800,1.892
30.1200,1.920
30.1600,1.899
30.2000,1.957
30.2400,1.894
30.2800,1.849
30.3200,1.860
30.3600,1.933
30.4000,1.898
30.4400,1.833
30.4800,1.858
30.5200,1.912
30.5600,1.845
30.6000,1.890
30.6400,1.960
30.6800,1.937
30.7200,1.925
30.7600,1.958
30.8000,1.908
30.8400,1.898
30.8800,1.960
30.9200,1.914
30.9600,1.946
31.0000,1.998
31.0400,2.050
31.0800,1.880
31.1200,2.043
31.1600,1.992
31.2000,2.051
31.2400,2.034
31.2800,2.174
31.3200,2.065
31.3600,2.151
31.4000,2.203
31.4400,2.049
31.4800,2.301
31.5200,2.307
31.5600,2.441
31.6000,2.501
31.6400,2.667
31.6800,2.865
31.7200,2.916
31.7600,3.035
31.8000,3.051
31.8400,3.049
31.8800,2.933
31.9200,3.013
31.9600,2.825
32.0000,2.647
32.0400,2.542
32.0800,2.401
32.1200,2.363
32.1600,2.260
32.2000,2.194
32.2400,2.197
32.2800,2.175
32.3200,2.201
32.3600,2.232
32.4000,2.150
32.4400,2.086
32.4800,2.010
32.5200,1.996
32.5600,1.923
32.6000,1.946
32.6400,1.926
32.6800,1.956
32.7200,1.924
32.7600,1.947
32.8000,1.911
32.8400,1.902
32.8800,1.833
32.9200,1.956
32.9600,1.881
33.0000,1.911
33.0400,1.814
33.0800,1.880
33.1200,1.824
33.1600,1.766
33.2000,1.857
33.2400,1.806
33.2800,1.850
33.3200,1.861
33.3600,1.784
33.4000,1.806
33.4400,1.912
33.4800,1.778
33.5200,1.896
33.5600,1.844
33.6000,1.815
33.6400,1.869
33.6800,1.846
33.7200,1.819
33.7600,1.840
33.8000,1.888
33.8400,1.976
33.8800,1.969
33.9200,1.984
33.9600,2.043
34.0000,2.049
34.0400,1.994
34.0800,2.133
34.1200,2.184
34.1600,2.251
34.2000,2.293
34.2400,2.321
34.2800,2.363
34.3200,2.292
34.3600,2.346
34.4000,2.368
34.4400,2.333
34.4800,2.380
34.5200,2.416
34.5600,2.368
34.6000,2.317
34.6400,2.178
34.6800,2.149
34.7200,2.149
34.7600,2.178
34.8000,2.147
34.8400,2.004
34.8800,1.971
34.9200,1.978
34.9600,1.876
35.0000,2.041
35.0400,1.902
35.0800,1.902
35.1200,1.932
35.1600,1.946
35.2000,2.007
35.2400,1.956
35.2800,2.027
35.3200,1.908
35.3600,1.985
35.4000,2.017
35.4400,1.966
35.4800,2.020
35.5200,2.040
35.5600,2.039
35.6000,2.128
35.6400,2.140
35.6800,2.089
35.7200,2.177
35.7600,2.248
35.8000,2.312
35.8400,2.303
35.8800,2.518
35.9200,2.667
35.9600,2.646
36.0000,2.739
36.0400,2.886
36.0800,3.001
36.1200,3.119
36.1600,3.212
36.2000,3.201
36.2400,3.370
36.2800,3.431
36.3200,3.358
36.3600,3.427
36.4000,3.249
36.4400,3.186
36.4800,3.013
36.5200,2.822
36.5600,2.771
36.6000,2.637
36.6400,2.582
36.6800,2.455
36.7200,2.408
36.7600,2.282
36.8000,2.249
36.8400,2.213
36.8800,2.221
36.9200,2.171
36.9600,2.164
37.0000,2.121
37.0400,1.939
37.0800,2.064
37.1200,1.986
37.1600,2.037
37.2000,1.899
37.2400,1.973
37.2800,1.967
37.3200,1.904
37.3600,1.910
37.4000,1.895
37.4400,1.920
37.4800,1.857
37.5200,1.935
37.5600,1.943
37.6000,1.967
37.6400,1.899
37.6800,1.974
37.7200,1.985
37.7600,2.009
37.8000,1.921
37.8400,2.080
37.8800,2.182
37.9200,2.267
37.9600,2.314
38.0000,2.418
38.0400,2.680
38.0800,2.808
38.1200,2.971
38.1600,2.931
38.2000,2.942
38.2400,2.956
38.2800,2.978
38.3200,2.786
38.3600,2.866
38.4000,2.793
38.4400,2.644
38.4800,2.558
38.5200,2.539
38.5600,2.354
38.6000,2.270
38.6400,2.189
38.6800,2.149
38.7200,2.137
38.7600,2.100
38.8000,1.968
38.8400,1.925
38.8800,1.838
38.9200,1.831
38.9600,1.848
39.0000,1.818
39.0400,1.815
39.0800,1.754
39.1200,1.815
39.1600,1.762
39.2000,1.726
39.2400,1.727
39.2800,1.822
39.3200,1.761
39.3600,1.704
39.4000,1.807
39.4400,1.725
39.4800,1.797
39.5200,1.718
39.5600,1.648
39.6000,1.760
39.6400,1.698
39.6800,1.698
39.7200,1.714
39.7600,1.748
39.8000,1.742
39.8400,1.752
39.8800,1.730
39.9200,1.748
39.9600,1.762
40.0000,1.799
40.0400,1.747
40.0800,1.725
40.1200,1.787
40.1600,1.740
40.2000,1.739
40.2400,1.795
40.2800,1.808
40.3200,1.708
40.3600,1.848
40.4000,1.826
40.4400,1.790
40.4800,1.809
40.5200,1.868
40.5600,1.771
40.6000,1.838
40.6400,1.859
40.6800,1.901
40.7200,1.859
40.7600,1.767
40.8000,1.930
40.8400,1.829
40.8800,1.832
40.9200,1.892
40.9600,1.897
41.0000,1.847
41.0400,1.835
41.0800,1.910
41.1200,1.900
41.1600,1.892
41.2000,1.918
41.2400,1.913
41.2800,1.805
41.3200,1.731
41.3600,1.808
41.4000,1.760
41.4400,1.685
41.4800,1.782
41.5200,1.733
41.5600,1.712
41.6000,1.658
41.6400,1.698
41.6800,1.716
41.7200,1.671
41.7600,1.570
41.8000,1.539
41.8400,1.573
41.8800,1.540
41.9200,1.560
41.9600,1.579
42.0000,1.509
42.0400,1.495
42.0800,1.408
42.1200,1.458
42.1600,1.479
42.2000,1.489
42.2400,1.439
42.2800,1.444
42.3200,1.392
42.3600,1.363
42.4000,1.368
42.4400,1.295
42.4800,1.447
42.5200,1.363
42.5600,1.354
42.6000,1.351
42.6400,1.294
42.6800,1.287
42.7200,1.267
42.7600,1.307
42.8000,1.262
42.8400,1.291
42.8800,1.240
42.9200,1.312
42.9600,1.288
43.0000,1.227
43.0400,1.247
43.0800,1.262
43.1200,1.232
43.1600,1.269
43.2000,1.230
43.2400,1.208
43.2800,1.235
43.3200,1.220
43.3600,1.279
43.4000,1.236
43.4400,1.174
43.4800,1.273
43.5200,1.270
43.5600,1.165
43.6000,1.230
43.6400,1.262
43.6800,1.252
43.7200,1.229
43.7600,1.216
43.8000,1.216
43.8400,1.212
43.8800,1.232
43.9200,1.210
43.9600,1.253
44.0000,1.251
44.0400,1.201
44.0800,1.249
44.1200,1.256
44.1600,1.297
44.2000,1.351
44.2400,1.205
44.2800,1.261
44.3200,1.219
44.3600,1.272
44.4000,1.305
44.4400,1.292
44.4800,1.190
44.5200,1.214
44.5600,1.195
44.6000,1.260
44.6400,1.245
44.6800,1.203
44.7200,1.233
44.7600,1.158
44.8000,1.146
44.8400,1.156
44.8800,1.129
44.9200,1.091
44.9600,1.122
45.0000,1.131
45.0400,1.126
45.0800,1.094
45.1200,1.038
45.1600,1.064
45.2000,1.101
45.2400,1.079
45.2800,1.055
45.3200,1.011
45.3600,1.066
45.4000,1.062
45.4400,1.037
45.4800,1.008
45.5200,1.019
45.5600,1.031
45.6000,1.018
45.6400,1.019
45.6800,1.013
45.7200,1.027
45.7600,1.057
45.8000,1.056
45.8400,1.015
45.8800,1.046
45.9200,1.048
45.9600,1.085
46.0000,0.989
46.0400,0.991
46.0800,0.949
46.1200,0.966
46.1600,0.952
46.2000,0.995
46.2400,0.997
46.2800,1.038
46.3200,1.042
46.3600,1.033
46.4000,1.011
46.4400,1.010
46.4800,1.005
46.5200,1.055
46.5600,0.986
46.6000,1.020
46.6400,1.030
46.6800,0.972
46.7200,0.989
46.7600,0.990
46.8000,1.041
46.8400,0.958
46.8800,0.986
46.9200,1.017
46.9600,1.015
47.0000,1.051
47.0400,1.049
47.0800,1.007
47.1200,1.022
47.1600,1.013
47.2000,1.062
47.2400,1.080
47.2800,1.040
47.3200,1.024
47.3600,1.049
47.4000,1.087
47.4400,1.061
47.4800,1.061
47.5200,1.049
47.5600,1.045
47.6000,1.046
47.6400,1.082
47.6800,1.052
47.7200,1.021
47.7600,1.089
47.8000,1.066
47.8400,1.014
47.8800,1.008
47.9200,0.971
47.9600,1.034
48.0000,0.991
48.0400,1.015
48.0800,1.009
48.1200,0.914
48.1600,0.922
48.2000,0.962
48.2400,0.918
48.2800,0.978
48.3200,0.938
48.3600,0.840
48.4000,0.896
48.4400,0.921
48.4800,0.944
48.5200,0.959
48.5600,0.963
48.6000,0.886
48.6400,0.920
48.6800,0.902
48.7200,0.891
48.7600,0.911
48.8000,0.906
48.8400,0.855
48.8800,0.869
48.9200,0.897
48.9600,0.856
49.0000,0.889
49.0400,0.860
49.0800,0.913
49.1200,0.909
49.1600,0.939
49.2000,0.857
49.2400,0.882
49.2800,0.815
49.3200,0.818
49.3600,0.868
49.4000,0.890
49.4400,0.835
49.4800,0.822
49.5200,0.865
49.5600,0.802
49.6000,0.909
49.6400,0.860
49.6800,0.858
49.7200,0.835
49.7600,0.811
49.8000,0.808
49.8400,0.773
49.8800,0.856
49.9200,0.838
49.9600,0.856
50.0000,0.843
50.0400,0.855
50.0800,0.840
50.1200,0.842
50.1600,0.849
50.2000,0.845
50.2400,0.801
50.2800,0.827
50.3200,0.842
50.3600,0.849
50.4000,0.761
50.4400,0.826
50.4800,0.727
50.5200,0.837
50.5600,0.864
50.6000,0.765
50.6400,0.825
50.6800,0.771
50.7200,0.830
50.7600,0.822
50.8000,0.762
50.8400,0.781
50.8800,0.803
50.9200,0.773
50.9600,0.787
51.0000,0.785
51.0400,0.820
51.0800,0.765
51.1200,0.819
51.1600,0.825
51.2000,0.801
51.2400,0.745
51.2800,0.759
51.3200,0.763
51.3600,0.748
51.4000,0.813
51.4400,0.830
51.4800,0.757
51.5200,0.768
51.5600,0.761
51.6000,0.789
51.6400,0.750
51.6800,0.783
51.7200,0.805
51.7600,0.788
51.8000,0.799
51.8400,0.787
51.8800,0.747
51.9200,0.771
51.9600,0.788
52.0000,0.772
52.0400,0.775
52.0800,0.805
52.1200,0.805
52.1600,0.744
52.2000,0.732
52.2400,0.748
52.2800,0.804
52.3200,0.822
52.3600,0.739
52.4000,0.757
52.4400,0.737
52.4800,0.774
52.5200,0.762
52.5600,0.767
52.6000,0.751
52.6400,0.773
52.6800,0.820
52.7200,0.726
52.7600,0.694
52.8000,0.669
52.8400,0.681
52.8800,0.765
52.9200,0.740
52.9600,0.752
53.0000,0.716
53.0400,0.771
53.0800,0.740
53.1200,0.720
53.1600,0.727
53.2000,0.774
53.2400,0.736
53.2800,0.745
53.3200,0.709
53.3600,0.780
53.4000,0.770
53.4400,0.735
53.4800,0.718
53.5200,0.755
53.5600,0.723
53.6000,0.732
53.6400,0.732
53.6800,0.753
53.7200,0.751
53.7600,0.721
53.8000,0.756
53.8400,0.745
53.8800,0.748
53.9200,0.765
53.9600,0.718
54.0000,0.679
54.0400,0.772
54.0800,0.746
54.1200,0.726
54.1600,0.733
54.2000,0.727
54.2400,0.698
54.2800,0.736
54.3200,0.706
54.3600,0.704
54.4000,0.713
54.4400,0.687
54.4800,0.732
54.5200,0.732
54.5600,0.742
54.6000,0.726
54.6400,0.713
54.6800,0.733
54.7200,0.670
54.7600,0.747
54.8000,0.722
54.8400,0.730
54.8800,0.717
54.9200,0.700
54.9600,0.739
55.0000,0.723
55.0400,0.690
55.0800,0.746
55.1200,0.710
55.1600,0.757
55.2000,0.704
55.2400,0.707
55.2800,0.694
55.3200,0.723
55.3600,0.716
55.4000,0.733
55.4400,0.702
55.4800,0.703
55.5200,0.688
55.5600,0.723
55.6000,0.743
55.6400,0.698
55.6800,0.729
55.7200,0.716
55.7600,0.751
55.8000,0.723
55.8400,0.700
55.8800,0.741
55.9200,0.734
55.9600,0.728
56.0000,0.759
56.0400,0.741
56.0800,0.722
56.1200,0.759
56.1600,0.774
56.2000,0.863
56.2400,0.814
56.2800,0.841
56.3200,0.801
56.3600,0.862
56.4000,0.843
56.4400,0.963
56.4800,0.981
56.5200,0.911
56.5600,1.006
56.6000,1.012
56.6400,1.060
56.6800,1.028
56.7200,1.031
56.7600,1.015
56.8000,1.045
56.8400,0.910
56.8800,0.915
56.9200,0.936
56.9600,0.917
57.0000,0.881
57.0400,0.865
57.0800,0.801
57.1200,0.799
57.1600,0.802
57.2000,0.749
57.2400,0.746
57.2800,0.764
57.3200,0.739
57.3600,0.731
57.4000,0.721
57.4400,0.758
57.4800,0.739
57.5200,0.690
57.5600,0.712
57.6000,0.721
57.6400,0.699
57.6800,0.725
57.7200,0.720
57.7600,0.696
57.8000,0.666
57.8400,0.716
57.8800,0.717
57.9200,0.700
57.9600,0.667
58.0000,0.656
58.0400,0.668
58.0800,0.701
58.1200,0.706
58.1600,0.702
58.2000,0.633
58.2400,0.664
58.2800,0.600
58.3200,0.622
58.3600,0.674
58.4000,0.622
58.4400,0.641
58.4800,0.686
58.5200,0.651
58.5600,0.649
58.6000,0.605
58.6400,0.649
58.6800,0.628
58.7200,0.623
58.7600,0.616
58.8000,0.628
58.8400,0.661
58.8800,0.642
58.9200,0.642
58.9600,0.662
59.0000,0.677
59.0400,0.601
59.0800,0.600
59.1200,0.591
59.1600,0.616
59.2000,0.645
59.2400,0.657
59.2800,0.571
59.3200,0.600
59.3600,0.625
59.4000,0.614
59.4400,0.615
59.4800,0.620
59.5200,0.611
59.5600,0.594
59.6000,0.588
59.6400,0.601
59.6800,0.605
59.7200,0.599
59.7600,0.620
59.8000,0.542
59.8400,0.631
59.8800,0.600
59.9200,0.587
59.9600,0.626
60.0000,0.645
60.0400,0.606
60.0800,0.580
60.1200,0.589
60.1600,0.599
60.2000,0.595
60.2400,0.589
60.2800,0.606
60.3200,0.585
60.3600,0.600
60.4000,0.604
60.4400,0.599
60.4800,0.648
60.5200,0.622
60.5600,0.585
60.6000,0.578
60.6400,0.615
60.6800,0.628
60.7200,0.604
60.7600,0.628
60.8000,0.606
60.8400,0.599
60.8800,0.613
60.9200,0.622
60.9600,0.588
61.0000,0.631
61.0400,0.588
61.0800,0.606
61.1200,0.617
61.1600,0.643
61.2000,0.608
61.2400,0.590
61.2800,0.597
61.3200,0.600
61.3600,0.580
61.4000,0.611
61.4400,0.564
61.4800,0.589
61.5200,0.597
61.5600,0.604
61.6000,0.642
61.6400,0.692
61.6800,0.682
61.7200,0.663
61.7600,0.676
61.8000,0.677
61.8400,0.637
61.8800,0.591
61.9200,0.635
61.9600,0.618
62.0000,0.627
62.0400,0.646
62.0800,0.663
62.1200,0.648
62.1600,0.596
62.2000,0.670
62.2400,0.638
62.2800,0.664
62.3200,0.642
62.3600,0.669
62.4000,0.666
62.4400,0.669
62.4800,0.667
62.5200,0.693
62.5600,0.769
62.6000,0.694
62.6400,0.705
62.6800,0.701
62.7200,0.708
62.7600,0.727
62.8000,0.719
62.8400,0.748
62.8800,0.735
62.9200,0.772
62.9600,0.784
63.0000,0.750
63.0400,0.742
63.0800,0.723
63.1200,0.769
63.1600,0.725
63.2000,0.729
63.2400,0.724
63.2800,0.705
63.3200,0.710
63.3600,0.659
63.4000,0.664
63.4400,0.704
63.4800,0.674
63.5200,0.674
63.5600,0.615
63.6000,0.707
63.6400,0.683
63.6800,0.650
63.7200,0.686
63.7600,0.678
63.8000,0.661
63.8400,0.646
63.8800,0.657
63.9200,0.663
63.9600,0.673
64.0000,0.660
64.0400,0.646
64.0800,0.618
64.1200,0.705
64.1600,0.696
64.2000,0.701
64.2400,0.707
64.2800,0.697
64.3200,0.775
64.3600,0.832
64.4000,0.772
64.4400,0.769
64.4800,0.743
64.5200,0.808
64.5600,0.777
64.6000,0.787
64.6400,0.845
64.6800,0.858
64.7200,0.820
64.7600,0.800
64.8000,0.809
64.8400,0.783
64.8800,0.764
64.9200,0.791
64.9600,0.838
65.0000,0.780
65.0400,0.784
65.0800,0.789
65.1200,0.798
65.1600,0.797
65.2000,0.797
65.2400,0.837
65.2800,0.818
65.3200,0.783
65.3600,0.786
65.4000,0.827
65.4400,0.784
65.4800,0.779
65.5200,0.729
65.5600,0.784
65.6000,0.789
65.6400,0.801
65.6800,0.779
65.7200,0.807
65.7600,0.827
65.8000,0.854
65.8400,0.832
65.8800,0.811
65.9200,0.832
65.9600,0.794
66.0000,0.809
66.0400,0.829
66.0800,0.824
66.1200,0.840
66.1600,0.872
66.2000,0.846
66.2400,0.893
66.2800,0.827
66.3200,0.851
66.3600,0.896
66.4000,0.883
66.4400,0.924
66.4800,0.947
66.5200,0.960
66.5600,0.903
66.6000,0.989
66.6400,0.961
66.6800,0.946
66.7200,0.973
66.7600,1.004
66.8000,0.995
66.8400,0.974
66.8800,1.027
66.9200,1.100
66.9600,1.035
67.0000,1.117
67.0400,1.106
67.0800,1.121
67.1200,1.104
67.1600,1.190
67.2000,1.131
67.2400,1.186
67.2800,1.185
67.3200,1.247
67.3600,1.246
67.4000,1.403
67.4400,1.333
67.4800,1.357
67.5200,1.440
67.5600,1.452
67.6000,1.483
67.6400,1.466
67.6800,1.540
67.7200,1.629
67.7600,1.616
67.8000,1.723
67.8400,1.733
67.8800,1.762
67.9200,1.734
67.9600,1.790
68.0000,1.859
68.0400,1.934
68.0800,2.004
68.1200,2.029
68.1600,2.073
68.2000,2.040
68.2400,2.174
68.2800,2.197
68.3200,2.269
68.3600,2.414
68.4000,2.541
68.4400,2.597
68.4800,2.584
68.5200,2.774
68.5600,3.002
68.6000,3.104
68.6400,3.473
68.6800,4.181
68.7200,5.257
68.7600,6.701
68.8000,7.823
68.8400,8.098
68.8800,8.050
68.9200,9.548
68.9600,12.614
69.0000,20.013
69.0400,44.047
69.0800,204.587
69.1200,532.701
69.1600,438.478
69.2000,121.290
69.2400,52.355
69.2800,128.345
69.3200,277.572
69.3600,214.262
69.4000,60.611
69.4400,19.762
69.4800,11.590
69.5200,8.627
69.5600,6.839
69.6000,5.927
69.6400,5.040
69.6800,4.444
69.7200,4.051
69.7600,3.702
69.8000,3.424
69.8400,3.246
69.8800,3.100
69.9200,2.811
69.9600,2.779
70.0000,2.597
70.0400,2.476
70.0800,2.385
70.1200,2.310
70.1600,2.273
70.2000,2.113
70.2400,2.054
70.2800,2.104
70.3200,2.015
70.3600,1.855
70.4000,1.827
70.4400,1.802
70.4800,1.770
70.5200,1.673
70.5600,1.614
70.6000,1.597
70.6400,1.600
70.6800,1.486
70.7200,1.474
70.7600,1.402
70.8000,1.338
70.8400,1.379
70.8800,1.321
70.9200,1.294
70.9600,1.235
71.0000,1.252
71.0400,1.192
71.0800,1.157
71.1200,1.171
71.1600,1.116
71.2000,1.066
71.2400,1.032
71.2800,1.026
71.3200,1.063
71.3600,0.981
71.4000,0.990
71.4400,1.005
71.4800,0.988
71.5200,0.959
71.5600,0.925
71.6000,0.894
71.6400,0.863
71.6800,0.878
71.7200,0.866
71.7600,0.802
71.8000,0.781
71.8400,0.808
71.8800,0.785
71.9200,0.745
71.9600,0.797
72.0000,0.727
72.0400,0.739
72.0800,0.716
72.1200,0.761
72.1600,0.712
72.2000,0.690
72.2400,0.684
72.2800,0.761
72.3200,0.721
72.3600,0.704
72.4000,0.666
72.4400,0.628
72.4800,0.654
72.5200,0.579
72.5600,0.582
72.6000,0.690
72.6400,0.640
72.6800,0.605
72.7200,0.601
72.7600,0.576
72.8000,0.619
72.8400,0.620
72.8800,0.633
72.9200,0.522
72.9600,0.596
73.0000,0.571
73.0400,0.579
73.0800,0.553
73.1200,0.540
73.1600,0.506
73.2000,0.537
73.2400,0.549
73.2800,0.537
73.3200,0.514
73.3600,0.549
73.4000,0.514
73.4400,0.480
73.4800,0.510
73.5200,0.483
73.5600,0.514
73.6000,0.474
73.6400,0.468
73.6800,0.496
73.7200,0.462
73.7600,0.483
73.8000,0.457
73.8400,0.427
73.8800,0.543
73.9200,0.473
73.9600,0.535
74.0000,0.467
74.0400,0.481
74.0800,0.466
74.1200,0.469
74.1600,0.454
74.2000,0.493
74.2400,0.445
74.2800,0.448
74.3200,0.415
74.3600,0.467
74.4000,0.476
74.4400,0.466
74.4800,0.432
74.5200,0.445
74.5600,0.431
74.6000,0.432
74.6400,0.433
74.6800,0.442
74.7200,0.440
74.7600,0.411
74.8000,0.430
74.8400,0.401
74.8800,0.437
74.9200,0.424
74.9600,0.435
75.0000,0.395
75.0400,0.394
75.0800,0.386
75.1200,0.380
75.1600,0.404
75.2000,0.397
75.2400,0.384
75.2800,0.390
75.3200,0.365
75.3600,0.417
75.4000,0.452
75.4400,0.387
75.4800,0.387
75.5200,0.397
75.5600,0.397
75.6000,0.425
75.6400,0.415
75.6800,0.398
75.7200,0.371
75.7600,0.403
75.8000,0.378
75.8400,0.395
75.8800,0.423
75.9200,0.372
75.9600,0.390
76.0000,0.368
76.0400,0.406
76.0800,0.391
76.1200,0.389
76.1600,0.406
76.2000,0.395
76.2400,0.383
76.2800,0.418
76.3200,0.400
76.3600,0.389
76.4000,0.413
76.4400,0.402
76.4800,0.405
76.5200,0.408
76.5600,0.410
76.6000,0.366
76.6400,0.419
76.6800,0.402
76.7200,0.398
76.7600,0.413
76.8000,0.426
76.8400,0.420
76.8800,0.442
76.9200,0.443
76.9600,0.427
77.0000,0.409
77.0400,0.444
77.0800,0.456
77.1200,0.456
77.1600,0.476
77.2000,0.490
77.2400,0.463
77.2800,0.485
77.3200,0.487
77.3600,0.494
77.4000,0.500
77.4400,0.503
77.4800,0.498
77.5200,0.492
77.5600,0.531
77.6000,0.519
77.6400,0.464
77.6800,0.490
77.7200,0.531
77.7600,0.477
77.8000,0.477
77.8400,0.449
77.8800,0.519
77.9200,0.505
77.9600,0.499
78.0000,0.465
78.0400,0.439
78.0800,0.440
78.1200,0.494
78.1600,0.453
78.2000,0.459
78.2400,0.447
78.2800,0.460
78.3200,0.482
78.3600,0.462
78.4000,0.434
78.4400,0.416
78.4800,0.439
78.5200,0.420
78.5600,0.407
78.6000,0.428
78.6400,0.407
78.6800,0.383
78.7200,0.373
78.7600,0.407
78.8000,0.418
78.8400,0.370
78.8800,0.391
78.9200,0.382
78.9600,0.405
79.0000,0.417
79.0400,0.372
79.0800,0.374
79.1200,0.390
79.1600,0.384
79.2000,0.384
79.2400,0.370
79.2800,0.405
79.3200,0.359
79.3600,0.384
79.4000,0.324
79.4400,0.367
79.4800,0.354
79.5200,0.362
79.5600,0.368
79.6000,0.353
79.6400,0.351
79.6800,0.334
79.7200,0.351
79.7600,0.336
79.8000,0.360
79.8400,0.364
79.8800,0.375
79.9200,0.358
79.9600,0.400
80.0000,0.351
