theta,intensity
5.0000,5.491
5.0400,5.404
5.0800,5.385
5.1200,5.236
5.1600,5.377
5.2000,5.205
5.2400,5.324
5.2800,5.153
5.3200,5.083
5.3600,5.045
5.4000,5.131
5.4400,5.082
5.4800,5.074
5.5200,4.978
5.5600,4.934
5.6000,4.728
5.6400,4.789
5.6800,4.698
5.7200,4.718
5.7600,4.613
5.8000,4.560
5.8400,4.629
5.8800,4.528
5.9200,4.496
5.9600,4.378
6.0000,4.377
6.0400,4.265
6.0800,4.266
6.1200,4.241
6.1600,4.205
6.2000,4.272
6.2400,4.219
6.2800,4.250
6.3200,4.175
6.3600,4.270
6.4000,4.341
6.4400,4.295
6.4800,4.223
6.5200,4.184
6.5600,4.154
6.6000,4.179
6.6400,4.281
6.6800,4.243
6.7200,4.182
6.7600,4.146
6.8000,4.193
6.8400,4.095
6.8800,4.105
6.9200,4.109
6.9600,4.166
7.0000,3.995
7.0400,4.193
7.0800,4.114
7.1200,4.121
7.1600,4.097
7.2000,3.986
7.2400,4.067
7.2800,4.027
7.3200,4.045
7.3600,4.018
7.4000,4.142
7.4400,4.107
7.4800,4.002
7.5200,4.003
7.5600,4.052
7.6000,3.929
7.6400,3.957
7.6800,3.928
7.7200,3.935
7.7600,3.998
7.8000,3.960
7.8400,3.928
7.8800,3.980
7.9200,4.005
7.9600,4.032
8.0000,3.925
8.0400,3.924
8.0800,3.874
8.1200,3.870
8.1600,3.956
8.2000,3.782
8.2400,3.955
8.2800,3.933
8.3200,3.904
8.3600,3.903
8.4000,3.774
8.4400,3.841
8.4800,3.936
8.5200,3.764
8.5600,3.916
8.6000,3.945
8.6400,3.842
8.6800,3.924
8.7200,3.914
8.7600,3.853
8.8000,3.832
8.8400,3.928
8.8800,3.767
8.9200,3.838
8.9600,3.787
9.0000,3.822
9.0400,3.813
9.0800,3.776
9.1200,3.762
9.1600,3.799
9.2000,3.764
9.2400,3.826
9.2800,3.761
9.3200,3.680
9.3600,3.854
9.4000,3.804
9.4400,3.821
9.4800,3.747
9.5200,3.767
9.5600,3.805
9.6000,3.605
9.6400,3.648
9.6800,3.629
9.7200,3.785
9.7600,3.822
9.8000,3.741
9.8400,3.712
9.8800,3.857
9.9200,3.761
9.9600,3.733
10.0000,3.835
10.0400,3.711
10.0800,3.774
10.1200,3.627
10.1600,3.686
10.2000,3.701
10.2400,3.665
10.2800,3.734
10.3200,3.619
10.3600,3.769
10.4000,3.631
10.4400,3.726
10.4800,3.608
10.5200,3.659
10.5600,3.663
10.6000,3.644
10.6400,3.622
10.6800,3.674
10.7200,3.541
10.7600,3.528
10.8000,3.656
10.8400,3.595
10.8800,3.688
10.9200,3.633
10.9600,3.668
11.0000,3.577
11.0400,3.538
11.0800,3.557
11.1200,3.603
11.1600,3.611
11.2000,3.584
11.2400,3.591
11.2800,3.589
11.3200,3.546
11.3600,3.611
11.4000,3.559
11.4400,3.572
11.4800,3.581
11.5200,3.575
11.5600,3.649
11.6000,3.550
11.6400,3.383
11.6800,3.426
11.7200,3.573
11.7600,3.467
11.8000,3.506
11.8400,3.600
11.8800,3.564
11.9200,3.386
11.9600,3.389
12.0000,3.506
12.0400,3.474
12.0800,3.415
12.1200,3.414
12.1600,3.571
12.2000,3.509
12.2400,3.455
12.2800,3.417
12.3200,3.503
12.3600,3.426
12.4000,3.360
12.4400,3.447
12.4800,3.466
12.5200,3.374
12.5600,3.438
12.6000,3.506
12.6400,3.425
12.6800,3.387
12.7200,3.446
12.7600,3.451
12.8000,3.516
12.8400,3.364
12.8800,3.353
12.9200,3.423
12.9600,3.318
13.0000,3.273
13.0400,3.403
13.0800,3.372
13.1200,3.343
13.1600,3.364
13.2000,3.364
13.2400,3.370
13.2800,3.372
13.3200,3.429
13.3600,3.373
13.4000,3.369
13.4400,3.282
13.4800,3.331
13.5200,3.505
13.5600,3.414
13.6000,3.400
13.6400,3.342
13.6800,3.281
13.7200,3.325
13.7600,3.177
13.8000,3.219
13.8400,3.347
13.8800,3.353
13.9200,3.305
13.9600,3.266
14.0000,3.290
14.0400,3.316
14.0800,3.309
14.1200,3.263
14.1600,3.323
14.2000,3.293
14.2400,3.235
14.2800,3.173
14.3200,3.300
14.3600,3.255
14.4000,3.311
14.4400,3.265
14.4800,3.287
14.5200,3.263
14.5600,3.262
14.6000,3.208
14.6400,3.245
14.6800,3.173
14.7200,3.166
14.7600,3.151
14.8000,3.228
14.8400,3.256
14.8800,3.214
14.9200,3.161
14.9600,3.168
15.0000,3.140
15.0400,3.099
15.0800,3.144
15.1200,3.163
15.1600,3.186
15.2000,3.097
15.2400,3.194
15.2800,3.129
15.3200,3.098
15.3600,3.154
15.4000,3.220
15.4400,3.189
15.4800,3.141
15.5200,3.206
15.5600,3.136
15.6000,3.068
15.6400,3.102
15.6800,3.183
15.7200,3.066
15.7600,3.133
15.8000,3.239
15.8400,3.229
15.8800,3.173
15.9200,3.076
15.9600,3.157
16.0000,3.094
16.0400,3.063
16.0800,3.037
16.1200,3.121
16.1600,3.033
16.2000,3.083
16.2400,3.058
16.2800,3.066
16.3200,3.135
16.3600,3.101
16.4000,3.098
16.4400,3.062
16.4800,3.040
16.5200,3.058
16.5600,3.005
16.6000,3.019
16.6400,3.055
16.6800,2.962
16.7200,3.030
16.7600,3.102
16.8000,3.096
16.8400,3.022
16.8800,3.049
16.9200,3.038
16.9600,3.027
17.0000,2.989
17.0400,3.021
17.0800,3.085
17.1200,3.033
17.1600,2.986
17.2000,2.997
17.2400,3.034
17.2800,3.040
17.3200,2.954
17.3600,3.017
17.4000,2.971
17.4400,2.982
17.4800,3.026
17.5200,3.007
17.5600,3.010
17.6000,3.001
17.6400,3.005
17.6800,2.936
17.7200,3.049
17.7600,2.943
17.8000,2.907
17.8400,2.972
17.8800,2.899
17.9200,2.879
17.9600,2.924
18.0000,2.909
18.0400,2.921
18.0800,2.895
18.1200,2.894
18.1600,2.984
18.2000,2.884
18.2400,2.881
18.2800,2.962
18.3200,2.886
18.3600,2.781
18.4000,2.845
18.4400,2.825
18.4800,2.832
18.5200,2.844
18.5600,2.904
18.6000,2.868
18.6400,2.841
18.6800,2.904
18.7200,2.892
18.7600,2.941
18.8000,2.909
18.8400,2.831
18.8800,2.818
18.9200,2.915
18.9600,2.937
19.0000,2.806
19.0400,2.861
19.0800,2.827
19.1200,2.832
19.1600,2.846
19.2000,2.783
19.2400,2.827
19.2800,2.736
19.3200,2.738
19.3600,2.833
19.4000,2.861
19.4400,2.708
19.4800,2.672
19.5200,2.894
19.5600,2.736
19.6000,2.727
19.6400,2.819
19.6800,2.738
19.7200,2.766
19.7600,2.776
19.8000,2.758
19.8400,2.776
19.8800,2.736
19.9200,2.671
19.9600,2.676
20.0000,2.736
20.0400,2.731
20.0800,2.684
20.1200,2.710
20.1600,2.696
20.2000,2.741
20.2400,2.760
20.2800,2.705
20.3200,2.684
20.3600,2.755
20.4000,2.703
20.4400,2.761
20.4800,2.680
20.5200,2.634
20.5600,2.688
20.6000,2.706
20.6400,2.641
20.6800,2.649
20.7200,2.634
20.7600,2.682
20.8000,2.684
20.8400,2.636
20.8800,2.696
20.9200,2.644
20.9600,2.599
21.0000,2.747
21.0400,2.673
21.0800,2.611
21.1200,2.685
21.1600,2.608
21.2000,2.695
21.2400,2.536
21.2800,2.687
21.3200,2.678
21.3600,2.664
21.4000,2.719
21.4400,2.678
21.4800,2.718
21.5200,2.730
21.5600,2.694
21.6000,2.582
21.6400,2.721
21.6800,2.689
21.7200,2.630
21.7600,2.655
21.8000,2.704
21.8400,2.585
21.8800,2.617
21.9200,2.610
21.9600,2.658
22.0000,2.684
22.0400,2.683
22.0800,2.576
22.1200,2.570
22.1600,2.609
22.2000,2.710
22.2400,2.697
22.2800,2.560
22.3200,2.744
22.3600,2.621
22.4000,2.692
22.4400,2.708
22.4800,2.689
22.5200,2.574
22.5600,2.601
22.6000,2.712
22.6400,2.687
22.6800,2.521
22.7200,2.684
22.7600,2.622
22.8000,2.650
22.8400,2.626
22.8800,2.593
22.9200,2.672
22.9600,2.640
23.0000,2.605
23.0400,2.751
23.0800,2.655
23.1200,2.654
23.1600,2.633
23.2000,2.623
23.2400,2.567
23.2800,2.514
23.3200,2.616
23.3600,2.473
23.4000,2.514
23.4400,2.463
23.4800,2.537
23.5200,2.539
23.5600,2.463
23.6000,2.504
23.6400,2.406
23.6800,2.445
23.7200,2.482
23.7600,2.417
23.8000,2.384
23.8400,2.419
23.8800,2.372
23.9200,2.420
23.9600,2.332
24.0000,2.418
24.0400,2.466
24.0800,2.399
24.1200,2.283
24.1600,2.311
24.2000,2.315
24.2400,2.313
24.2800,2.327
24.3200,2.390
24.3600,2.295
24.4000,2.343
24.4400,2.320
24.4800,2.324
24.5200,2.319
24.5600,2.247
24.6000,2.371
24.6400,2.338
24.6800,2.294
24.7200,2.332
24.7600,2.284
24.8000,2.348
24.8400,2.327
24.8800,2.377
24.9200,2.356
24.9600,2.302
25.0000,2.305
25.0400,2.304
25.0800,2.311
25.1200,2.261
25.1600,2.284
25.2000,2.136
25.2400,2.235
25.2800,2.296
25.3200,2.257
25.3600,2.231
25.4000,2.288
25.4400,2.241
25.4800,2.249
25.5200,2.234
25.5600,2.207
25.6000,2.273
25.6400,2.205
25.6800,2.253
25.7200,2.329
25.7600,2.217
25.8000,2.260
25.8400,2.249
25.8800,2.180
25.9200,2.202
25.9600,2.217
26.0000,2.255
26.0400,2.231
26.0800,2.266
26.1200,2.165
26.1600,2.256
26.2000,2.175
26.2400,2.241
26.2800,2.303
26.3200,2.155
26.3600,2.153
26.4000,2.223
26.4400,2.194
26.4800,2.103
26.5200,2.172
26.5600,2.232
26.6000,2.169
26.6400,2.189
26.6800,2.186
26.7200,2.152
26.7600,2.115
26.8000,2.142
26.8400,2.155
26.8800,2.098
26.9200,2.126
26.9600,2.149
27.0000,2.067
27.0400,2.138
27.0800,2.079
27.1200,2.147
27.1600,2.007
27.2000,2.146
27.2400,2.094
27.2800,2.074
27.3200,2.176
27.3600,2.069
27.4000,2.187
27.4400,2.140
27.4800,2.137
27.5200,2.112
27.5600,2.146
27.6000,2.133
27.6400,2.247
27.6800,2.185
27.7200,2.247
27.7600,2.185
27.8000,2.113
27.8400,2.168
27.8800,2.052
27.9200,2.105
27.9600,2.104
28.0000,2.125
28.0400,2.036
28.0800,2.140
28.1200,2.160
28.1600,2.135
28.2000,2.120
28.2400,2.093
28.2800,2.142
28.3200,2.098
28.3600,2.109
28.4000,2.056
28.4400,2.078
28.4800,2.064
28.5200,2.125
28.5600,2.079
28.6000,2.057
28.6400,2.016
28.6800,2.063
28.7200,2.034
28.7600,2.063
28.8000,2.103
28.8400,2.091
28.8800,2.041
28.9200,2.047
28.9600,2.037
29.0000,2.038
29.0400,1.865
29.0800,1.956
29.1200,2.023
29.1600,1.893
29.2000,1.956
29.2400,2.072
29.2800,1.918
29.3200,1.946
29.3600,1.959
29.4000,1.891
29.4400,1.947
29.4800,1.955
29.5200,1.895
29.5600,1.939
29.6000,1.925
29.6400,1.944
29.6800,1.953
29.7200,1.871
29.7600,1.947
29.8000,1.979
29.8400,1.897
29.8800,1.926
29.9200,1.899
29.9600,1.825
30.0000,1.908
30.0400,1.876
30.0800,1.943
30.1200,1.962
30.1600,1.993
30.2000,1.833
30.2400,1.883
30.2800,1.900
30.3200,1.945
30.3600,1.819
30.4000,1.879
30.4400,1.800
30.4800,1.840
30.5200,1.850
30.5600,1.902
30.6000,1.925
30.6400,1.827
30.6800,1.788
30.7200,1.889
30.7600,1.828
30.8000,1.934
30.8400,1.814
30.8800,1.842
30.9200,1.865
30.9600,1.847
31.0000,1.847
31.0400,1.869
31.0800,1.860
31.1200,1.899
31.1600,1.856
31.2000,1.809
31.2400,1.832
31.2800,1.853
31.3200,1.846
31.3600,1.872
31.4000,1.879
31.4400,1.857
31.4800,1.868
31.5200,1.855
31.5600,1.838
31.6000,1.946
31.6400,1.957
31.6800,2.041
31.7200,1.906
31.7600,1.941
31.8000,1.964
31.8400,2.011
31.8800,1.937
31.9200,1.937
31.9600,1.867
32.0000,1.877
32.0400,1.916
32.0800,1.880
32.1200,1.913
32.1600,1.826
32.2000,1.858
32.2400,1.776
32.2800,1.867
32.3200,1.807
32.3600,1.776
32.4000,1.809
32.4400,1.755
32.4800,1.786
32.5200,1.718
32.5600,1.712
32.6000,1.818
32.6400,1.703
32.6800,1.814
32.7200,1.745
32.7600,1.677
32.8000,1.728
32.8400,1.731
32.8800,1.746
32.9200,1.772
32.9600,1.775
33.0000,1.733
33.0400,1.685
33.0800,1.721
33.1200,1.687
33.1600,1.707
33.2000,1.733
33.2400,1.691
33.2800,1.728
33.3200,1.664
33.3600,1.691
33.4000,1.643
33.4400,1.603
33.4800,1.675
33.5200,1.775
33.5600,1.711
33.6000,1.671
33.6400,1.688
33.6800,1.706
33.7200,1.737
33.7600,1.690
33.8000,1.701
33.8400,1.747
33.8800,1.727
33.9200,1.720
33.9600,1.735
34.0000,1.744
34.0400,1.771
34.0800,1.734
34.1200,1.759
34.1600,1.753
34.2000,1.720
34.2400,1.815
34.2800,1.781
34.3200,1.717
34.3600,1.786
34.4000,1.736
34.4400,1.759
34.4800,1.769
34.5200,1.758
34.5600,1.794
34.6000,1.784
34.6400,1.734
34.6800,1.725
34.7200,1.673
34.7600,1.712
34.8000,1.654
34.8400,1.657
34.8800,1.817
34.9200,1.660
34.9600,1.657
35.0000,1.668
35.0400,1.642
35.0800,1.671
35.1200,1.709
35.1600,1.784
35.2000,1.721
35.2400,1.733
35.2800,1.708
35.3200,1.703
35.3600,1.740
35.4000,1.736
35.4400,1.694
35.4800,1.666
35.5200,1.761
35.5600,1.653
35.6000,1.703
35.6400,1.650
35.6800,1.635
35.7200,1.671
35.7600,1.631
35.8000,1.689
35.8400,1.662
35.8800,1.694
35.9200,1.687
35.9600,1.687
36.0000,1.680
36.0400,1.778
36.0800,1.770
36.1200,1.706
36.1600,1.700
36.2000,1.728
36.2400,1.779
36.2800,1.753
36.3200,1.827
36.3600,1.811
36.4000,1.798
36.4400,1.777
36.4800,1.700
36.5200,1.795
36.5600,1.797
36.6000,1.721
36.6400,1.720
36.6800,1.679
36.7200,1.619
36.7600,1.678
36.8000,1.702
36.8400,1.644
36.8800,1.703
36.9200,1.637
36.9600,1.701
37.0000,1.684
37.0400,1.606
37.0800,1.691
37.1200,1.754
37.1600,1.669
37.2000,1.671
37.2400,1.640
37.2800,1.650
37.3200,1.716
37.3600,1.641
37.4000,1.793
37.4400,1.779
37.4800,1.789
37.5200,1.707
37.5600,1.796
37.6000,1.829
37.6400,1.756
37.6800,1.856
37.7200,1.875
37.7600,1.850
37.8000,1.920
37.8400,1.923
37.8800,1.976
37.9200,2.116
37.9600,2.132
38.0000,2.154
38.0400,2.277
38.0800,2.303
38.1200,2.513
38.1600,2.769
38.2000,3.040
38.2400,3.342
38.2800,3.633
38.3200,4.346
38.3600,5.228
38.4000,6.493
38.4400,8.103
38.4800,10.322
38.5200,12.606
38.5600,14.506
38.6000,15.154
38.6400,14.958
38.6800,13.496
38.7200,11.784
38.7600,9.917
38.8000,8.367
38.8400,6.938
38.8800,5.637
38.9200,4.788
38.9600,4.068
39.0000,3.497
39.0400,3.100
39.0800,2.775
39.1200,2.497
39.1600,2.353
39.2000,2.172
39.2400,2.128
39.2800,1.986
39.3200,1.933
39.3600,1.876
39.4000,1.831
39.4400,1.858
39.4800,1.836
39.5200,1.750
39.5600,1.685
39.6000,1.674
39.6400,1.640
39.6800,1.620
39.7200,1.602
39.7600,1.535
39.8000,1.566
39.8400,1.538
39.8800,1.582
39.9200,1.590
39.9600,1.519
40.0000,1.536
40.0400,1.544
40.0800,1.548
40.1200,1.531
40.1600,1.521
40.2000,1.500
40.2400,1.559
40.2800,1.594
40.3200,1.483
40.3600,1.461
40.4000,1.501
40.4400,1.504
40.4800,1.469
40.5200,1.431
40.5600,1.363
40.6000,1.408
40.6400,1.448
40.6800,1.353
40.7200,1.315
40.7600,1.372
40.8000,1.361
40.8400,1.319
40.8800,1.330
40.9200,1.319
40.9600,1.310
41.0000,1.299
41.0400,1.334
41.0800,1.326
41.1200,1.317
41.1600,1.342
41.2000,1.252
41.2400,1.286
41.2800,1.353
41.3200,1.234
41.3600,1.283
41.4000,1.286
41.4400,1.295
41.4800,1.277
41.5200,1.287
41.5600,1.244
41.6000,1.304
41.6400,1.251
41.6800,1.219
41.7200,1.174
41.7600,1.260
41.8000,1.239
41.8400,1.235
41.8800,1.239
41.9200,1.284
41.9600,1.277
42.0000,1.201
42.0400,1.175
42.0800,1.210
42.1200,1.242
42.1600,1.225
42.2000,1.201
42.2400,1.178
42.2800,1.251
42.3200,1.218
42.3600,1.224
42.4000,1.148
42.4400,1.225
42.4800,1.213
42.5200,1.213
42.5600,1.218
42.6000,1.174
42.6400,1.267
42.6800,1.210
42.7200,1.137
42.7600,1.229
42.8000,1.126
42.8400,1.163
42.8800,1.160
42.9200,1.170
42.9600,1.230
43.0000,1.167
43.0400,1.180
43.0800,1.175
43.1200,1.202
43.1600,1.245
43.2000,1.234
43.2400,1.191
43.2800,1.257
43.3200,1.143
43.3600,1.269
43.4000,1.219
43.4400,1.324
43.4800,1.293
43.5200,1.271
43.5600,1.315
43.6000,1.311
43.6400,1.306
43.6800,1.305
43.7200,1.291
43.7600,1.323
43.8000,1.330
43.8400,1.351
43.8800,1.385
43.9200,1.355
43.9600,1.314
44.0000,1.366
44.0400,1.408
44.0800,1.412
44.1200,1.386
44.1600,1.416
44.2000,1.429
44.2400,1.476
44.2800,1.462
44.3200,1.602
44.3600,1.590
44.4000,1.646
44.4400,1.880
44.4800,1.847
44.5200,1.976
44.5600,2.113
44.6000,2.235
44.6400,2.421
44.6800,2.410
44.7200,2.676
44.7600,2.748
44.8000,2.967
44.8400,3.091
44.8800,3.142
44.9200,3.252
44.9600,3.342
45.0000,3.170
45.0400,3.040
45.0800,2.987
45.1200,2.936
45.1600,2.669
45.2000,2.418
45.2400,2.198
45.2800,2.171
45.3200,2.008
45.3600,1.845
45.4000,1.753
45.4400,1.647
45.4800,1.666
45.5200,1.529
45.5600,1.477
45.6000,1.455
45.6400,1.407
45.6800,1.405
45.7200,1.379
45.7600,1.327
45.8000,1.334
45.8400,1.377
45.8800,1.278
45.9200,1.292
45.9600,1.223
46.0000,1.254
46.0400,1.156
46.0800,1.084
46.1200,1.184
46.1600,1.098
46.2000,1.071
46.2400,1.061
46.2800,1.024
46.3200,1.040
46.3600,1.029
46.4000,1.016
46.4400,1.022
46.4800,1.024
46.5200,0.975
46.5600,0.997
46.6000,0.977
46.6400,1.001
46.6800,0.987
46.7200,0.943
46.7600,1.006
46.8000,0.980
46.8400,1.009
46.8800,1.035
46.9200,0.970
46.9600,0.977
47.0000,0.950
47.0400,1.008
47.0800,0.977
47.1200,0.922
47.1600,0.961
47.2000,0.926
47.2400,0.976
47.2800,0.971
47.3200,0.940
47.3600,0.981
47.4000,0.909
47.4400,0.984
47.4800,0.923
47.5200,0.974
47.5600,0.937
47.6000,0.939
47.6400,0.976
47.6800,0.909
47.7200,0.863
47.7600,0.888
47.8000,0.949
47.8400,0.924
47.8800,0.914
47.9200,0.885
47.9600,0.954
48.0000,0.931
48.0400,0.855
48.0800,0.958
48.1200,0.914
48.1600,0.870
48.2000,0.916
48.2400,0.883
48.2800,0.841
48.3200,0.871
48.3600,0.875
48.4000,0.873
48.4400,0.885
48.4800,0.878
48.5200,0.875
48.5600,0.851
48.6000,0.843
48.6400,0.892
48.6800,0.878
48.7200,0.831
48.7600,0.916
48.8000,0.840
48.8400,0.874
48.8800,0.889
48.9200,0.873
48.9600,0.854
49.0000,0.875
49.0400,0.879
49.0800,0.848
49.1200,0.842
49.1600,0.862
49.2000,0.837
49.2400,0.836
49.2800,0.861
49.3200,0.832
49.3600,0.803
49.4000,0.806
49.4400,0.837
49.4800,0.806
49.5200,0.838
49.5600,0.830
49.6000,0.806
49.6400,0.846
49.6800,0.802
49.7200,0.855
49.7600,0.811
49.8000,0.872
49.8400,0.851
49.8800,0.862
49.9200,0.769
49.9600,0.814
50.0000,0.813
50.0400,0.794
50.0800,0.829
50.1200,0.841
50.1600,0.849
50.2000,0.820
50.2400,0.776
50.2800,0.778
50.3200,0.800
50.3600,0.782
50.4000,0.831
50.4400,0.833
50.4800,0.842
50.5200,0.808
50.5600,0.819
50.6000,0.815
50.6400,0.849
50.6800,0.856
50.7200,0.810
50.7600,0.833
50.8000,0.785
50.8400,0.854
50.8800,0.828
50.9200,0.800
50.9600,0.814
51.0000,0.823
51.0400,0.784
51.0800,0.819
51.1200,0.783
51.1600,0.836
51.2000,0.764
51.2400,0.756
51.2800,0.798
51.3200,0.771
51.3600,0.757
51.4000,0.788
51.4400,0.824
51.4800,0.804
51.5200,0.768
51.5600,0.755
51.6000,0.757
51.6400,0.772
51.6800,0.752
51.7200,0.777
51.7600,0.761
51.8000,0.758
51.8400,0.798
51.8800,0.743
51.9200,0.774
51.9600,0.747
52.0000,0.776
52.0400,0.772
52.0800,0.766
52.1200,0.783
52.1600,0.766
52.2000,0.786
52.2400,0.764
52.2800,0.745
52.3200,0.759
52.3600,0.746
52.4000,0.717
52.4400,0.733
52.4800,0.762
52.5200,0.716
52.5600,0.759
52.6000,0.731
52.6400,0.767
52.6800,0.753
52.7200,0.748
52.7600,0.714
52.8000,0.746
52.8400,0.741
52.8800,0.745
52.9200,0.705
52.9600,0.753
53.0000,0.741
53.0400,0.790
53.0800,0.760
53.1200,0.793
53.1600,0.729
53.2000,0.743
53.2400,0.741
53.2800,0.729
53.3200,0.717
53.3600,0.726
53.4000,0.748
53.4400,0.751
53.4800,0.740
53.5200,0.712
53.5600,0.719
53.6000,0.699
53.6400,0.670
53.6800,0.732
53.7200,0.738
53.7600,0.761
53.8000,0.755
53.8400,0.704
53.8800,0.747
53.9200,0.704
53.9600,0.748
54.0000,0.731
54.0400,0.736
54.0800,0.733
54.1200,0.739
54.1600,0.722
54.2000,0.739
54.2400,0.683
54.2800,0.705
54.3200,0.718
54.3600,0.698
54.4000,0.693
54.4400,0.729
54.4800,0.732
54.5200,0.711
54.5600,0.697
54.6000,0.693
54.6400,0.699
54.6800,0.717
54.7200,0.667
54.7600,0.720
54.8000,0.700
54.8400,0.656
54.8800,0.720
54.9200,0.701
54.9600,0.684
55.0000,0.721
55.0400,0.734
55.0800,0.692
55.1200,0.681
55.1600,0.641
55.2000,0.670
55.2400,0.724
55.2800,0.683
55.3200,0.699
55.3600,0.702
55.4000,0.697
55.4400,0.692
55.4800,0.680
55.5200,0.635
55.5600,0.685
55.6000,0.660
55.6400,0.683
55.6800,0.656
55.7200,0.696
55.7600,0.635
55.8000,0.723
55.8400,0.675
55.8800,0.698
55.9200,0.638
55.9600,0.710
56.0000,0.679
56.0400,0.676
56.0800,0.651
56.1200,0.681
56.1600,0.677
56.2000,0.685
56.2400,0.654
56.2800,0.717
56.3200,0.696
56.3600,0.688
56.4000,0.668
56.4400,0.640
56.4800,0.707
56.5200,0.700
56.5600,0.667
56.6000,0.679
56.6400,0.658
56.6800,0.672
56.7200,0.686
56.7600,0.657
56.8000,0.723
56.8400,0.671
56.8800,0.679
56.9200,0.663
56.9600,0.726
57.0000,0.664
57.0400,0.683
57.0800,0.666
57.1200,0.680
57.1600,0.669
57.2000,0.684
57.2400,0.639
57.2800,0.659
57.3200,0.616
57.3600,0.620
57.4000,0.696
57.4400,0.661
57.4800,0.635
57.5200,0.631
57.5600,0.628
57.6000,0.660
57.6400,0.639
57.6800,0.644
57.7200,0.676
57.7600,0.592
57.8000,0.622
57.8400,0.655
57.8800,0.645
57.9200,0.638
57.9600,0.620
58.0000,0.632
58.0400,0.612
58.0800,0.628
58.1200,0.623
58.1600,0.625
58.2000,0.635
58.2400,0.645
58.2800,0.654
58.3200,0.611
58.3600,0.627
58.4000,0.637
58.4400,0.643
58.4800,0.608
58.5200,0.627
58.5600,0.632
58.6000,0.634
58.6400,0.670
58.6800,0.632
58.7200,0.613
58.7600,0.616
58.8000,0.615
58.8400,0.648
58.8800,0.635
58.9200,0.642
58.9600,0.639
59.0000,0.620
59.0400,0.603
59.0800,0.607
59.1200,0.605
59.1600,0.602
59.2000,0.610
59.2400,0.618
59.2800,0.623
59.3200,0.558
59.3600,0.593
59.4000,0.633
59.4400,0.600
59.4800,0.568
59.5200,0.563
59.5600,0.594
59.6000,0.594
59.6400,0.568
59.6800,0.621
59.7200,0.611
59.7600,0.568
59.8000,0.587
59.8400,0.608
59.8800,0.628
59.9200,0.570
59.9600,0.618
60.0000,0.602
60.0400,0.613
60.0800,0.593
60.1200,0.580
60.1600,0.573
60.2000,0.634
60.2400,0.584
60.2800,0.562
60.3200,0.589
60.3600,0.600
60.4000,0.623
60.4400,0.561
60.4800,0.584
60.5200,0.567
60.5600,0.539
60.6000,0.587
60.6400,0.567
60.6800,0.565
60.7200,0.560
60.7600,0.553
60.8000,0.538
60.8400,0.574
60.8800,0.565
60.9200,0.578
60.9600,0.604
61.0000,0.546
61.0400,0.619
61.0800,0.555
61.1200,0.556
61.1600,0.559
61.2000,0.591
61.2400,0.560
61.2800,0.567
61.3200,0.574
61.3600,0.589
61.4000,0.550
61.4400,0.541
61.4800,0.580
61.5200,0.615
61.5600,0.579
61.6000,0.587
61.6400,0.617
61.6800,0.654
61.7200,0.647
61.7600,0.607
61.8000,0.597
61.8400,0.620
61.8800,0.523
61.9200,0.527
61.9600,0.538
62.0000,0.554
62.0400,0.538
62.0800,0.561
62.1200,0.553
62.1600,0.551
62.2000,0.579
62.2400,0.581
62.2800,0.562
62.3200,0.596
62.3600,0.569
62.4000,0.604
62.4400,0.551
62.4800,0.553
62.5200,0.574
62.5600,0.551
62.6000,0.576
62.6400,0.611
62.6800,0.627
62.7200,0.535
62.7600,0.561
62.8000,0.578
62.8400,0.546
62.8800,0.551
62.9200,0.590
62.9600,0.591
63.0000,0.603
63.0400,0.610
63.0800,0.551
63.1200,0.557
63.1600,0.595
63.2000,0.590
63.2400,0.607
63.2800,0.579
63.3200,0.558
63.3600,0.556
63.4000,0.579
63.4400,0.580
63.4800,0.578
63.5200,0.607
63.5600,0.638
63.6000,0.599
63.6400,0.622
63.6800,0.602
63.7200,0.592
63.7600,0.562
63.8000,0.608
63.8400,0.593
63.8800,0.606
63.9200,0.615
63.9600,0.614
64.0000,0.631
64.0400,0.597
64.0800,0.607
64.1200,0.623
64.1600,0.621
64.2000,0.676
64.2400,0.627
64.2800,0.630
64.3200,0.630
64.3600,0.655
64.4000,0.689
64.4400,0.719
64.4800,0.669
64.5200,0.722
64.5600,0.737
64.6000,0.742
64.6400,0.737
64.6800,0.802
64.7200,0.814
64.7600,0.882
64.8000,0.844
64.8400,0.915
64.8800,0.977
64.9200,1.031
64.9600,1.103
65.0000,1.178
65.0400,1.280
65.0800,1.421
65.1200,1.486
65.1600,1.629
65.2000,1.809
65.2400,1.841
65.2800,1.971
65.3200,1.893
65.3600,1.986
65.4000,1.925
65.4400,1.745
65.4800,1.705
65.5200,1.610
65.5600,1.486
65.6000,1.466
65.6400,1.323
65.6800,1.238
65.7200,1.227
65.7600,1.156
65.8000,1.102
65.8400,1.018
65.8800,1.062
65.9200,0.968
65.9600,0.959
66.0000,0.925
66.0400,0.895
66.0800,0.920
66.1200,0.914
66.1600,0.911
66.2000,0.898
66.2400,0.874
66.2800,0.923
66.3200,0.879
66.3600,0.874
66.4000,0.903
66.4400,0.898
66.4800,0.887
66.5200,0.885
66.5600,0.891
66.6000,0.941
66.6400,0.928
66.6800,0.947
66.7200,0.851
66.7600,0.944
66.8000,0.947
66.8400,0.992
66.8800,1.002
66.9200,1.037
66.9600,0.999
67.0000,1.035
67.0400,1.052
67.0800,0.996
67.1200,1.058
67.1600,0.985
67.2000,1.105
67.2400,1.056
67.2800,1.140
67.3200,1.175
67.3600,1.133
67.4000,1.114
67.4400,1.212
67.4800,1.196
67.5200,1.272
67.5600,1.253
67.6000,1.328
67.6400,1.326
67.6800,1.290
67.7200,1.347
67.7600,1.416
67.8000,1.423
67.8400,1.431
67.8800,1.423
67.9200,1.465
67.9600,1.486
68.0000,1.534
68.0400,1.647
68.0800,1.678
68.1200,1.719
68.1600,1.775
68.2000,1.837
68.2400,1.849
68.2800,1.933
68.3200,1.978
68.3600,2.112
68.4000,2.223
68.4400,2.207
68.4800,2.232
68.5200,2.426
68.5600,2.585
68.6000,2.774
68.6400,2.962
68.6800,3.317
68.7200,4.023
68.7600,5.210
68.8000,6.407
68.8400,7.169
68.8800,7.349
68.9200,7.731
68.9600,9.287
69.0000,13.085
69.0400,22.551
69.0800,59.928
69.1200,285.166
69.1600,515.496
69.2000,293.897
69.2400,74.279
69.2800,55.812
69.3200,167.734
69.3600,265.337
69.4000,146.020
69.4400,37.126
69.4800,15.446
69.5200,10.081
69.5600,7.651
69.6000,6.208
69.6400,5.362
69.6800,4.612
69.7200,4.170
69.7600,3.686
69.8000,3.395
69.8400,3.305
69.8800,2.977
69.9200,2.853
69.9600,2.703
70.0000,2.552
70.0400,2.481
70.0800,2.399
70.1200,2.321
70.1600,2.259
70.2000,2.225
70.2400,2.055
70.2800,2.059
70.3200,1.907
70.3600,1.823
70.4000,1.817
70.4400,1.750
70.4800,1.677
70.5200,1.692
70.5600,1.569
70.6000,1.513
70.6400,1.462
70.6800,1.504
70.7200,1.539
70.7600,1.394
70.8000,1.381
70.8400,1.354
70.8800,1.332
70.9200,1.226
70.9600,1.265
71.0000,1.248
71.0400,1.125
71.0800,1.157
71.1200,1.154
71.1600,1.086
71.2000,1.067
71.2400,1.042
71.2800,0.983
71.3200,0.974
71.3600,1.035
71.4000,1.001
71.4400,0.923
71.4800,0.963
71.5200,0.914
71.5600,0.902
71.6000,0.912
71.6400,0.929
71.6800,0.862
71.7200,0.802
71.7600,0.769
71.8000,0.809
71.8400,0.815
71.8800,0.811
71.9200,0.745
71.9600,0.771
72.0000,0.722
72.0400,0.757
72.0800,0.731
72.1200,0.726
72.1600,0.732
72.2000,0.669
72.2400,0.672
72.2800,0.706
72.3200,0.697
72.3600,0.655
72.4000,0.658
72.4400,0.636
72.4800,0.654
72.5200,0.634
72.5600,0.622
72.6000,0.614
72.6400,0.608
72.6800,0.621
72.7200,0.601
72.7600,0.635
72.8000,0.583
72.8400,0.603
72.8800,0.549
72.9200,0.556
72.9600,0.548
73.0000,0.610
73.0400,0.558
73.0800,0.511
73.1200,0.525
73.1600,0.531
73.2000,0.513
73.2400,0.521
73.2800,0.548
73.3200,0.590
73.3600,0.561
73.4000,0.519
73.4400,0.470
73.4800,0.501
73.5200,0.503
73.5600,0.496
73.6000,0.517
73.6400,0.523
73.6800,0.475
73.7200,0.457
73.7600,0.471
73.8000,0.458
73.8400,0.496
73.8800,0.491
73.9200,0.485
73.9600,0.466
74.0000,0.485
74.0400,0.495
74.0800,0.455
74.1200,0.483
74.1600,0.479
74.2000,0.471
74.2400,0.487
74.2800,0.473
74.3200,0.466
74.3600,0.421
74.4000,0.477
74.4400,0.431
74.4800,0.441
74.5200,0.461
74.5600,0.415
74.6000,0.442
74.6400,0.452
74.6800,0.416
74.7200,0.418
74.7600,0.429
74.8000,0.423
74.8400,0.442
74.8800,0.423
74.9200,0.436
74.9600,0.404
75.0000,0.411
75.0400,0.448
75.0800,0.434
75.1200,0.419
75.1600,0.417
75.2000,0.441
75.2400,0.412
75.2800,0.452
75.3200,0.400
75.3600,0.423
75.4000,0.416
75.4400,0.407
75.4800,0.408
75.5200,0.365
75.5600,0.393
75.6000,0.405
75.6400,0.382
75.6800,0.403
75.7200,0.369
75.7600,0.408
75.8000,0.388
75.8400,0.377
75.8800,0.378
75.9200,0.418
75.9600,0.389
76.0000,0.380
76.0400,0.392
76.0800,0.369
76.1200,0.389
76.1600,0.385
76.2000,0.408
76.2400,0.340
76.2800,0.386
76.3200,0.414
76.3600,0.429
76.4000,0.372
76.4400,0.377
76.4800,0.381
76.5200,0.402
76.5600,0.400
76.6000,0.350
76.6400,0.396
76.6800,0.415
76.7200,0.383
76.7600,0.419
76.8000,0.414
76.8400,0.394
76.8800,0.407
76.9200,0.391
76.9600,0.393
77.0000,0.432
77.0400,0.416
77.0800,0.452
77.1200,0.460
77.1600,0.426
77.2000,0.390
77.2400,0.385
77.2800,0.421
77.3200,0.423
77.3600,0.450
77.4000,0.463
77.4400,0.453
77.4800,0.453
77.5200,0.429
77.5600,0.464
77.6000,0.464
77.6400,0.440
77.6800,0.436
77.7200,0.486
77.7600,0.477
77.8000,0.523
77.8400,0.503
77.8800,0.499
77.9200,0.608
77.9600,0.634
78.0000,0.577
78.0400,0.676
78.0800,0.719
78.1200,0.765
78.1600,0.775
78.2000,0.802
78.2400,0.925
78.2800,0.952
78.3200,0.984
78.3600,1.034
78.4000,1.097
78.4400,1.097
78.4800,1.110
78.5200,1.182
78.5600,1.180
78.6000,1.186
78.6400,1.173
78.6800,1.176
78.7200,1.106
78.7600,1.069
78.8000,0.963
78.8400,0.954
78.8800,0.876
78.9200,0.859
78.9600,0.803
79.0000,0.745
79.0400,0.713
79.0800,0.695
79.1200,0.669
79.1600,0.604
79.2000,0.618
79.2400,0.531
79.2800,0.523
79.3200,0.529
79.3600,0.524
79.4000,0.457
79.4400,0.447
79.4800,0.468
79.5200,0.469
79.5600,0.462
79.6000,0.430
79.6400,0.402
79.6800,0.400
79.7200,0.413
79.7600,0.379
79.8000,0.380
79.8400,0.388
79.8800,0.393
79.9200,0.384
79.9600,0.374
80.0000,0.373
