theta,intensity
5.0000,4.999
5.0400,4.889
5.0800,5.052
5.1200,5.040
5.1600,4.965
5.2000,5.007
5.2400,4.880
5.2800,4.895
5.3200,4.848
5.3600,4.826
5.4000,4.792
5.4400,4.689
5.4800,4.766
5.5200,4.891
5.5600,4.938
5.6000,4.810
5.6400,4.803
5.6800,4.734
5.7200,4.625
5.7600,4.628
5.8000,4.729
5.8400,4.725
5.8800,4.612
5.9200,4.629
5.9600,4.467
6.0000,4.510
6.0400,4.467
6.0800,4.384
6.1200,4.379
6.1600,4.363
6.2000,4.256
6.2400,4.198
6.2800,4.311
6.3200,4.273
6.3600,4.172
6.4000,4.143
6.4400,4.239
6.4800,4.245
6.5200,4.100
6.5600,4.015
6.6000,4.128
6.6400,4.120
6.6800,4.146
6.7200,4.157
6.7600,4.085
6.8000,4.093
6.8400,4.233
6.8800,4.089
6.9200,4.053
6.9600,4.026
7.0000,4.129
7.0400,4.110
7.0800,4.106
7.1200,4.031
7.1600,3.985
7.2000,3.982
7.2400,3.927
7.2800,3.954
7.3200,3.985
7.3600,3.937
7.4000,3.971
7.4400,3.856
7.4800,4.043
7.5200,3.914
7.5600,3.951
7.6000,3.975
7.6400,3.983
7.6800,4.018
7.7200,4.019
7.7600,3.901
7.8000,4.016
7.8400,3.905
7.8800,3.878
7.9200,3.920
7.9600,3.923
8.0000,3.952
8.0400,3.789
8.0800,3.928
8.1200,3.834
8.1600,3.969
8.2000,3.875
8.2400,3.929
8.2800,3.904
8.3200,3.845
8.3600,3.897
8.4000,3.903
8.4400,3.870
8.4800,3.798
8.5200,3.855
8.5600,3.835
8.6000,3.766
8.6400,3.891
8.6800,3.776
8.7200,3.724
8.7600,3.770
8.8000,3.781
8.8400,3.769
8.8800,3.746
8.9200,3.782
8.9600,3.734
9.0000,3.716
9.0400,3.726
9.0800,3.738
9.1200,3.740
9.1600,3.654
9.2000,3.703
9.2400,3.776
9.2800,3.768
9.3200,3.749
9.3600,3.695
9.4000,3.712
9.4400,3.780
9.4800,3.762
9.5200,3.683
9.5600,3.638
9.6000,3.699
9.6400,3.833
9.6800,3.628
9.7200,3.634
9.7600,3.772
9.8000,3.639
9.8400,3.779
9.8800,3.682
9.9200,3.663
9.9600,3.804
10.0000,3.613
10.0400,3.675
10.0800,3.685
10.1200,3.658
10.1600,3.650
10.2000,3.633
10.2400,3.650
10.2800,3.661
10.3200,3.688
10.3600,3.633
10.4000,3.592
10.4400,3.583
10.4800,3.650
10.5200,3.630
10.5600,3.580
10.6000,3.625
10.6400,3.656
10.6800,3.614
10.7200,3.667
10.7600,3.578
10.8000,3.733
10.8400,3.679
10.8800,3.633
10.9200,3.443
10.9600,3.437
11.0000,3.638
11.0400,3.536
11.0800,3.542
11.1200,3.574
11.1600,3.498
11.2000,3.570
11.2400,3.489
11.2800,3.643
11.3200,3.460
11.3600,3.606
11.4000,3.468
11.4400,3.454
11.4800,3.490
11.5200,3.545
11.5600,3.568
11.6000,3.436
11.6400,3.435
11.6800,3.540
11.7200,3.646
11.7600,3.402
11.8000,3.396
11.8400,3.448
11.8800,3.572
11.9200,3.487
11.9600,3.468
12.0000,3.505
12.0400,3.523
12.0800,3.484
12.1200,3.469
12.1600,3.446
12.2000,3.383
12.2400,3.383
12.2800,3.463
12.3200,3.441
12.3600,3.394
12.4000,3.477
12.4400,3.361
12.4800,3.290
12.5200,3.355
12.5600,3.328
12.6000,3.338
12.6400,3.331
12.6800,3.478
12.7200,3.363
12.7600,3.330
12.8000,3.405
12.8400,3.475
12.8800,3.381
12.9200,3.329
12.9600,3.216
13.0000,3.296
13.0400,3.346
13.0800,3.332
13.1200,3.431
13.1600,3.340
13.2000,3.300
13.2400,3.412
13.2800,3.327
13.3200,3.429
13.3600,3.379
13.4000,3.368
13.4400,3.334
13.4800,3.402
13.5200,3.310
13.5600,3.292
13.6000,3.340
13.6400,3.316
13.6800,3.365
13.7200,3.328
13.7600,3.256
13.8000,3.371
13.8400,3.405
13.8800,3.267
13.9200,3.283
13.9600,3.217
14.0000,3.149
14.0400,3.329
14.0800,3.296
14.1200,3.222
14.1600,3.306
14.2000,3.303
14.2400,3.216
14.2800,3.152
14.3200,3.224
14.3600,3.174
14.4000,3.273
14.4400,3.189
14.4800,3.273
14.5200,3.164
14.5600,3.221
14.6000,3.168
14.6400,3.159
14.6800,3.231
14.7200,3.215
14.7600,3.200
14.8000,3.223
14.8400,3.182
14.8800,3.101
14.9200,3.260
14.9600,3.258
15.0000,3.115
15.0400,3.240
15.0800,3.124
15.1200,3.140
15.1600,3.249
15.2000,3.242
15.2400,3.215
15.2800,3.107
15.3200,3.153
15.3600,3.121
15.4000,3.254
15.4400,3.119
15.4800,3.118
15.5200,3.112
15.5600,3.122
15.6000,3.244
15.6400,3.126
15.6800,2.945
15.7200,3.080
15.7600,3.096
15.8000,3.122
15.8400,3.162
15.8800,3.207
15.9200,3.059
15.9600,3.106
16.0000,3.106
16.0400,3.131
16.0800,3.088
16.1200,3.074
16.1600,3.026
16.2000,3.068
16.2400,2.902
16.2800,3.048
16.3200,3.152
16.3600,3.073
16.4000,3.118
16.4400,3.013
16.4800,2.996
16.5200,3.120
16.5600,3.024
16.6000,2.995
16.6400,2.961
16.6800,3.003
16.7200,2.976
16.7600,3.046
16.8000,2.923
16.8400,2.970
16.8800,2.950
16.9200,3.069
16.9600,3.038
17.0000,2.986
17.0400,2.920
17.0800,2.920
17.1200,2.864
17.1600,2.852
17.2000,2.958
17.2400,3.032
17.2800,2.993
17.3200,2.863
17.3600,3.020
17.4000,3.009
17.4400,2.905
17.4800,2.895
17.5200,2.880
17.5600,2.992
17.6000,3.041
17.6400,2.916
17.6800,2.905
17.7200,2.934
17.7600,2.950
17.8000,2.898
17.8400,2.958
17.8800,2.896
17.9200,2.882
17.9600,2.847
18.0000,2.988
18.0400,2.904
18.0800,2.888
18.1200,2.919
18.1600,2.830
18.2000,2.844
18.2400,2.957
18.2800,3.046
18.3200,2.914
18.3600,2.840
18.4000,2.861
18.4400,2.946
18.4800,2.837
18.5200,2.866
18.5600,2.891
18.6000,2.800
18.6400,2.753
18.6800,2.776
18.7200,2.802
18.7600,2.890
18.8000,2.786
18.8400,2.863
18.8800,2.848
18.9200,2.825
18.9600,2.881
19.0000,2.724
19.0400,2.797
19.0800,2.803
19.1200,2.779
19.1600,2.870
19.2000,2.860
19.2400,2.827
19.2800,2.864
19.3200,2.853
19.3600,2.773
19.4000,2.765
19.4400,2.853
19.4800,2.810
19.5200,2.787
19.5600,2.699
19.6000,2.819
19.6400,2.794
19.6800,2.696
19.7200,2.686
19.7600,2.817
19.8000,2.759
19.8400,2.781
19.8800,2.776
19.9200,2.748
19.9600,2.697
20.0000,2.763
20.0400,2.757
20.0800,2.736
20.1200,2.731
20.1600,2.676
20.2000,2.736
20.2400,2.661
20.2800,2.716
20.3200,2.807
20.3600,2.736
20.4000,2.816
20.4400,2.685
20.4800,2.682
20.5200,2.634
20.5600,2.760
20.6000,2.704
20.6400,2.664
20.6800,2.745
20.7200,2.747
20.7600,2.758
20.8000,2.766
20.8400,2.725
20.8800,2.624
20.9200,2.663
20.9600,2.697
21.0000,2.559
21.0400,2.615
21.0800,2.641
21.1200,2.649
21.1600,2.710
21.2000,2.566
21.2400,2.589
21.2800,2.592
21.3200,2.595
21.3600,2.697
21.4000,2.632
21.4400,2.662
21.4800,2.619
21.5200,2.559
21.5600,2.556
21.6000,2.634
21.6400,2.592
21.6800,2.612
21.7200,2.665
21.7600,2.574
21.8000,2.651
21.8400,2.568
21.8800,2.642
21.9200,2.726
21.9600,2.708
22.0000,2.603
22.0400,2.662
22.0800,2.631
22.1200,2.601
22.1600,2.523
22.2000,2.600
22.2400,2.542
22.2800,2.639
22.3200,2.481
22.3600,2.543
22.4000,2.503
22.4400,2.576
22.4800,2.556
22.5200,2.615
22.5600,2.649
22.6000,2.662
22.6400,2.647
22.6800,2.688
22.7200,2.720
22.7600,2.855
22.8000,2.689
22.8400,2.673
22.8800,2.684
22.9200,2.575
22.9600,2.710
23.0000,2.658
23.0400,2.558
23.0800,2.663
23.1200,2.568
23.1600,2.594
23.2000,2.658
23.2400,2.482
23.2800,2.558
23.3200,2.565
23.3600,2.442
23.4000,2.452
23.4400,2.403
23.4800,2.489
23.5200,2.521
23.5600,2.430
23.6000,2.440
23.6400,2.454
23.6800,2.449
23.7200,2.402
23.7600,2.429
23.8000,2.467
23.8400,2.450
23.8800,2.354
23.9200,2.461
23.9600,2.459
24.0000,2.403
24.0400,2.411
24.0800,2.341
24.1200,2.417
24.1600,2.383
24.2000,2.339
24.2400,2.286
24.2800,2.384
24.3200,2.364
24.3600,2.347
24.4000,2.350
24.4400,2.393
24.4800,2.400
24.5200,2.474
24.5600,2.409
24.6000,2.374
24.6400,2.350
24.6800,2.429
24.7200,2.339
24.7600,2.357
24.8000,2.356
24.8400,2.428
24.8800,2.345
24.9200,2.433
24.9600,2.353
25.0000,2.268
25.0400,2.408
25.0800,2.286
25.1200,2.316
25.1600,2.375
25.2000,2.350
25.2400,2.277
25.2800,2.202
25.3200,2.239
25.3600,2.375
25.4000,2.218
25.4400,2.351
25.4800,2.385
25.5200,2.407
25.5600,2.290
25.6000,2.266
25.6400,2.200
25.6800,2.231
25.7200,2.296
25.7600,2.416
25.8000,2.356
25.8400,2.332
25.8800,2.376
25.9200,2.249
25.9600,2.202
26.0000,2.317
26.0400,2.318
26.0800,2.236
26.1200,2.194
26.1600,2.265
26.2000,2.224
26.2400,2.234
26.2800,2.245
26.3200,2.253
26.3600,2.181
26.4000,2.269
26.4400,2.193
26.4800,2.262
26.5200,2.235
26.5600,2.226
26.6000,2.175
26.6400,2.169
26.6800,2.291
26.7200,2.193
26.7600,2.189
26.8000,2.209
26.8400,2.224
26.8800,2.176
26.9200,2.171
26.9600,2.209
27.0000,2.237
27.0400,2.267
27.0800,2.217
27.1200,2.204
27.1600,2.201
27.2000,2.285
27.2400,2.201
27.2800,2.223
27.3200,2.187
27.3600,2.216
27.4000,2.261
27.4400,2.231
27.4800,2.240
27.5200,2.259
27.5600,2.314
27.6000,2.315
27.6400,2.232
27.6800,2.295
27.7200,2.352
27.7600,2.367
27.8000,2.429
27.8400,2.455
27.8800,2.309
27.9200,2.413
27.9600,2.564
28.0000,2.511
28.0400,2.612
28.0800,2.770
28.1200,2.628
28.1600,2.847
28.2000,2.850
28.2400,2.867
28.2800,2.964
28.3200,2.979
28.3600,2.872
28.4000,2.919
28.4400,2.883
28.4800,2.720
28.5200,2.743
28.5600,2.654
28.6000,2.605
28.6400,2.455
28.6800,2.466
28.7200,2.424
28.7600,2.292
28.8000,2.308
28.8400,2.277
28.8800,2.173
28.9200,2.179
28.9600,2.245
29.0000,2.191
29.0400,2.147
29.0800,2.099
29.1200,2.098
29.1600,2.111
29.2000,2.086
29.2400,2.027
29.2800,2.023
29.3200,2.068
29.3600,1.970
29.4000,2.037
29.4400,1.899
29.4800,2.002
29.5200,1.995
29.5600,2.014
29.6000,1.958
29.6400,2.095
29.6800,1.972
29.7200,1.978
29.7600,2.064
29.8000,1.944
29.8400,1.987
29.8800,1.952
29.9200,1.976
29.9600,2.003
30.0000,1.982
30.0400,1.865
30.0800,1.798
30.1200,1.917
30.1600,1.875
30.2000,1.980
30.2400,1.923
30.2800,1.928
30.3200,2.011
30.3600,1.983
30.4000,1.914
30.4400,1.939
30.4800,1.967
30.5200,1.954
30.5600,1.949
30.6000,1.902
30.6400,1.915
30.6800,1.889
30.7200,1.864
30.7600,1.829
30.8000,1.927
30.8400,1.885
30.8800,1.937
30.9200,1.916
30.9600,1.909
31.0000,1.925
31.0400,1.916
31.0800,1.953
31.1200,1.973
31.1600,1.924
31.2000,1.861
31.2400,1.949
31.2800,1.928
31.3200,1.946
31.3600,1.935
31.4000,1.962
31.4400,1.963
31.4800,2.053
31.5200,1.982
31.5600,1.967
31.6000,2.005
31.6400,2.085
31.6800,2.037
31.7200,2.019
31.7600,2.055
31.8000,1.996
31.8400,2.001
31.8800,1.963
31.9200,1.959
31.9600,1.934
32.0000,1.942
32.0400,1.883
32.0800,1.887
32.1200,1.925
32.1600,1.927
32.2000,1.871
32.2400,1.899
32.2800,1.993
32.3200,1.837
32.3600,1.908
32.4000,1.863
32.4400,1.859
32.4800,1.868
32.5200,1.928
32.5600,1.900
32.6000,1.795
32.6400,1.784
32.6800,1.794
32.7200,1.840
32.7600,1.829
32.8000,1.819
32.8400,1.919
32.8800,1.709
32.9200,1.720
32.9600,1.764
33.0000,1.852
33.0400,1.831
33.0800,1.758
33.1200,1.723
33.1600,1.760
33.2000,1.701
33.2400,1.736
33.2800,1.782
33.3200,1.843
33.3600,1.822
33.4000,1.785
33.4400,1.707
33.4800,1.778
33.5200,1.747
33.5600,1.813
33.6000,1.744
33.6400,1.808
33.6800,1.764
33.7200,1.765
33.7600,1.848
33.8000,1.777
33.8400,1.739
33.8800,1.754
33.9200,1.771
33.9600,1.746
34.0000,1.868
34.0400,1.789
34.0800,1.742
34.1200,1.759
34.1600,1.647
34.2000,1.786
34.2400,1.837
34.2800,1.817
34.3200,1.792
34.3600,1.774
34.4000,1.839
34.4400,1.838
34.4800,1.792
34.5200,1.802
34.5600,1.785
34.6000,1.703
34.6400,1.721
34.6800,1.737
34.7200,1.827
34.7600,1.807
34.8000,1.780
34.8400,1.773
34.8800,1.667
34.9200,1.817
34.9600,1.821
35.0000,1.791
35.0400,1.781
35.0800,1.672
35.1200,1.744
35.1600,1.821
35.2000,1.772
35.2400,1.802
35.2800,1.763
35.3200,1.710
35.3600,1.807
35.4000,1.755
35.4400,1.674
35.4800,1.809
35.5200,1.718
35.5600,1.749
35.6000,1.810
35.6400,1.761
35.6800,1.809
35.7200,1.852
35.7600,1.848
35.8000,1.846
35.8400,1.713
35.8800,1.794
35.9200,1.798
35.9600,1.800
36.0000,1.804
36.0400,1.804
36.0800,1.772
36.1200,1.788
36.1600,1.798
36.2000,1.756
36.2400,1.851
36.2800,1.828
36.3200,1.885
36.3600,1.870
36.4000,1.832
36.4400,1.840
36.4800,1.755
36.5200,1.815
36.5600,1.879
36.6000,1.831
36.6400,1.780
36.6800,1.855
36.7200,1.833
36.7600,1.859
36.8000,1.807
36.8400,1.889
36.8800,1.839
36.9200,1.820
36.9600,1.861
37.0000,1.877
37.0400,1.922
37.0800,1.830
37.1200,1.790
37.1600,1.915
37.2000,1.886
37.2400,1.883
37.2800,1.832
37.3200,1.782
37.3600,1.808
37.4000,1.903
37.4400,1.910
37.4800,1.966
37.5200,1.975
37.5600,1.925
37.6000,2.007
37.6400,1.960
37.6800,1.925
37.7200,1.998
37.7600,2.022
37.8000,2.055
37.8400,2.054
37.8800,2.130
37.9200,2.176
37.9600,2.241
38.0000,2.367
38.0400,2.313
38.0800,2.432
38.1200,2.557
38.1600,2.598
38.2000,2.846
38.2400,3.026
38.2800,3.119
38.3200,3.505
38.3600,3.827
38.4000,4.221
38.4400,4.707
38.4800,5.397
38.5200,6.362
38.5600,7.419
38.6000,8.668
38.6400,9.903
38.6800,10.621
38.7200,10.427
38.7600,9.632
38.8000,8.746
38.8400,7.465
38.8800,6.246
38.9200,5.415
38.9600,4.761
39.0000,4.134
39.0400,3.701
39.0800,3.462
39.1200,3.235
39.1600,2.956
39.2000,2.844
39.2400,2.880
39.2800,2.580
39.3200,2.647
39.3600,2.604
39.4000,2.497
39.4400,2.484
39.4800,2.635
39.5200,2.561
39.5600,2.551
39.6000,2.536
39.6400,2.504
39.6800,2.646
39.7200,2.695
39.7600,2.822
39.8000,2.964
39.8400,3.032
39.8800,3.186
39.9200,3.368
39.9600,3.655
40.0000,4.045
40.0400,4.224
40.0800,4.583
40.1200,5.018
40.1600,5.394
40.2000,5.865
40.2400,6.233
40.2800,6.256
40.3200,6.264
40.3600,6.091
40.4000,5.976
40.4400,5.548
40.4800,5.049
40.5200,4.645
40.5600,4.103
40.6000,3.770
40.6400,3.547
40.6800,3.133
40.7200,2.969
40.7600,2.815
40.8000,2.507
40.8400,2.412
40.8800,2.271
40.9200,2.107
40.9600,2.086
41.0000,2.042
41.0400,1.955
41.0800,1.937
41.1200,1.901
41.1600,1.841
41.2000,1.786
41.2400,1.778
41.2800,1.811
41.3200,1.695
41.3600,1.648
41.4000,1.695
41.4400,1.666
41.4800,1.710
41.5200,1.662
41.5600,1.527
41.6000,1.553
41.6400,1.555
41.6800,1.560
41.7200,1.573
41.7600,1.513
41.8000,1.467
41.8400,1.528
41.8800,1.431
41.9200,1.486
41.9600,1.525
42.0000,1.594
42.0400,1.499
42.0800,1.381
42.1200,1.471
42.1600,1.426
42.2000,1.396
42.2400,1.428
42.2800,1.364
42.3200,1.383
42.3600,1.388
42.4000,1.430
42.4400,1.392
42.4800,1.434
42.5200,1.347
42.5600,1.269
42.6000,1.390
42.6400,1.340
42.6800,1.401
42.7200,1.451
42.7600,1.305
42.8000,1.380
42.8400,1.367
42.8800,1.348
42.9200,1.367
42.9600,1.335
43.0000,1.324
43.0400,1.389
43.0800,1.330
43.1200,1.337
43.1600,1.304
43.2000,1.330
43.2400,1.343
43.2800,1.334
43.3200,1.277
43.3600,1.302
43.4000,1.296
43.4400,1.300
43.4800,1.343
43.5200,1.297
43.5600,1.350
43.6000,1.364
43.6400,1.361
43.6800,1.365
43.7200,1.350
43.7600,1.361
43.8000,1.349
43.8400,1.258
43.8800,1.354
43.9200,1.373
43.9600,1.358
44.0000,1.407
44.0400,1.381
44.0800,1.454
44.1200,1.409
44.1600,1.473
44.2000,1.519
44.2400,1.455
44.2800,1.483
44.3200,1.517
44.3600,1.610
44.4000,1.591
44.4400,1.656
44.4800,1.659
44.5200,1.731
44.5600,1.785
44.6000,1.795
44.6400,1.809
44.6800,1.902
44.7200,2.041
44.7600,2.062
44.8000,1.990
44.8400,2.144
44.8800,2.174
44.9200,2.247
44.9600,2.380
45.0000,2.304
45.0400,2.412
45.0800,2.649
45.1200,2.689
45.1600,2.727
45.2000,2.827
45.2400,2.765
45.2800,2.638
45.3200,2.648
45.3600,2.493
45.4000,2.352
45.4400,2.186
45.4800,2.070
45.5200,1.967
45.5600,1.842
45.6000,1.769
45.6400,1.687
45.6800,1.583
45.7200,1.564
45.7600,1.496
45.8000,1.432
45.8400,1.380
45.8800,1.322
45.9200,1.303
45.9600,1.252
46.0000,1.226
46.0400,1.133
46.0800,1.225
46.1200,1.233
46.1600,1.231
46.2000,1.201
46.2400,1.133
46.2800,1.169
46.3200,1.135
46.3600,1.157
46.4000,1.171
46.4400,1.147
46.4800,1.070
46.5200,1.091
46.5600,1.087
46.6000,1.066
46.6400,1.075
46.6800,1.051
46.7200,1.190
46.7600,1.022
46.8000,1.057
46.8400,1.095
46.8800,1.035
46.9200,1.020
46.9600,1.093
47.0000,1.021
47.0400,1.015
47.0800,0.989
47.1200,1.016
47.1600,0.942
47.2000,1.024
47.2400,1.065
47.2800,0.994
47.3200,1.001
47.3600,0.999
47.4000,0.996
47.4400,1.025
47.4800,0.938
47.5200,1.000
47.5600,1.048
47.6000,0.997
47.6400,0.985
47.6800,1.002
47.7200,0.959
47.7600,0.944
47.8000,0.988
47.8400,0.878
47.8800,0.992
47.9200,0.952
47.9600,0.907
48.0000,1.016
48.0400,0.983
48.0800,0.951
48.1200,0.968
48.1600,1.006
48.2000,1.012
48.2400,0.955
48.2800,0.951
48.3200,0.961
48.3600,0.959
48.4000,0.987
48.4400,0.971
48.4800,0.946
48.5200,0.946
48.5600,0.978
48.6000,0.922
48.6400,0.935
48.6800,0.950
48.7200,0.965
48.7600,0.946
48.8000,0.945
48.8400,0.859
48.8800,0.967
48.9200,0.909
48.9600,0.918
49.0000,0.936
49.0400,0.952
49.0800,0.851
49.1200,0.904
49.1600,0.844
49.2000,0.870
49.2400,0.900
49.2800,0.927
49.3200,0.984
49.3600,0.887
49.4000,0.977
49.4400,0.914
49.4800,0.921
49.5200,0.948
49.5600,0.927
49.6000,1.036
49.6400,0.979
49.6800,1.029
49.7200,1.059
49.7600,1.100
49.8000,1.117
49.8400,1.160
49.8800,1.081
49.9200,1.021
49.9600,1.035
50.0000,1.052
50.0400,0.942
50.0800,0.905
50.1200,0.962
50.1600,0.917
50.2000,0.949
50.2400,0.925
50.2800,0.930
50.3200,0.875
50.3600,0.905
50.4000,0.864
50.4400,0.858
50.4800,0.864
50.5200,0.822
50.5600,0.880
50.6000,0.879
50.6400,0.819
50.6800,0.855
50.7200,0.840
50.7600,0.895
50.8000,0.856
50.8400,0.873
50.8800,0.982
50.9200,0.877
50.9600,0.897
51.0000,0.854
51.0400,0.908
51.0800,0.840
51.1200,0.874
51.1600,0.876
51.2000,0.881
51.2400,0.908
51.2800,0.934
51.3200,0.919
51.3600,0.910
51.4000,0.851
51.4400,0.882
51.4800,0.819
51.5200,0.920
51.5600,0.881
51.6000,0.821
51.6400,0.831
51.6800,0.837
51.7200,0.811
51.7600,0.862
51.8000,0.834
51.8400,0.854
51.8800,0.799
51.9200,0.837
51.9600,0.838
52.0000,0.787
52.0400,0.797
52.0800,0.817
52.1200,0.818
52.1600,0.776
52.2000,0.789
52.2400,0.830
52.2800,0.804
52.3200,0.833
52.3600,0.793
52.4000,0.807
52.4400,0.802
52.4800,0.762
52.5200,0.843
52.5600,0.799
52.6000,0.794
52.6400,0.783
52.6800,0.844
52.7200,0.832
52.7600,0.785
52.8000,0.825
52.8400,0.823
52.8800,0.734
52.9200,0.754
52.9600,0.784
53.0000,0.809
53.0400,0.796
53.0800,0.724
53.1200,0.751
53.1600,0.785
53.2000,0.757
53.2400,0.735
53.2800,0.786
53.3200,0.752
53.3600,0.755
53.4000,0.754
53.4400,0.796
53.4800,0.715
53.5200,0.727
53.5600,0.723
53.6000,0.760
53.6400,0.731
53.6800,0.733
53.7200,0.751
53.7600,0.744
53.8000,0.775
53.8400,0.784
53.8800,0.747
53.9200,0.761
53.9600,0.780
54.0000,0.755
54.0400,0.764
54.0800,0.749
54.1200,0.796
54.1600,0.777
54.2000,0.786
54.2400,0.831
54.2800,0.779
54.3200,0.792
54.3600,0.773
54.4000,0.732
54.4400,0.762
54.4800,0.754
54.5200,0.778
54.5600,0.797
54.6000,0.764
54.6400,0.765
54.6800,0.763
54.7200,0.735
54.7600,0.711
54.8000,0.762
54.8400,0.761
54.8800,0.755
54.9200,0.752
54.9600,0.754
55.0000,0.703
55.0400,0.705
55.0800,0.727
55.1200,0.663
55.1600,0.742
55.2000,0.748
55.2400,0.755
55.2800,0.730
55.3200,0.761
55.3600,0.731
55.4000,0.711
55.4400,0.726
55.4800,0.760
55.5200,0.754
55.5600,0.776
55.6000,0.772
55.6400,0.748
55.6800,0.756
55.7200,0.740
55.7600,0.724
55.8000,0.727
55.8400,0.751
55.8800,0.784
55.9200,0.740
55.9600,0.793
56.0000,0.736
56.0400,0.759
56.0800,0.735
56.1200,0.784
56.1600,0.741
56.2000,0.750
56.2400,0.701
56.2800,0.766
56.3200,0.760
56.3600,0.766
56.4000,0.751
56.4400,0.734
56.4800,0.755
56.5200,0.777
56.5600,0.739
56.6000,0.765
56.6400,0.782
56.6800,0.787
56.7200,0.721
56.7600,0.754
56.8000,0.734
56.8400,0.708
56.8800,0.743
56.9200,0.755
56.9600,0.737
57.0000,0.778
57.0400,0.720
57.0800,0.744
57.1200,0.725
57.1600,0.729
57.2000,0.774
57.2400,0.774
57.2800,0.692
57.3200,0.743
57.3600,0.711
57.4000,0.754
57.4400,0.678
57.4800,0.802
57.5200,0.748
57.5600,0.734
57.6000,0.755
57.6400,0.707
57.6800,0.753
57.7200,0.732
57.7600,0.743
57.8000,0.695
57.8400,0.730
57.8800,0.751
57.9200,0.762
57.9600,0.794
58.0000,0.802
58.0400,0.769
58.0800,0.824
58.1200,0.813
58.1600,0.800
58.2000,0.785
58.2400,0.783
58.2800,0.805
58.3200,0.806
58.3600,0.836
58.4000,0.836
58.4400,0.893
58.4800,0.840
58.5200,0.819
58.5600,0.810
58.6000,0.801
58.6400,0.861
58.6800,0.816
58.7200,0.742
58.7600,0.796
58.8000,0.786
58.8400,0.778
58.8800,0.781
58.9200,0.799
58.9600,0.756
59.0000,0.765
59.0400,0.795
59.0800,0.791
59.1200,0.751
59.1600,0.803
59.2000,0.717
59.2400,0.734
59.2800,0.741
59.3200,0.737
59.3600,0.753
59.4000,0.757
59.4400,0.704
59.4800,0.720
59.5200,0.688
59.5600,0.705
59.6000,0.663
59.6400,0.654
59.6800,0.688
59.7200,0.683
59.7600,0.661
59.8000,0.684
59.8400,0.700
59.8800,0.669
59.9200,0.668
59.9600,0.623
60.0000,0.667
60.0400,0.665
60.0800,0.667
60.1200,0.666
60.1600,0.649
60.2000,0.660
60.2400,0.650
60.2800,0.665
60.3200,0.684
60.3600,0.691
60.4000,0.637
60.4400,0.661
60.4800,0.644
60.5200,0.629
60.5600,0.671
60.6000,0.612
60.6400,0.623
60.6800,0.568
60.7200,0.647
60.7600,0.603
60.8000,0.642
60.8400,0.641
60.8800,0.644
60.9200,0.654
60.9600,0.622
61.0000,0.565
61.0400,0.589
61.0800,0.610
61.1200,0.608
61.1600,0.604
61.2000,0.599
61.2400,0.614
61.2800,0.600
61.3200,0.637
61.3600,0.578
61.4000,0.585
61.4400,0.662
61.4800,0.615
61.5200,0.635
61.5600,0.617
61.6000,0.656
61.6400,0.697
61.6800,0.686
61.7200,0.747
61.7600,0.664
61.8000,0.648
61.8400,0.581
61.8800,0.631
61.9200,0.609
61.9600,0.617
62.0000,0.658
62.0400,0.625
62.0800,0.636
62.1200,0.602
62.1600,0.621
62.2000,0.636
62.2400,0.656
62.2800,0.605
62.3200,0.630
62.3600,0.619
62.4000,0.660
62.4400,0.589
62.4800,0.642
62.5200,0.626
62.5600,0.614
62.6000,0.630
62.6400,0.666
62.6800,0.617
62.7200,0.632
62.7600,0.570
62.8000,0.623
62.8400,0.683
62.8800,0.673
62.9200,0.620
62.9600,0.600
63.0000,0.635
63.0400,0.615
63.0800,0.627
63.1200,0.632
63.1600,0.674
63.2000,0.653
63.2400,0.638
63.2800,0.604
63.3200,0.624
63.3600,0.624
63.4000,0.654
63.4400,0.615
63.4800,0.701
63.5200,0.607
63.5600,0.667
63.6000,0.665
63.6400,0.665
63.6800,0.674
63.7200,0.635
63.7600,0.585
63.8000,0.623
63.8400,0.650
63.8800,0.604
63.9200,0.632
63.9600,0.650
64.0000,0.681
64.0400,0.640
64.0800,0.658
64.1200,0.630
64.1600,0.685
64.2000,0.692
64.2400,0.711
64.2800,0.734
64.3200,0.698
64.3600,0.738
64.4000,0.673
64.4400,0.764
64.4800,0.760
64.5200,0.720
64.5600,0.785
64.6000,0.793
64.6400,0.815
64.6800,0.780
64.7200,0.777
64.7600,0.845
64.8000,0.759
64.8400,0.876
64.8800,0.893
64.9200,0.952
64.9600,1.018
65.0000,0.988
65.0400,1.087
65.0800,1.140
65.1200,1.145
65.1600,1.207
65.2000,1.346
65.2400,1.412
65.2800,1.494
65.3200,1.453
65.3600,1.561
65.4000,1.634
65.4400,1.725
65.4800,1.646
65.5200,1.646
65.5600,1.623
65.6000,1.608
65.6400,1.655
65.6800,1.669
65.7200,1.556
65.7600,1.532
65.8000,1.550
65.8400,1.529
65.8800,1.445
65.9200,1.422
65.9600,1.362
66.0000,1.313
66.0400,1.326
66.0800,1.222
66.1200,1.107
66.1600,1.168
66.2000,1.150
66.2400,1.124
66.2800,1.044
66.3200,1.044
66.3600,1.018
66.4000,0.987
66.4400,0.994
66.4800,1.067
66.5200,0.973
66.5600,1.031
66.6000,0.954
66.6400,0.953
66.6800,0.987
66.7200,0.999
66.7600,0.959
66.8000,1.011
66.8400,0.993
66.8800,1.026
66.9200,0.968
66.9600,1.054
67.0000,1.002
67.0400,1.102
67.0800,0.995
67.1200,0.997
67.1600,1.039
67.2000,1.056
67.2400,1.040
67.2800,1.105
67.3200,1.159
67.3600,1.062
67.4000,1.097
67.4400,1.116
67.4800,1.180
67.5200,1.250
67.5600,1.237
67.6000,1.193
67.6400,1.264
67.6800,1.236
67.7200,1.292
67.7600,1.274
67.8000,1.351
67.8400,1.396
67.8800,1.437
67.9200,1.423
67.9600,1.426
68.0000,1.476
68.0400,1.522
68.0800,1.639
68.1200,1.556
68.1600,1.623
68.2000,1.661
68.2400,1.645
68.2800,1.807
68.3200,1.795
68.3600,1.956
68.4000,1.857
68.4400,1.985
68.4800,2.084
68.5200,2.150
68.5600,2.319
68.6000,2.415
68.6400,2.590
68.6800,2.831
68.7200,3.167
68.7600,4.003
68.8000,5.074
68.8400,5.978
68.8800,6.512
68.9200,6.623
68.9600,7.288
69.0000,9.565
69.0400,15.102
69.0800,29.064
69.1200,107.734
69.1600,359.039
69.2000,383.977
69.2400,139.703
69.2800,46.611
69.3200,75.344
69.3600,193.522
69.4000,191.702
69.4400,69.099
69.4800,20.194
69.5200,11.005
69.5600,7.850
69.6000,6.087
69.6400,5.089
69.6800,4.397
69.7200,3.872
69.7600,3.529
69.8000,3.188
69.8400,3.012
69.8800,2.757
69.9200,2.606
69.9600,2.401
70.0000,2.352
70.0400,2.227
70.0800,2.229
70.1200,2.122
70.1600,2.013
70.2000,1.900
70.2400,1.914
70.2800,1.815
70.3200,1.812
70.3600,1.723
70.4000,1.702
70.4400,1.527
70.4800,1.536
70.5200,1.591
70.5600,1.531
70.6000,1.398
70.6400,1.412
70.6800,1.363
70.7200,1.320
70.7600,1.307
70.8000,1.234
70.8400,1.275
70.8800,1.197
70.9200,1.271
70.9600,1.194
71.0000,1.160
71.0400,1.148
71.0800,1.114
71.1200,1.095
71.1600,1.038
71.2000,1.088
71.2400,0.999
71.2800,1.003
71.3200,0.976
71.3600,0.960
71.4000,0.981
71.4400,0.972
71.4800,0.905
71.5200,0.966
71.5600,0.916
71.6000,0.909
71.6400,0.851
71.6800,0.876
71.7200,0.864
71.7600,0.892
71.8000,0.841
71.8400,0.819
71.8800,0.832
71.9200,0.798
71.9600,0.752
72.0000,0.824
72.0400,0.748
72.0800,0.725
72.1200,0.731
72.1600,0.731
72.2000,0.756
72.2400,0.737
72.2800,0.752
72.3200,0.706
72.3600,0.683
72.4000,0.777
72.4400,0.669
72.4800,0.726
72.5200,0.665
72.5600,0.745
72.6000,0.760
72.6400,0.760
72.6800,0.755
72.7200,0.757
72.7600,0.736
72.8000,0.740
72.8400,0.761
72.8800,0.788
72.9200,0.786
72.9600,0.764
73.0000,0.783
73.0400,0.742
73.0800,0.731
73.1200,0.726
73.1600,0.746
73.2000,0.775
73.2400,0.689
73.2800,0.752
73.3200,0.778
73.3600,0.736
73.4000,0.687
73.4400,0.710
73.4800,0.697
73.5200,0.709
73.5600,0.672
73.6000,0.671
73.6400,0.683
73.6800,0.658
73.7200,0.660
73.7600,0.639
73.8000,0.582
73.8400,0.572
73.8800,0.574
73.9200,0.622
73.9600,0.628
74.0000,0.607
74.0400,0.542
74.0800,0.573
74.1200,0.606
74.1600,0.553
74.2000,0.572
74.2400,0.581
74.2800,0.596
74.3200,0.545
74.3600,0.545
74.4000,0.531
74.4400,0.541
74.4800,0.478
74.5200,0.495
74.5600,0.506
74.6000,0.521
74.6400,0.523
74.6800,0.541
74.7200,0.563
74.7600,0.475
74.8000,0.512
74.8400,0.491
74.8800,0.495
74.9200,0.523
74.9600,0.480
75.0000,0.484
75.0400,0.460
75.0800,0.498
75.1200,0.538
75.1600,0.452
75.2000,0.459
75.2400,0.465
75.2800,0.458
75.3200,0.454
75.3600,0.446
75.4000,0.443
75.4400,0.504
75.4800,0.497
75.5200,0.439
75.5600,0.476
75.6000,0.397
75.6400,0.473
75.6800,0.455
75.7200,0.431
75.7600,0.429
75.8000,0.469
75.8400,0.450
75.8800,0.491
75.9200,0.483
75.9600,0.413
76.0000,0.470
76.0400,0.434
76.0800,0.444
76.1200,0.466
76.1600,0.438
76.2000,0.442
76.2400,0.464
76.2800,0.443
76.3200,0.478
76.3600,0.426
76.4000,0.465
76.4400,0.452
76.4800,0.486
76.5200,0.449
76.5600,0.462
76.6000,0.426
76.6400,0.463
76.6800,0.428
76.7200,0.455
76.7600,0.429
76.8000,0.447
76.8400,0.412
76.8800,0.440
76.9200,0.454
76.9600,0.461
77.0000,0.496
77.0400,0.477
77.0800,0.438
77.1200,0.422
77.1600,0.457
77.2000,0.489
77.2400,0.507
77.2800,0.489
77.3200,0.471
77.3600,0.484
77.4000,0.475
77.4400,0.449
77.4800,0.545
77.5200,0.550
77.5600,0.515
77.6000,0.477
77.6400,0.521
77.6800,0.493
77.7200,0.528
77.7600,0.574
77.8000,0.562
77.8400,0.569
77.8800,0.564
77.9200,0.576
77.9600,0.607
78.0000,0.598
78.0400,0.605
78.0800,0.690
78.1200,0.683
78.1600,0.732
78.2000,0.725
78.2400,0.732
78.2800,0.755
78.3200,0.726
78.3600,0.769
78.4000,0.829
78.4400,0.858
78.4800,0.870
78.5200,0.902
78.5600,0.843
78.6000,0.940
78.6400,0.946
78.6800,0.952
78.7200,1.007
78.7600,1.052
78.8000,1.092
78.8400,1.100
78.8800,1.131
78.9200,1.133
78.9600,1.097
79.0000,1.138
79.0400,1.135
79.0800,1.092
79.1200,1.083
79.1600,1.001
79.2000,0.997
79.2400,0.928
79.2800,0.923
79.3200,0.870
79.3600,0.890
79.4000,0.817
79.4400,0.727
79.4800,0.730
79.5200,0.677
79.5600,0.637
79.6000,0.632
79.6400,0.608
79.6800,0.593
79.7200,0.562
79.7600,0.544
79.8000,0.522
79.8400,0.511
79.8800,0.500
79.9200,0.511
79.9600,0.490
80.0000,0.466
