theta,intensity
5.0000,7.229
5.0400,7.281
5.0800,7.330
5.1200,7.166
5.1600,7.236
5.2000,7.170
5.2400,7.003
5.2800,7.123
5.3200,7.055
5.3600,7.026
5.4000,6.860
5.4400,6.830
5.4800,6.781
5.5200,6.709
5.5600,6.775
5.6000,6.674
5.6400,6.546
5.6800,6.469
5.7200,6.463
5.7600,6.435
5.8000,6.270
5.8400,6.216
5.8800,6.155
5.9200,5.959
5.9600,6.012
6.0000,5.769
6.0400,5.767
6.0800,5.606
6.1200,5.516
6.1600,5.548
6.2000,5.311
6.2400,5.232
6.2800,5.249
6.3200,5.164
6.3600,4.954
6.4000,4.924
6.4400,4.791
6.4800,4.732
6.5200,4.764
6.5600,4.597
6.6000,4.587
6.6400,4.505
6.6800,4.435
6.7200,4.311
6.7600,4.310
6.8000,4.474
6.8400,4.289
6.8800,4.350
6.9200,4.258
6.9600,4.200
7.0000,4.228
7.0400,4.152
7.0800,4.239
7.1200,4.224
7.1600,4.143
7.2000,4.221
7.2400,4.161
7.2800,4.205
7.3200,4.135
7.3600,4.046
7.4000,4.042
7.4400,4.012
7.4800,3.972
7.5200,4.094
7.5600,4.194
7.6000,4.082
7.6400,4.052
7.6800,4.055
7.7200,4.093
7.7600,4.021
7.8000,4.123
7.8400,4.000
7.8800,4.111
7.9200,4.038
7.9600,4.109
8.0000,4.070
8.0400,3.842
8.0800,3.992
8.1200,3.970
8.1600,3.995
8.2000,3.985
8.2400,3.963
8.2800,4.082
8.3200,3.852
8.3600,4.002
8.4000,3.963
8.4400,3.989
8.4800,3.922
8.5200,3.969
8.5600,3.915
8.6000,3.983
8.6400,3.844
8.6800,3.892
8.7200,3.957
8.7600,3.851
8.8000,3.885
8.8400,3.849
8.8800,3.819
8.9200,3.850
8.9600,3.840
9.0000,3.809
9.0400,3.941
9.0800,3.860
9.1200,3.900
9.1600,3.700
9.2000,3.847
9.2400,3.884
9.2800,3.797
9.3200,3.799
9.3600,3.859
9.4000,3.867
9.4400,3.937
9.4800,3.877
9.5200,3.805
9.5600,3.846
9.6000,3.868
9.6400,3.762
9.6800,3.834
9.7200,3.853
9.7600,3.699
9.8000,3.691
9.8400,3.723
9.8800,3.875
9.9200,3.847
9.9600,3.750
10.0000,3.730
10.0400,3.634
10.0800,3.792
10.1200,3.736
10.1600,3.668
10.2000,3.769
10.2400,3.772
10.2800,3.732
10.3200,3.741
10.3600,3.786
10.4000,3.722
10.4400,3.641
10.4800,3.711
10.5200,3.628
10.5600,3.743
10.6000,3.705
10.6400,3.772
10.6800,3.592
10.7200,3.635
10.7600,3.668
10.8000,3.616
10.8400,3.676
10.8800,3.576
10.9200,3.520
10.9600,3.613
11.0000,3.667
11.0400,3.608
11.0800,3.610
11.1200,3.669
11.1600,3.649
11.2000,3.626
11.2400,3.614
11.2800,3.615
11.3200,3.507
11.3600,3.541
11.4000,3.692
11.4400,3.638
11.4800,3.701
11.5200,3.577
11.5600,3.629
11.6000,3.588
11.6400,3.629
11.6800,3.550
11.7200,3.646
11.7600,3.501
11.8000,3.502
11.8400,3.588
11.8800,3.616
11.9200,3.718
11.9600,3.496
12.0000,3.550
12.0400,3.582
12.0800,3.396
12.1200,3.531
12.1600,3.504
12.2000,3.519
12.2400,3.537
12.2800,3.570
12.3200,3.407
12.3600,3.458
12.4000,3.454
12.4400,3.552
12.4800,3.571
12.5200,3.522
12.5600,3.422
12.6000,3.473
12.6400,3.442
12.6800,3.512
12.7200,3.405
12.7600,3.474
12.8000,3.510
12.8400,3.500
12.8800,3.451
12.9200,3.439
12.9600,3.397
13.0000,3.461
13.0400,3.536
13.0800,3.405
13.1200,3.444
13.1600,3.423
13.2000,3.347
13.2400,3.339
13.2800,3.373
13.3200,3.427
13.3600,3.452
13.4000,3.451
13.4400,3.423
13.4800,3.488
13.5200,3.479
13.5600,3.330
13.6000,3.319
13.6400,3.337
13.6800,3.315
13.7200,3.293
13.7600,3.285
13.8000,3.401
13.8400,3.334
13.8800,3.407
13.9200,3.376
13.9600,3.280
14.0000,3.357
14.0400,3.348
14.0800,3.276
14.1200,3.322
14.1600,3.307
14.2000,3.340
14.2400,3.193
14.2800,3.267
14.3200,3.314
14.3600,3.414
14.4000,3.288
14.4400,3.253
14.4800,3.329
14.5200,3.271
14.5600,3.207
14.6000,3.256
14.6400,3.284
14.6800,3.206
14.7200,3.314
14.7600,3.203
14.8000,3.199
14.8400,3.249
14.8800,3.253
14.9200,3.189
14.9600,3.187
15.0000,3.122
15.0400,3.251
15.0800,3.221
15.1200,3.231
15.1600,3.241
15.2000,3.141
15.2400,3.247
15.2800,3.174
15.3200,3.263
15.3600,3.155
15.4000,3.149
15.4400,3.214
15.4800,3.237
15.5200,3.136
15.5600,3.282
15.6000,3.169
15.6400,3.159
15.6800,3.144
15.7200,3.225
15.7600,3.148
15.8000,3.216
15.8400,3.246
15.8800,3.125
15.9200,3.136
15.9600,3.261
16.0000,3.124
16.0400,3.190
16.0800,3.137
16.1200,3.192
16.1600,3.107
16.2000,3.125
16.2400,3.164
16.2800,3.062
16.3200,3.164
16.3600,3.084
16.4000,3.051
16.4400,3.182
16.4800,3.138
16.5200,3.071
16.5600,3.143
16.6000,3.085
16.6400,3.058
16.6800,3.069
16.7200,2.999
16.7600,3.061
16.8000,3.107
16.8400,3.073
16.8800,3.090
16.9200,2.981
16.9600,3.013
17.0000,2.993
17.0400,3.063
17.0800,3.008
17.1200,3.099
17.1600,3.083
17.2000,3.094
17.2400,3.033
17.2800,3.048
17.3200,3.084
17.3600,2.943
17.4000,3.022
17.4400,3.081
17.4800,3.065
17.5200,2.989
17.5600,2.977
17.6000,2.953
17.6400,2.938
17.6800,2.896
17.7200,2.970
17.7600,2.905
17.8000,2.874
17.8400,2.938
17.8800,2.939
17.9200,2.857
17.9600,2.919
18.0000,2.920
18.0400,2.972
18.0800,2.966
18.1200,2.931
18.1600,3.018
18.2000,2.847
18.2400,2.915
18.2800,2.953
18.3200,2.864
18.3600,2.828
18.4000,2.920
18.4400,2.895
18.4800,2.900
18.5200,2.944
18.5600,2.950
18.6000,2.886
18.6400,2.904
18.6800,2.839
18.7200,2.903
18.7600,2.897
18.8000,2.765
18.8400,2.838
18.8800,2.765
18.9200,2.833
18.9600,2.817
19.0000,2.849
19.0400,2.797
19.0800,2.792
19.1200,2.822
19.1600,2.890
19.2000,2.848
19.2400,2.799
19.2800,2.868
19.3200,2.753
19.3600,2.747
19.4000,2.850
19.4400,2.862
19.4800,2.828
19.5200,2.842
19.5600,2.765
19.6000,2.832
19.6400,2.767
19.6800,2.754
19.7200,2.759
19.7600,2.771
19.8000,2.842
19.8400,2.727
19.8800,2.785
19.9200,2.719
19.9600,2.737
20.0000,2.749
20.0400,2.809
20.0800,2.771
20.1200,2.718
20.1600,2.689
20.2000,2.765
20.2400,2.660
20.2800,2.684
20.3200,2.748
20.3600,2.691
20.4000,2.726
20.4400,2.692
20.4800,2.679
20.5200,2.665
20.5600,2.685
20.6000,2.580
20.6400,2.598
20.6800,2.713
20.7200,2.654
20.7600,2.585
20.8000,2.673
20.8400,2.602
20.8800,2.707
20.9200,2.625
20.9600,2.719
21.0000,2.673
21.0400,2.616
21.0800,2.632
21.1200,2.727
21.1600,2.690
21.2000,2.653
21.2400,2.676
21.2800,2.605
21.3200,2.614
21.3600,2.635
21.4000,2.660
21.4400,2.642
21.4800,2.582
21.5200,2.627
21.5600,2.587
21.6000,2.611
21.6400,2.672
21.6800,2.646
21.7200,2.597
21.7600,2.632
21.8000,2.625
21.8400,2.605
21.8800,2.521
21.9200,2.495
21.9600,2.541
22.0000,2.602
22.0400,2.559
22.0800,2.560
22.1200,2.525
22.1600,2.612
22.2000,2.527
22.2400,2.457
22.2800,2.484
22.3200,2.492
22.3600,2.586
22.4000,2.506
22.4400,2.476
22.4800,2.517
22.5200,2.440
22.5600,2.570
22.6000,2.442
22.6400,2.505
22.6800,2.456
22.7200,2.558
22.7600,2.523
22.8000,2.494
22.8400,2.457
22.8800,2.456
22.9200,2.427
22.9600,2.347
23.0000,2.464
23.0400,2.413
23.0800,2.408
23.1200,2.420
23.1600,2.453
23.2000,2.472
23.2400,2.407
23.2800,2.493
23.3200,2.336
23.3600,2.382
23.4000,2.457
23.4400,2.394
23.4800,2.381
23.5200,2.431
23.5600,2.293
23.6000,2.397
23.6400,2.423
23.6800,2.328
23.7200,2.421
23.7600,2.364
23.8000,2.367
23.8400,2.376
23.8800,2.346
23.9200,2.353
23.9600,2.443
24.0000,2.460
24.0400,2.387
24.0800,2.361
24.1200,2.368
24.1600,2.263
24.2000,2.389
24.2400,2.435
24.2800,2.376
24.3200,2.294
24.3600,2.288
24.4000,2.386
24.4400,2.253
24.4800,2.336
24.5200,2.289
24.5600,2.315
24.6000,2.295
24.6400,2.305
24.6800,2.295
24.7200,2.251
24.7600,2.340
24.8000,2.306
24.8400,2.297
24.8800,2.292
24.9200,2.281
24.9600,2.295
25.0000,2.354
25.0400,2.309
25.0800,2.357
25.1200,2.337
25.1600,2.321
25.2000,2.243
25.2400,2.293
25.2800,2.269
25.3200,2.234
25.3600,2.148
25.4000,2.279
25.4400,2.375
25.4800,2.241
25.5200,2.283
25.5600,2.263
25.6000,2.240
25.6400,2.210
25.6800,2.205
25.7200,2.320
25.7600,2.244
25.8000,2.264
25.8400,2.199
25.8800,2.193
25.9200,2.236
25.9600,2.244
26.0000,2.226
26.0400,2.182
26.0800,2.211
26.1200,2.199
26.1600,2.187
26.2000,2.184
26.2400,2.261
26.2800,2.179
26.3200,2.131
26.3600,2.175
26.4000,2.082
26.4400,2.161
26.4800,2.104
26.5200,2.161
26.5600,2.181
26.6000,2.122
26.6400,2.092
26.6800,2.069
26.7200,2.121
26.7600,2.121
26.8000,2.040
26.8400,2.142
26.8800,2.066
26.9200,2.028
26.9600,2.145
27.0000,2.075
27.0400,2.101
27.0800,2.085
27.1200,2.048
27.1600,2.037
27.2000,2.028
27.2400,2.154
27.2800,2.074
27.3200,2.119
27.3600,2.099
27.4000,2.038
27.4400,1.991
27.4800,2.051
27.5200,2.066
27.5600,2.091
27.6000,1.957
27.6400,2.064
27.6800,2.014
27.7200,2.000
27.7600,2.032
27.8000,2.050
27.8400,2.112
27.8800,2.001
27.9200,2.075
27.9600,1.999
28.0000,2.050
28.0400,1.971
28.0800,1.948
28.1200,2.017
28.1600,2.002
28.2000,1.970
28.2400,2.048
28.2800,2.004
28.3200,1.999
28.3600,1.912
28.4000,1.986
28.4400,2.069
28.4800,1.975
28.5200,1.966
28.5600,2.018
28.6000,1.966
28.6400,2.000
28.6800,1.941
28.7200,1.997
28.7600,1.962
28.8000,1.872
28.8400,2.004
28.8800,1.908
28.9200,1.975
28.9600,1.972
29.0000,1.940
29.0400,1.980
29.0800,2.025
29.1200,1.965
29.1600,1.980
29.2000,1.935
29.2400,1.907
29.2800,1.866
29.3200,1.973
29.3600,1.937
29.4000,1.914
29.4400,1.911
29.4800,1.992
29.5200,1.868
29.5600,1.836
29.6000,1.922
29.6400,1.913
29.6800,1.838
29.7200,1.864
29.7600,1.920
29.8000,1.908
29.8400,1.846
29.8800,1.889
29.9200,1.869
29.9600,1.847
30.0000,1.866
30.0400,1.840
30.0800,1.832
30.1200,1.818
30.1600,1.932
30.2000,1.874
30.2400,1.815
30.2800,1.906
30.3200,1.863
30.3600,1.898
30.4000,1.877
30.4400,1.806
30.4800,1.833
30.5200,1.846
30.5600,1.860
30.6000,1.879
30.6400,1.845
30.6800,1.888
30.7200,1.899
30.7600,1.849
30.8000,1.831
30.8400,1.905
30.8800,1.777
30.9200,1.764
30.9600,1.822
31.0000,1.850
31.0400,1.772
31.0800,1.797
31.1200,1.781
31.1600,1.849
31.2000,1.829
31.2400,1.873
31.2800,1.867
31.3200,1.797
31.3600,1.801
31.4000,1.788
31.4400,1.807
31.4800,1.851
31.5200,1.864
31.5600,1.809
31.6000,1.963
31.6400,1.861
31.6800,1.896
31.7200,1.902
31.7600,1.883
31.8000,1.870
31.8400,1.899
31.8800,1.850
31.9200,1.886
31.9600,1.882
32.0000,1.803
32.0400,1.819
32.0800,1.831
32.1200,1.802
32.1600,1.813
32.2000,1.802
32.2400,1.832
32.2800,1.804
32.3200,1.706
32.3600,1.704
32.4000,1.787
32.4400,1.763
32.4800,1.764
32.5200,1.783
32.5600,1.798
32.6000,1.744
32.6400,1.711
32.6800,1.670
32.7200,1.720
32.7600,1.759
32.8000,1.708
32.8400,1.733
32.8800,1.664
32.9200,1.737
32.9600,1.635
33.0000,1.747
33.0400,1.704
33.0800,1.713
33.1200,1.698
33.1600,1.681
33.2000,1.730
33.2400,1.822
33.2800,1.725
33.3200,1.686
33.3600,1.724
33.4000,1.727
33.4400,1.690
33.4800,1.689
33.5200,1.634
33.5600,1.636
33.6000,1.610
33.6400,1.654
33.6800,1.726
33.7200,1.661
33.7600,1.688
33.8000,1.662
33.8400,1.680
33.8800,1.682
33.9200,1.636
33.9600,1.658
34.0000,1.762
34.0400,1.725
34.0800,1.636
34.1200,1.657
34.1600,1.663
34.2000,1.673
34.2400,1.659
34.2800,1.647
34.3200,1.652
34.3600,1.671
34.4000,1.629
34.4400,1.614
34.4800,1.731
34.5200,1.668
34.5600,1.629
34.6000,1.584
34.6400,1.627
34.6800,1.683
34.7200,1.660
34.7600,1.572
34.8000,1.632
34.8400,1.630
34.8800,1.690
34.9200,1.553
34.9600,1.643
35.0000,1.616
35.0400,1.546
35.0800,1.604
35.1200,1.569
35.1600,1.634
35.2000,1.627
35.2400,1.570
35.2800,1.589
35.3200,1.608
35.3600,1.588
35.4000,1.613
35.4400,1.662
35.4800,1.629
35.5200,1.613
35.5600,1.633
35.6000,1.662
35.6400,1.701
35.6800,1.610
35.7200,1.665
35.7600,1.688
35.8000,1.666
35.8400,1.709
35.8800,1.748
35.9200,1.676
35.9600,1.628
36.0000,1.746
36.0400,1.763
36.0800,1.770
36.1200,1.824
36.1600,1.711
36.2000,1.707
36.2400,1.691
36.2800,1.683
36.3200,1.707
36.3600,1.706
36.4000,1.565
36.4400,1.743
36.4800,1.705
36.5200,1.724
36.5600,1.566
36.6000,1.656
36.6400,1.641
36.6800,1.625
36.7200,1.648
36.7600,1.654
36.8000,1.658
36.8400,1.646
36.8800,1.659
36.9200,1.711
36.9600,1.728
37.0000,1.656
37.0400,1.698
37.0800,1.702
37.1200,1.665
37.1600,1.733
37.2000,1.668
37.2400,1.703
37.2800,1.707
37.3200,1.720
37.3600,1.768
37.4000,1.801
37.4400,1.874
37.4800,1.868
37.5200,1.978
37.5600,2.004
37.6000,2.063
37.6400,2.266
37.6800,2.346
37.7200,2.502
37.7600,2.699
37.8000,2.997
37.8400,3.424
37.8800,3.945
37.9200,4.817
37.9600,6.017
38.0000,7.659
38.0400,9.648
38.0800,10.895
38.1200,11.213
38.1600,10.263
38.2000,8.733
38.2400,7.166
38.2800,5.681
38.3200,4.588
38.3600,3.902
38.4000,3.317
38.4400,2.986
38.4800,2.726
38.5200,2.579
38.5600,2.344
38.6000,2.158
38.6400,2.025
38.6800,1.972
38.7200,1.958
38.7600,1.816
38.8000,1.853
38.8400,1.739
38.8800,1.716
38.9200,1.637
38.9600,1.716
39.0000,1.624
39.0400,1.597
39.0800,1.574
39.1200,1.550
39.1600,1.552
39.2000,1.582
39.2400,1.533
39.2800,1.517
39.3200,1.488
39.3600,1.462
39.4000,1.464
39.4400,1.459
39.4800,1.433
39.5200,1.432
39.5600,1.437
39.6000,1.459
39.6400,1.355
39.6800,1.373
39.7200,1.392
39.7600,1.395
39.8000,1.369
39.8400,1.389
39.8800,1.420
39.9200,1.402
39.9600,1.365
40.0000,1.342
40.0400,1.380
40.0800,1.403
40.1200,1.383
40.1600,1.277
40.2000,1.296
40.2400,1.345
40.2800,1.370
40.3200,1.362
40.3600,1.375
40.4000,1.372
40.4400,1.317
40.4800,1.360
40.5200,1.342
40.5600,1.285
40.6000,1.340
40.6400,1.302
40.6800,1.349
40.7200,1.290
40.7600,1.337
40.8000,1.323
40.8400,1.292
40.8800,1.291
40.9200,1.337
40.9600,1.318
41.0000,1.239
41.0400,1.257
41.0800,1.270
41.1200,1.264
41.1600,1.227
41.2000,1.212
41.2400,1.255
41.2800,1.220
41.3200,1.173
41.3600,1.201
41.4000,1.208
41.4400,1.215
41.4800,1.293
41.5200,1.198
41.5600,1.221
41.6000,1.222
41.6400,1.254
41.6800,1.205
41.7200,1.205
41.7600,1.159
41.8000,1.236
41.8400,1.205
41.8800,1.185
41.9200,1.222
41.9600,1.227
42.0000,1.207
42.0400,1.203
42.0800,1.213
42.1200,1.198
42.1600,1.200
42.2000,1.139
42.2400,1.207
42.2800,1.266
42.3200,1.223
42.3600,1.219
42.4000,1.242
42.4400,1.206
42.4800,1.142
42.5200,1.210
42.5600,1.224
42.6000,1.161
42.6400,1.177
42.6800,1.201
42.7200,1.252
42.7600,1.206
42.8000,1.215
42.8400,1.200
42.8800,1.153
42.9200,1.229
42.9600,1.270
43.0000,1.251
43.0400,1.190
43.0800,1.195
43.1200,1.182
43.1600,1.215
43.2000,1.190
43.2400,1.192
43.2800,1.256
43.3200,1.227
43.3600,1.272
43.4000,1.264
43.4400,1.272
43.4800,1.278
43.5200,1.243
43.5600,1.335
43.6000,1.384
43.6400,1.385
43.6800,1.424
43.7200,1.410
43.7600,1.556
43.8000,1.591
43.8400,1.535
43.8800,1.592
43.9200,1.580
43.9600,1.790
44.0000,1.856
44.0400,1.954
44.0800,2.067
44.1200,2.226
44.1600,2.454
44.2000,2.641
44.2400,2.793
44.2800,2.944
44.3200,2.885
44.3600,2.881
44.4000,2.626
44.4400,2.462
44.4800,2.282
44.5200,2.051
44.5600,1.934
44.6000,1.840
44.6400,1.677
44.6800,1.583
44.7200,1.562
44.7600,1.454
44.8000,1.437
44.8400,1.361
44.8800,1.227
44.9200,1.265
44.9600,1.252
45.0000,1.190
45.0400,1.214
45.0800,1.147
45.1200,1.145
45.1600,1.141
45.2000,1.106
45.2400,1.075
45.2800,1.073
45.3200,1.035
45.3600,1.131
45.4000,1.120
45.4400,1.044
45.4800,1.042
45.5200,1.039
45.5600,1.070
45.6000,1.072
45.6400,1.050
45.6800,0.997
45.7200,1.009
45.7600,1.015
45.8000,1.006
45.8400,0.992
45.8800,1.008
45.9200,1.009
45.9600,1.009
46.0000,0.956
46.0400,0.957
46.0800,0.961
46.1200,0.976
46.1600,0.987
46.2000,0.982
46.2400,0.949
46.2800,0.972
46.3200,0.977
46.3600,0.999
46.4000,0.927
46.4400,0.911
46.4800,0.972
46.5200,1.011
46.5600,0.981
46.6000,0.958
46.6400,0.934
46.6800,0.935
46.7200,0.914
46.7600,0.940
46.8000,0.941
46.8400,0.925
46.8800,0.891
46.9200,0.945
46.9600,0.853
47.0000,0.894
47.0400,0.890
47.0800,0.985
47.1200,0.871
47.1600,0.901
47.2000,0.903
47.2400,0.951
47.2800,0.909
47.3200,0.915
47.3600,0.871
47.4000,0.929
47.4400,0.872
47.4800,0.940
47.5200,0.966
47.5600,0.906
47.6000,0.895
47.6400,0.953
47.6800,0.871
47.7200,0.829
47.7600,0.896
47.8000,0.879
47.8400,0.875
47.8800,0.905
47.9200,0.897
47.9600,0.889
48.0000,0.902
48.0400,0.889
48.0800,0.885
48.1200,0.907
48.1600,0.862
48.2000,0.881
48.2400,0.903
48.2800,0.870
48.3200,0.900
48.3600,0.863
48.4000,0.887
48.4400,0.859
48.4800,0.803
48.5200,0.857
48.5600,0.891
48.6000,0.865
48.6400,0.863
48.6800,0.892
48.7200,0.870
48.7600,0.856
48.8000,0.800
48.8400,0.891
48.8800,0.784
48.9200,0.831
48.9600,0.810
49.0000,0.818
49.0400,0.854
49.0800,0.824
49.1200,0.797
49.1600,0.806
49.2000,0.843
49.2400,0.852
49.2800,0.818
49.3200,0.796
49.3600,0.832
49.4000,0.848
49.4400,0.817
49.4800,0.825
49.5200,0.824
49.5600,0.801
49.6000,0.761
49.6400,0.821
49.6800,0.837
49.7200,0.763
49.7600,0.770
49.8000,0.820
49.8400,0.777
49.8800,0.768
49.9200,0.798
49.9600,0.833
50.0000,0.834
50.0400,0.797
50.0800,0.763
50.1200,0.773
50.1600,0.763
50.2000,0.828
50.2400,0.793
50.2800,0.765
50.3200,0.831
50.3600,0.776
50.4000,0.801
50.4400,0.790
50.4800,0.771
50.5200,0.795
50.5600,0.790
50.6000,0.756
50.6400,0.788
50.6800,0.767
50.7200,0.777
50.7600,0.791
50.8000,0.755
50.8400,0.781
50.8800,0.783
50.9200,0.805
50.9600,0.775
51.0000,0.762
51.0400,0.795
51.0800,0.777
51.1200,0.805
51.1600,0.716
51.2000,0.799
51.2400,0.730
51.2800,0.802
51.3200,0.758
51.3600,0.823
51.4000,0.761
51.4400,0.756
51.4800,0.783
51.5200,0.774
51.5600,0.722
51.6000,0.752
51.6400,0.739
51.6800,0.777
51.7200,0.825
51.7600,0.728
51.8000,0.708
51.8400,0.727
51.8800,0.790
51.9200,0.754
51.9600,0.762
52.0000,0.742
52.0400,0.746
52.0800,0.769
52.1200,0.759
52.1600,0.758
52.2000,0.764
52.2400,0.728
52.2800,0.716
52.3200,0.688
52.3600,0.741
52.4000,0.750
52.4400,0.725
52.4800,0.728
52.5200,0.693
52.5600,0.754
52.6000,0.697
52.6400,0.742
52.6800,0.724
52.7200,0.721
52.7600,0.701
52.8000,0.731
52.8400,0.731
52.8800,0.745
52.9200,0.731
52.9600,0.693
53.0000,0.681
53.0400,0.715
53.0800,0.726
53.1200,0.735
53.1600,0.672
53.2000,0.691
53.2400,0.755
53.2800,0.693
53.3200,0.722
53.3600,0.770
53.4000,0.676
53.4400,0.694
53.4800,0.644
53.5200,0.683
53.5600,0.713
53.6000,0.710
53.6400,0.702
53.6800,0.665
53.7200,0.671
53.7600,0.696
53.8000,0.685
53.8400,0.702
53.8800,0.703
53.9200,0.692
53.9600,0.695
54.0000,0.706
54.0400,0.689
54.0800,0.649
54.1200,0.657
54.1600,0.714
54.2000,0.713
54.2400,0.745
54.2800,0.718
54.3200,0.670
54.3600,0.694
54.4000,0.687
54.4400,0.655
54.4800,0.687
54.5200,0.672
54.5600,0.678
54.6000,0.662
54.6400,0.711
54.6800,0.733
54.7200,0.737
54.7600,0.661
54.8000,0.722
54.8400,0.664
54.8800,0.646
54.9200,0.678
54.9600,0.692
55.0000,0.689
55.0400,0.663
55.0800,0.666
55.1200,0.720
55.1600,0.665
55.2000,0.673
55.2400,0.681
55.2800,0.682
55.3200,0.649
55.3600,0.670
55.4000,0.718
55.4400,0.671
55.4800,0.640
55.5200,0.658
55.5600,0.701
55.6000,0.664
55.6400,0.698
55.6800,0.644
55.7200,0.664
55.7600,0.667
55.8000,0.670
55.8400,0.670
55.8800,0.670
55.9200,0.654
55.9600,0.611
56.0000,0.661
56.0400,0.683
56.0800,0.670
56.1200,0.645
56.1600,0.679
56.2000,0.676
56.2400,0.663
56.2800,0.666
56.3200,0.698
56.3600,0.708
56.4000,0.676
56.4400,0.739
56.4800,0.675
56.5200,0.642
56.5600,0.715
56.6000,0.695
56.6400,0.676
56.6800,0.684
56.7200,0.688
56.7600,0.637
56.8000,0.751
56.8400,0.672
56.8800,0.671
56.9200,0.698
56.9600,0.680
57.0000,0.685
57.0400,0.687
57.0800,0.663
57.1200,0.608
57.1600,0.640
57.2000,0.659
57.2400,0.675
57.2800,0.611
57.3200,0.650
57.3600,0.634
57.4000,0.646
57.4400,0.632
57.4800,0.663
57.5200,0.646
57.5600,0.631
57.6000,0.652
57.6400,0.646
57.6800,0.630
57.7200,0.641
57.7600,0.611
57.8000,0.637
57.8400,0.592
57.8800,0.637
57.9200,0.609
57.9600,0.607
58.0000,0.651
58.0400,0.625
58.0800,0.621
58.1200,0.573
58.1600,0.615
58.2000,0.605
58.2400,0.630
58.2800,0.622
58.3200,0.654
58.3600,0.559
58.4000,0.579
58.4400,0.608
58.4800,0.607
58.5200,0.577
58.5600,0.590
58.6000,0.581
58.6400,0.607
58.6800,0.618
58.7200,0.589
58.7600,0.615
58.8000,0.585
58.8400,0.596
58.8800,0.562
58.9200,0.618
58.9600,0.626
59.0000,0.601
59.0400,0.657
59.0800,0.602
59.1200,0.590
59.1600,0.604
59.2000,0.631
59.2400,0.573
59.2800,0.569
59.3200,0.594
59.3600,0.608
59.4000,0.629
59.4400,0.577
59.4800,0.557
59.5200,0.588
59.5600,0.589
59.6000,0.623
59.6400,0.639
59.6800,0.605
59.7200,0.598
59.7600,0.615
59.8000,0.599
59.8400,0.584
59.8800,0.603
59.9200,0.567
59.9600,0.599
60.0000,0.563
60.0400,0.555
60.0800,0.576
60.1200,0.577
60.1600,0.591
60.2000,0.616
60.2400,0.581
60.2800,0.574
60.3200,0.577
60.3600,0.596
60.4000,0.593
60.4400,0.598
60.4800,0.559
60.5200,0.583
60.5600,0.587
60.6000,0.604
60.6400,0.583
60.6800,0.579
60.7200,0.577
60.7600,0.574
60.8000,0.559
60.8400,0.549
60.8800,0.598
60.9200,0.578
60.9600,0.575
61.0000,0.589
61.0400,0.548
61.0800,0.571
61.1200,0.566
61.1600,0.545
61.2000,0.563
61.2400,0.578
61.2800,0.537
61.3200,0.554
61.3600,0.586
61.4000,0.550
61.4400,0.571
61.4800,0.572
61.5200,0.569
61.5600,0.596
61.6000,0.637
61.6400,0.621
61.6800,0.645
61.7200,0.621
61.7600,0.565
61.8000,0.561
61.8400,0.608
61.8800,0.551
61.9200,0.571
61.9600,0.564
62.0000,0.536
62.0400,0.535
62.0800,0.572
62.1200,0.576
62.1600,0.595
62.2000,0.573
62.2400,0.603
62.2800,0.553
62.3200,0.523
62.3600,0.597
62.4000,0.567
62.4400,0.598
62.4800,0.594
62.5200,0.522
62.5600,0.586
62.6000,0.606
62.6400,0.592
62.6800,0.593
62.7200,0.594
62.7600,0.615
62.8000,0.615
62.8400,0.593
62.8800,0.586
62.9200,0.579
62.9600,0.575
63.0000,0.557
63.0400,0.587
63.0800,0.616
63.1200,0.593
63.1600,0.605
63.2000,0.648
63.2400,0.565
63.2800,0.575
63.3200,0.628
63.3600,0.605
63.4000,0.624
63.4400,0.638
63.4800,0.622
63.5200,0.654
63.5600,0.614
63.6000,0.641
63.6400,0.667
63.6800,0.620
63.7200,0.633
63.7600,0.653
63.8000,0.641
63.8400,0.662
63.8800,0.726
63.9200,0.697
63.9600,0.728
64.0000,0.735
64.0400,0.782
64.0800,0.785
64.1200,0.866
64.1600,0.874
64.2000,0.891
64.2400,1.046
64.2800,1.152
64.3200,1.327
64.3600,1.426
64.4000,1.573
64.4400,1.579
64.4800,1.598
64.5200,1.588
64.5600,1.483
64.6000,1.434
64.6400,1.367
64.6800,1.213
64.7200,1.093
64.7600,1.035
64.8000,0.994
64.8400,0.938
64.8800,0.855
64.9200,0.852
64.9600,0.829
65.0000,0.795
65.0400,0.756
65.0800,0.766
65.1200,0.780
65.1600,0.742
65.2000,0.730
65.2400,0.719
65.2800,0.689
65.3200,0.708
65.3600,0.697
65.4000,0.720
65.4400,0.732
65.4800,0.705
65.5200,0.704
65.5600,0.711
65.6000,0.748
65.6400,0.688
65.6800,0.723
65.7200,0.676
65.7600,0.704
65.8000,0.696
65.8400,0.754
65.8800,0.756
65.9200,0.745
65.9600,0.731
66.0000,0.784
66.0400,0.728
66.0800,0.764
66.1200,0.759
66.1600,0.816
66.2000,0.770
66.2400,0.840
66.2800,0.790
66.3200,0.818
66.3600,0.815
66.4000,0.819
66.4400,0.811
66.4800,0.865
66.5200,0.853
66.5600,0.844
66.6000,0.879
66.6400,0.849
66.6800,0.877
66.7200,0.924
66.7600,0.920
66.8000,0.986
66.8400,0.947
66.8800,0.986
66.9200,0.955
66.9600,1.032
67.0000,1.039
67.0400,1.022
67.0800,1.009
67.1200,1.060
67.1600,1.074
67.2000,1.086
67.2400,1.030
67.2800,1.175
67.3200,1.108
67.3600,1.156
67.4000,1.186
67.4400,1.231
67.4800,1.165
67.5200,1.310
67.5600,1.281
67.6000,1.342
67.6400,1.283
67.6800,1.420
67.7200,1.382
67.7600,1.481
67.8000,1.475
67.8400,1.453
67.8800,1.507
67.9200,1.561
67.9600,1.616
68.0000,1.659
68.0400,1.759
68.0800,1.687
68.1200,1.715
68.1600,1.810
68.2000,1.877
68.2400,1.955
68.2800,2.073
68.3200,2.013
68.3600,2.187
68.4000,2.227
68.4400,2.339
68.4800,2.460
68.5200,2.519
68.5600,2.744
68.6000,3.042
68.6400,3.282
68.6800,3.957
68.7200,5.016
68.7600,6.467
68.8000,7.010
68.8400,7.119
68.8800,7.295
68.9200,8.704
68.9600,12.372
69.0000,22.082
69.0400,64.666
69.0800,301.471
69.1200,487.814
69.1600,251.811
69.2000,60.850
69.2400,55.025
69.2800,170.172
69.3200,246.359
69.3600,121.910
69.4000,30.193
69.4400,13.478
69.4800,8.933
69.5200,6.849
69.5600,5.746
69.6000,4.940
69.6400,4.288
69.6800,3.968
69.7200,3.466
69.7600,3.257
69.8000,3.164
69.8400,2.781
69.8800,2.676
69.9200,2.572
69.9600,2.391
70.0000,2.282
70.0400,2.249
70.0800,2.187
70.1200,2.106
70.1600,2.055
70.2000,2.013
70.2400,1.861
70.2800,1.843
70.3200,1.826
70.3600,1.773
70.4000,1.683
70.4400,1.601
70.4800,1.558
70.5200,1.500
70.5600,1.480
70.6000,1.459
70.6400,1.294
70.6800,1.326
70.7200,1.352
70.7600,1.350
70.8000,1.262
70.8400,1.227
70.8800,1.188
70.9200,1.166
70.9600,1.185
71.0000,1.075
71.0400,1.007
71.0800,1.070
71.1200,1.055
71.1600,1.011
71.2000,0.993
71.2400,1.053
71.2800,0.894
71.3200,0.965
71.3600,0.927
71.4000,0.911
71.4400,0.905
71.4800,0.860
71.5200,0.853
71.5600,0.867
71.6000,0.788
71.6400,0.856
71.6800,0.769
71.7200,0.807
71.7600,0.782
71.8000,0.758
71.8400,0.742
71.8800,0.693
71.9200,0.767
71.9600,0.705
72.0000,0.699
72.0400,0.734
72.0800,0.649
72.1200,0.638
72.1600,0.632
72.2000,0.648
72.2400,0.635
72.2800,0.657
72.3200,0.628
72.3600,0.619
72.4000,0.639
72.4400,0.593
72.4800,0.562
72.5200,0.611
72.5600,0.600
72.6000,0.570
72.6400,0.592
72.6800,0.514
72.7200,0.511
72.7600,0.508
72.8000,0.574
72.8400,0.536
72.8800,0.552
72.9200,0.555
72.9600,0.545
73.0000,0.545
73.0400,0.517
73.0800,0.499
73.1200,0.518
73.1600,0.507
73.2000,0.522
73.2400,0.576
73.2800,0.522
73.3200,0.500
73.3600,0.462
73.4000,0.449
73.4400,0.434
73.4800,0.497
73.5200,0.471
73.5600,0.501
73.6000,0.466
73.6400,0.481
73.6800,0.439
73.7200,0.480
73.7600,0.456
73.8000,0.442
73.8400,0.451
73.8800,0.433
73.9200,0.498
73.9600,0.424
74.0000,0.428
74.0400,0.421
74.0800,0.468
74.1200,0.415
74.1600,0.443
74.2000,0.442
74.2400,0.418
74.2800,0.437
74.3200,0.416
74.3600,0.417
74.4000,0.435
74.4400,0.394
74.4800,0.398
74.5200,0.422
74.5600,0.388
74.6000,0.382
74.6400,0.434
74.6800,0.411
74.7200,0.422
74.7600,0.398
74.8000,0.397
74.8400,0.411
74.8800,0.393
74.9200,0.383
74.9600,0.384
75.0000,0.393
75.0400,0.386
75.0800,0.381
75.1200,0.389
75.1600,0.374
75.2000,0.377
75.2400,0.380
75.2800,0.418
75.3200,0.376
75.3600,0.409
75.4000,0.373
75.4400,0.378
75.4800,0.383
75.5200,0.400
75.5600,0.380
75.6000,0.396
75.6400,0.396
75.6800,0.384
75.7200,0.354
75.7600,0.373
75.8000,0.384
75.8400,0.392
75.8800,0.432
75.9200,0.388
75.9600,0.393
76.0000,0.382
76.0400,0.384
76.0800,0.381
76.1200,0.371
76.1600,0.357
76.2000,0.390
76.2400,0.377
76.2800,0.413
76.3200,0.410
76.3600,0.426
76.4000,0.384
76.4400,0.366
76.4800,0.417
76.5200,0.411
76.5600,0.420
76.6000,0.406
76.6400,0.429
76.6800,0.453
76.7200,0.469
76.7600,0.440
76.8000,0.455
76.8400,0.513
76.8800,0.472
76.9200,0.529
76.9600,0.542
77.0000,0.577
77.0400,0.579
77.0800,0.618
77.1200,0.664
77.1600,0.709
77.2000,0.749
77.2400,0.907
77.2800,1.021
77.3200,1.099
77.3600,1.242
77.4000,1.151
77.4400,1.200
77.4800,1.214
77.5200,1.073
77.5600,1.021
77.6000,1.002
77.6400,0.888
77.6800,0.823
77.7200,0.783
77.7600,0.697
77.8000,0.612
77.8400,0.608
77.8800,0.574
77.9200,0.507
77.9600,0.460
78.0000,0.472
78.0400,0.478
78.0800,0.461
78.1200,0.409
78.1600,0.413
78.2000,0.429
78.2400,0.411
78.2800,0.407
78.3200,0.404
78.3600,0.435
78.4000,0.418
78.4400,0.396
78.4800,0.381
78.5200,0.367
78.5600,0.366
78.6000,0.342
78.6400,0.331
78.6800,0.354
78.7200,0.358
78.7600,0.347
78.8000,0.331
78.8400,0.317
78.8800,0.324
78.9200,0.345
78.9600,0.322
79.0000,0.346
79.0400,0.365
79.0800,0.337
79.1200,0.328
79.1600,0.324
79.2000,0.343
79.2400,0.308
79.2800,0.308
79.3200,0.294
79.3600,0.297
79.4000,0.304
79.4400,0.328
79.4800,0.307
79.5200,0.342
79.5600,0.343
79.6000,0.331
79.6400,0.332
79.6800,0.316
79.7200,0.314
79.7600,0.325
79.8000,0.319
79.8400,0.321
79.8800,0.284
79.9200,0.322
79.9600,0.334
80.0000,0.319
