theta,intensity
5.0000,8.510
5.0400,8.393
5.0800,8.254
5.1200,8.184
5.1600,8.119
5.2000,8.069
5.2400,8.141
5.2800,8.119
5.3200,8.179
5.3600,8.049
5.4000,7.860
5.4400,7.967
5.4800,7.817
5.5200,7.760
5.5600,7.686
5.6000,7.673
5.6400,7.629
5.6800,7.496
5.7200,7.440
5.7600,7.430
5.8000,7.247
5.8400,7.091
5.8800,7.007
5.9200,6.964
5.9600,6.782
6.0000,6.788
6.0400,6.589
6.0800,6.570
6.1200,6.500
6.1600,6.378
6.2000,6.231
6.2400,6.256
6.2800,6.342
6.3200,6.077
6.3600,6.054
6.4000,6.152
6.4400,5.956
6.4800,5.857
6.5200,5.981
6.5600,5.788
6.6000,5.790
6.6400,5.861
6.6800,5.777
6.7200,5.419
6.7600,5.506
6.8000,5.507
6.8400,5.493
6.8800,5.442
6.9200,5.378
6.9600,5.261
7.0000,5.339
7.0400,5.310
7.0800,5.071
7.1200,5.234
7.1600,5.151
7.2000,5.069
7.2400,5.217
7.2800,5.072
7.3200,5.085
7.3600,4.986
7.4000,4.915
7.4400,4.951
7.4800,4.818
7.5200,4.907
7.5600,4.905
7.6000,4.850
7.6400,4.733
7.6800,4.734
7.7200,4.668
7.7600,4.685
7.8000,4.584
7.8400,4.587
7.8800,4.545
7.9200,4.625
7.9600,4.553
8.0000,4.501
8.0400,4.468
8.0800,4.444
8.1200,4.500
8.1600,4.436
8.2000,4.342
8.2400,4.437
8.2800,4.335
8.3200,4.375
8.3600,4.456
8.4000,4.358
8.4400,4.207
8.4800,4.297
8.5200,4.189
8.5600,4.207
8.6000,4.256
8.6400,4.218
8.6800,4.317
8.7200,4.115
8.7600,4.176
8.8000,4.125
8.8400,4.063
8.8800,4.123
8.9200,4.079
8.9600,4.140
9.0000,4.076
9.0400,4.000
9.0800,3.987
9.1200,4.013
9.1600,4.051
9.2000,4.003
9.2400,3.881
9.2800,4.008
9.3200,3.960
9.3600,3.885
9.4000,3.975
9.4400,4.043
9.4800,3.936
9.5200,3.868
9.5600,3.847
9.6000,3.866
9.6400,3.889
9.6800,3.809
9.7200,3.781
9.7600,3.807
9.8000,3.820
9.8400,3.831
9.8800,3.813
9.9200,3.814
9.9600,3.883
10.0000,3.732
10.0400,3.745
10.0800,3.816
10.1200,3.700
10.1600,3.641
10.2000,3.626
10.2400,3.712
10.2800,3.707
10.3200,3.809
10.3600,3.689
10.4000,3.604
10.4400,3.680
10.4800,3.607
10.5200,3.675
10.5600,3.694
10.6000,3.733
10.6400,3.728
10.6800,3.737
10.7200,3.682
10.7600,3.692
10.8000,3.693
10.8400,3.704
10.8800,3.567
10.9200,3.507
10.9600,3.516
11.0000,3.529
11.0400,3.580
11.0800,3.566
11.1200,3.604
11.1600,3.642
11.2000,3.491
11.2400,3.597
11.2800,3.590
11.3200,3.547
11.3600,3.504
11.4000,3.436
11.4400,3.479
11.4800,3.591
11.5200,3.561
11.5600,3.544
11.6000,3.541
11.6400,3.433
11.6800,3.534
11.7200,3.532
11.7600,3.492
11.8000,3.430
11.8400,3.517
11.8800,3.530
11.9200,3.483
11.9600,3.508
12.0000,3.490
12.0400,3.515
12.0800,3.521
12.1200,3.525
12.1600,3.413
12.2000,3.446
12.2400,3.415
12.2800,3.415
12.3200,3.424
12.3600,3.483
12.4000,3.407
12.4400,3.406
12.4800,3.371
12.5200,3.413
12.5600,3.393
12.6000,3.379
12.6400,3.438
12.6800,3.351
12.7200,3.465
12.7600,3.380
12.8000,3.355
12.8400,3.372
12.8800,3.319
12.9200,3.379
12.9600,3.385
13.0000,3.350
13.0400,3.413
13.0800,3.298
13.1200,3.518
13.1600,3.299
13.2000,3.437
13.2400,3.359
13.2800,3.288
13.3200,3.344
13.3600,3.419
13.4000,3.282
13.4400,3.416
13.4800,3.290
13.5200,3.280
13.5600,3.380
13.6000,3.249
13.6400,3.358
13.6800,3.258
13.7200,3.361
13.7600,3.294
13.8000,3.316
13.8400,3.223
13.8800,3.265
13.9200,3.308
13.9600,3.224
14.0000,3.301
14.0400,3.278
14.0800,3.276
14.1200,3.282
14.1600,3.289
14.2000,3.279
14.2400,3.165
14.2800,3.219
14.3200,3.289
14.3600,3.197
14.4000,3.290
14.4400,3.129
14.4800,3.220
14.5200,3.148
14.5600,3.128
14.6000,3.136
14.6400,3.112
14.6800,3.234
14.7200,3.183
14.7600,3.168
14.8000,3.133
14.8400,3.228
14.8800,3.140
14.9200,3.225
14.9600,3.144
15.0000,3.211
15.0400,3.143
15.0800,3.196
15.1200,3.170
15.1600,3.190
15.2000,3.247
15.2400,3.268
15.2800,3.189
15.3200,3.168
15.3600,3.136
15.4000,3.085
15.4400,3.019
15.4800,3.195
15.5200,3.211
15.5600,3.070
15.6000,3.200
15.6400,3.116
15.6800,3.107
15.7200,3.053
15.7600,3.081
15.8000,3.171
15.8400,3.194
15.8800,3.208
15.9200,3.105
15.9600,3.074
16.0000,3.089
16.0400,3.029
16.0800,3.087
16.1200,3.099
16.1600,3.098
16.2000,3.135
16.2400,3.062
16.2800,3.101
16.3200,3.000
16.3600,3.042
16.4000,2.989
16.4400,3.061
16.4800,3.132
16.5200,3.116
16.5600,2.958
16.6000,3.034
16.6400,2.979
16.6800,2.976
16.7200,3.018
16.7600,3.044
16.8000,2.949
16.8400,2.983
16.8800,3.031
16.9200,2.962
16.9600,2.942
17.0000,2.997
17.0400,2.963
17.0800,2.959
17.1200,2.996
17.1600,2.928
17.2000,2.899
17.2400,2.997
17.2800,2.909
17.3200,2.999
17.3600,2.888
17.4000,2.998
17.4400,2.992
17.4800,2.974
17.5200,3.020
17.5600,2.927
17.6000,2.997
17.6400,2.897
17.6800,2.959
17.7200,2.931
17.7600,2.867
17.8000,2.867
17.8400,2.794
17.8800,2.815
17.9200,2.802
17.9600,2.875
18.0000,2.776
18.0400,2.924
18.0800,2.966
18.1200,2.874
18.1600,2.827
18.2000,2.849
18.2400,2.781
18.2800,2.762
18.3200,2.834
18.3600,2.893
18.4000,2.861
18.4400,2.889
18.4800,2.884
18.5200,2.837
18.5600,2.870
18.6000,2.824
18.6400,2.809
18.6800,2.869
18.7200,2.822
18.7600,2.888
18.8000,2.775
18.8400,2.745
18.8800,2.836
18.9200,2.837
18.9600,2.840
19.0000,2.742
19.0400,2.785
19.0800,2.781
19.1200,2.723
19.1600,2.658
19.2000,2.701
19.2400,2.859
19.2800,2.752
19.3200,2.713
19.3600,2.658
19.4000,2.681
19.4400,2.769
19.4800,2.724
19.5200,2.790
19.5600,2.776
19.6000,2.680
19.6400,2.697
19.6800,2.762
19.7200,2.787
19.7600,2.738
19.8000,2.744
19.8400,2.650
19.8800,2.759
19.9200,2.688
19.9600,2.677
20.0000,2.686
20.0400,2.683
20.0800,2.711
20.1200,2.656
20.1600,2.725
20.2000,2.682
20.2400,2.640
20.2800,2.662
20.3200,2.729
20.3600,2.674
20.4000,2.678
20.4400,2.704
20.4800,2.653
20.5200,2.737
20.5600,2.639
20.6000,2.659
20.6400,2.589
20.6800,2.645
20.7200,2.576
20.7600,2.535
20.8000,2.629
20.8400,2.646
20.8800,2.651
20.9200,2.654
20.9600,2.579
21.0000,2.618
21.0400,2.691
21.0800,2.738
21.1200,2.708
21.1600,2.673
21.2000,2.655
21.2400,2.691
21.2800,2.621
21.3200,2.629
21.3600,2.626
21.4000,2.565
21.4400,2.666
21.4800,2.640
21.5200,2.687
21.5600,2.688
21.6000,2.642
21.6400,2.560
21.6800,2.609
21.7200,2.585
21.7600,2.595
21.8000,2.606
21.8400,2.538
21.8800,2.553
21.9200,2.534
21.9600,2.606
22.0000,2.503
22.0400,2.506
22.0800,2.500
22.1200,2.584
22.1600,2.510
22.2000,2.678
22.2400,2.493
22.2800,2.603
22.3200,2.572
22.3600,2.594
22.4000,2.640
22.4400,2.573
22.4800,2.583
22.5200,2.668
22.5600,2.585
22.6000,2.622
22.6400,2.597
22.6800,2.578
22.7200,2.598
22.7600,2.591
22.8000,2.507
22.8400,2.492
22.8800,2.508
22.9200,2.501
22.9600,2.449
23.0000,2.512
23.0400,2.469
23.0800,2.500
23.1200,2.524
23.1600,2.496
23.2000,2.436
23.2400,2.440
23.2800,2.333
23.3200,2.333
23.3600,2.467
23.4000,2.383
23.4400,2.464
23.4800,2.407
23.5200,2.343
23.5600,2.355
23.6000,2.396
23.6400,2.418
23.6800,2.371
23.7200,2.420
23.7600,2.295
23.8000,2.317
23.8400,2.375
23.8800,2.369
23.9200,2.360
23.9600,2.414
24.0000,2.371
24.0400,2.339
24.0800,2.411
24.1200,2.354
24.1600,2.398
24.2000,2.314
24.2400,2.267
24.2800,2.365
24.3200,2.301
24.3600,2.333
24.4000,2.354
24.4400,2.320
24.4800,2.331
24.5200,2.375
24.5600,2.235
24.6000,2.387
24.6400,2.301
24.6800,2.328
24.7200,2.284
24.7600,2.236
24.8000,2.283
24.8400,2.219
24.8800,2.216
24.9200,2.265
24.9600,2.316
25.0000,2.281
25.0400,2.262
25.0800,2.291
25.1200,2.287
25.1600,2.270
25.2000,2.275
25.2400,2.280
25.2800,2.281
25.3200,2.203
25.3600,2.215
25.4000,2.216
25.4400,2.224
25.4800,2.184
25.5200,2.217
25.5600,2.238
25.6000,2.254
25.6400,2.128
25.6800,2.271
25.7200,2.286
25.7600,2.151
25.8000,2.218
25.8400,2.233
25.8800,2.133
25.9200,2.159
25.9600,2.150
26.0000,2.147
26.0400,2.253
26.0800,2.145
26.1200,2.250
26.1600,2.339
26.2000,2.204
26.2400,2.176
26.2800,2.185
26.3200,2.231
26.3600,2.147
26.4000,2.188
26.4400,2.214
26.4800,2.128
26.5200,2.096
26.5600,2.109
26.6000,2.140
26.6400,2.117
26.6800,2.142
26.7200,2.139
26.7600,2.194
26.8000,2.063
26.8400,2.082
26.8800,2.126
26.9200,2.077
26.9600,2.099
27.0000,2.087
27.0400,2.146
27.0800,2.127
27.1200,2.089
27.1600,2.067
27.2000,2.067
27.2400,2.158
27.2800,2.143
27.3200,2.055
27.3600,2.107
27.4000,2.048
27.4400,2.140
27.4800,2.198
27.5200,2.188
27.5600,2.202
27.6000,2.211
27.6400,2.210
27.6800,2.282
27.7200,2.238
27.7600,2.202
27.8000,2.223
27.8400,2.228
27.8800,2.173
27.9200,2.082
27.9600,2.138
28.0000,2.127
28.0400,2.083
28.0800,2.121
28.1200,2.028
28.1600,2.023
28.2000,1.952
28.2400,2.020
28.2800,1.920
28.3200,2.018
28.3600,1.982
28.4000,2.007
28.4400,1.998
28.4800,1.993
28.5200,2.020
28.5600,1.982
28.6000,1.913
28.6400,2.018
28.6800,1.992
28.7200,1.967
28.7600,1.936
28.8000,1.967
28.8400,1.975
28.8800,1.929
28.9200,1.976
28.9600,2.018
29.0000,1.993
29.0400,1.967
29.0800,1.908
29.1200,1.857
29.1600,1.910
29.2000,1.935
29.2400,1.899
29.2800,1.942
29.3200,1.864
29.3600,1.899
29.4000,1.962
29.4400,1.871
29.4800,1.874
29.5200,1.909
29.5600,1.974
29.6000,1.973
29.6400,1.837
29.6800,1.911
29.7200,1.883
29.7600,1.915
29.8000,1.914
29.8400,1.817
29.8800,1.894
29.9200,1.837
29.9600,1.898
30.0000,1.932
30.0400,1.876
30.0800,1.850
30.1200,1.960
30.1600,1.887
30.2000,1.971
30.2400,1.926
30.2800,1.896
30.3200,1.934
30.3600,1.939
30.4000,1.903
30.4400,1.954
30.4800,1.993
30.5200,2.103
30.5600,2.049
30.6000,2.041
30.6400,2.039
30.6800,2.032
30.7200,1.966
30.7600,1.940
30.8000,2.031
30.8400,1.894
30.8800,1.854
30.9200,1.897
30.9600,1.873
31.0000,1.875
31.0400,1.855
31.0800,1.777
31.1200,1.834
31.1600,1.872
31.2000,1.824
31.2400,1.870
31.2800,1.898
31.3200,1.776
31.3600,1.881
31.4000,1.843
31.4400,1.747
31.4800,1.845
31.5200,1.840
31.5600,1.787
31.6000,1.808
31.6400,1.784
31.6800,1.783
31.7200,1.708
31.7600,1.747
31.8000,1.806
31.8400,1.721
31.8800,1.774
31.9200,1.739
31.9600,1.649
32.0000,1.759
32.0400,1.723
32.0800,1.802
32.1200,1.713
32.1600,1.735
32.2000,1.712
32.2400,1.711
32.2800,1.649
32.3200,1.742
32.3600,1.700
32.4000,1.781
32.4400,1.678
32.4800,1.638
32.5200,1.651
32.5600,1.708
32.6000,1.707
32.6400,1.719
32.6800,1.743
32.7200,1.687
32.7600,1.710
32.8000,1.697
32.8400,1.637
32.8800,1.765
32.9200,1.652
32.9600,1.679
33.0000,1.661
33.0400,1.617
33.0800,1.718
33.1200,1.681
33.1600,1.722
33.2000,1.678
33.2400,1.634
33.2800,1.726
33.3200,1.684
33.3600,1.680
33.4000,1.605
33.4400,1.652
33.4800,1.659
33.5200,1.635
33.5600,1.582
33.6000,1.601
33.6400,1.665
33.6800,1.668
33.7200,1.573
33.7600,1.650
33.8000,1.632
33.8400,1.592
33.8800,1.601
33.9200,1.622
33.9600,1.571
34.0000,1.627
34.0400,1.615
34.0800,1.600
34.1200,1.636
34.1600,1.544
34.2000,1.639
34.2400,1.560
34.2800,1.554
34.3200,1.535
34.3600,1.621
34.4000,1.612
34.4400,1.560
34.4800,1.568
34.5200,1.563
34.5600,1.645
34.6000,1.610
34.6400,1.532
34.6800,1.540
34.7200,1.502
34.7600,1.576
34.8000,1.613
34.8400,1.608
34.8800,1.524
34.9200,1.639
34.9600,1.563
35.0000,1.500
35.0400,1.492
35.0800,1.537
35.1200,1.568
35.1600,1.535
35.2000,1.452
35.2400,1.572
35.2800,1.560
35.3200,1.682
35.3600,1.527
35.4000,1.523
35.4400,1.587
35.4800,1.584
35.5200,1.552
35.5600,1.498
35.6000,1.616
35.6400,1.538
35.6800,1.542
35.7200,1.541
35.7600,1.559
35.8000,1.529
35.8400,1.493
35.8800,1.588
35.9200,1.505
35.9600,1.537
36.0000,1.480
36.0400,1.460
36.0800,1.542
36.1200,1.519
36.1600,1.563
36.2000,1.504
36.2400,1.572
36.2800,1.506
36.3200,1.515
36.3600,1.434
36.4000,1.476
36.4400,1.558
36.4800,1.436
36.5200,1.523
36.5600,1.506
36.6000,1.557
36.6400,1.518
36.6800,1.460
36.7200,1.553
36.7600,1.432
36.8000,1.515
36.8400,1.431
36.8800,1.473
36.9200,1.525
36.9600,1.482
37.0000,1.518
37.0400,1.538
37.0800,1.501
37.1200,1.493
37.1600,1.528
37.2000,1.492
37.2400,1.592
37.2800,1.543
37.3200,1.545
37.3600,1.534
37.4000,1.501
37.4400,1.523
37.4800,1.521
37.5200,1.580
37.5600,1.567
37.6000,1.546
37.6400,1.578
37.6800,1.610
37.7200,1.650
37.7600,1.602
37.8000,1.649
37.8400,1.762
37.8800,1.828
37.9200,1.808
37.9600,1.852
38.0000,2.030
38.0400,2.036
38.0800,2.364
38.1200,2.567
38.1600,2.878
38.2000,3.164
38.2400,3.495
38.2800,3.825
38.3200,4.052
38.3600,4.121
38.4000,4.193
38.4400,4.122
38.4800,4.175
38.5200,4.405
38.5600,4.615
38.6000,4.650
38.6400,4.426
38.6800,4.154
38.7200,3.845
38.7600,3.430
38.8000,3.116
38.8400,2.951
38.8800,2.638
38.9200,2.536
38.9600,2.508
39.0000,2.586
39.0400,2.597
39.0800,2.714
39.1200,2.931
39.1600,3.350
39.2000,3.918
39.2400,4.720
39.2800,5.783
39.3200,7.834
39.3600,10.029
39.4000,12.961
39.4400,15.866
39.4800,18.120
39.5200,18.999
39.5600,18.571
39.6000,16.594
39.6400,14.141
39.6800,11.079
39.7200,8.607
39.7600,6.627
39.8000,5.245
39.8400,4.144
39.8800,3.428
39.9200,2.977
39.9600,2.555
40.0000,2.368
40.0400,2.245
40.0800,2.130
40.1200,2.066
40.1600,1.962
40.2000,1.817
40.2400,1.739
40.2800,1.695
40.3200,1.758
40.3600,1.622
40.4000,1.570
40.4400,1.483
40.4800,1.521
40.5200,1.516
40.5600,1.531
40.6000,1.520
40.6400,1.592
40.6800,1.436
40.7200,1.422
40.7600,1.426
40.8000,1.433
40.8400,1.382
40.8800,1.372
40.9200,1.355
40.9600,1.345
41.0000,1.303
41.0400,1.308
41.0800,1.310
41.1200,1.306
41.1600,1.332
41.2000,1.334
41.2400,1.300
41.2800,1.292
41.3200,1.324
41.3600,1.309
41.4000,1.254
41.4400,1.218
41.4800,1.239
41.5200,1.285
41.5600,1.254
41.6000,1.267
41.6400,1.296
41.6800,1.287
41.7200,1.220
41.7600,1.224
41.8000,1.180
41.8400,1.188
41.8800,1.255
41.9200,1.243
41.9600,1.236
42.0000,1.228
42.0400,1.187
42.0800,1.152
42.1200,1.203
42.1600,1.163
42.2000,1.203
42.2400,1.165
42.2800,1.212
42.3200,1.164
42.3600,1.181
42.4000,1.228
42.4400,1.232
42.4800,1.189
42.5200,1.239
42.5600,1.204
42.6000,1.217
42.6400,1.208
42.6800,1.244
42.7200,1.210
42.7600,1.299
42.8000,1.268
42.8400,1.172
42.8800,1.234
42.9200,1.262
42.9600,1.277
43.0000,1.187
43.0400,1.211
43.0800,1.125
43.1200,1.164
43.1600,1.207
43.2000,1.201
43.2400,1.174
43.2800,1.187
43.3200,1.249
43.3600,1.223
43.4000,1.219
43.4400,1.274
43.4800,1.189
43.5200,1.185
43.5600,1.181
43.6000,1.237
43.6400,1.178
43.6800,1.190
43.7200,1.222
43.7600,1.184
43.8000,1.171
43.8400,1.159
43.8800,1.211
43.9200,1.173
43.9600,1.197
44.0000,1.230
44.0400,1.225
44.0800,1.240
44.1200,1.176
44.1600,1.279
44.2000,1.284
44.2400,1.338
44.2800,1.288
44.3200,1.321
44.3600,1.358
44.4000,1.389
44.4400,1.326
44.4800,1.446
44.5200,1.366
44.5600,1.443
44.6000,1.479
44.6400,1.445
44.6800,1.530
44.7200,1.486
44.7600,1.441
44.8000,1.435
44.8400,1.483
44.8800,1.457
44.9200,1.481
44.9600,1.455
45.0000,1.497
45.0400,1.457
45.0800,1.497
45.1200,1.518
45.1600,1.571
45.2000,1.552
45.2400,1.557
45.2800,1.438
45.3200,1.438
45.3600,1.342
45.4000,1.441
45.4400,1.355
45.4800,1.274
45.5200,1.258
45.5600,1.138
45.6000,1.210
45.6400,1.125
45.6800,1.140
45.7200,1.160
45.7600,1.103
45.8000,1.120
45.8400,1.129
45.8800,1.084
45.9200,1.086
45.9600,1.073
46.0000,1.100
46.0400,1.023
46.0800,1.026
46.1200,1.060
46.1600,1.047
46.2000,0.976
46.2400,0.967
46.2800,1.032
46.3200,1.001
46.3600,0.965
46.4000,0.952
46.4400,0.962
46.4800,0.998
46.5200,0.903
46.5600,0.962
46.6000,0.994
46.6400,0.898
46.6800,0.969
46.7200,0.977
46.7600,0.909
46.8000,0.979
46.8400,0.911
46.8800,0.962
46.9200,0.908
46.9600,0.901
47.0000,0.937
47.0400,0.927
47.0800,0.876
47.1200,0.903
47.1600,0.921
47.2000,0.950
47.2400,0.900
47.2800,0.934
47.3200,0.888
47.3600,0.921
47.4000,0.929
47.4400,0.908
47.4800,0.941
47.5200,0.912
47.5600,0.922
47.6000,0.930
47.6400,0.901
47.6800,0.849
47.7200,0.849
47.7600,0.890
47.8000,0.882
47.8400,0.890
47.8800,0.867
47.9200,0.906
47.9600,0.882
48.0000,0.846
48.0400,0.886
48.0800,0.842
48.1200,0.899
48.1600,0.865
48.2000,0.909
48.2400,0.874
48.2800,0.875
48.3200,0.841
48.3600,0.794
48.4000,0.847
48.4400,0.881
48.4800,0.836
48.5200,0.870
48.5600,0.878
48.6000,0.902
48.6400,0.867
48.6800,0.882
48.7200,0.853
48.7600,0.877
48.8000,0.908
48.8400,0.902
48.8800,0.942
48.9200,0.924
48.9600,0.889
49.0000,0.885
49.0400,0.894
49.0800,0.864
49.1200,0.877
49.1600,0.873
49.2000,0.852
49.2400,0.817
49.2800,0.835
49.3200,0.814
49.3600,0.848
49.4000,0.866
49.4400,0.863
49.4800,0.826
49.5200,0.806
49.5600,0.821
49.6000,0.828
49.6400,0.832
49.6800,0.843
49.7200,0.810
49.7600,0.827
49.8000,0.823
49.8400,0.782
49.8800,0.789
49.9200,0.826
49.9600,0.790
50.0000,0.802
50.0400,0.826
50.0800,0.837
50.1200,0.793
50.1600,0.802
50.2000,0.802
50.2400,0.820
50.2800,0.827
50.3200,0.780
50.3600,0.820
50.4000,0.784
50.4400,0.805
50.4800,0.771
50.5200,0.833
50.5600,0.855
50.6000,0.820
50.6400,0.788
50.6800,0.807
50.7200,0.803
50.7600,0.835
50.8000,0.833
50.8400,0.796
50.8800,0.833
50.9200,0.839
50.9600,0.816
51.0000,0.817
51.0400,0.847
51.0800,0.847
51.1200,0.811
51.1600,0.784
51.2000,0.817
51.2400,0.814
51.2800,0.817
51.3200,0.799
51.3600,0.734
51.4000,0.753
51.4400,0.735
51.4800,0.698
51.5200,0.736
51.5600,0.792
51.6000,0.743
51.6400,0.781
51.6800,0.738
51.7200,0.834
51.7600,0.742
51.8000,0.779
51.8400,0.806
51.8800,0.762
51.9200,0.750
51.9600,0.703
52.0000,0.754
52.0400,0.748
52.0800,0.744
52.1200,0.761
52.1600,0.745
52.2000,0.779
52.2400,0.766
52.2800,0.786
52.3200,0.751
52.3600,0.719
52.4000,0.686
52.4400,0.735
52.4800,0.690
52.5200,0.769
52.5600,0.765
52.6000,0.751
52.6400,0.739
52.6800,0.720
52.7200,0.726
52.7600,0.728
52.8000,0.709
52.8400,0.751
52.8800,0.764
52.9200,0.752
52.9600,0.704
53.0000,0.719
53.0400,0.655
53.0800,0.710
53.1200,0.688
53.1600,0.703
53.2000,0.745
53.2400,0.741
53.2800,0.707
53.3200,0.717
53.3600,0.685
53.4000,0.686
53.4400,0.711
53.4800,0.721
53.5200,0.712
53.5600,0.724
53.6000,0.691
53.6400,0.700
53.6800,0.689
53.7200,0.735
53.7600,0.721
53.8000,0.729
53.8400,0.702
53.8800,0.706
53.9200,0.732
53.9600,0.677
54.0000,0.688
54.0400,0.659
54.0800,0.729
54.1200,0.715
54.1600,0.707
54.2000,0.644
54.2400,0.696
54.2800,0.734
54.3200,0.687
54.3600,0.743
54.4000,0.690
54.4400,0.682
54.4800,0.692
54.5200,0.708
54.5600,0.753
54.6000,0.683
54.6400,0.687
54.6800,0.685
54.7200,0.671
54.7600,0.643
54.8000,0.705
54.8400,0.709
54.8800,0.703
54.9200,0.686
54.9600,0.670
55.0000,0.712
55.0400,0.681
55.0800,0.673
55.1200,0.664
55.1600,0.619
55.2000,0.713
55.2400,0.690
55.2800,0.704
55.3200,0.699
55.3600,0.712
55.4000,0.694
55.4400,0.692
55.4800,0.663
55.5200,0.683
55.5600,0.675
55.6000,0.639
55.6400,0.669
55.6800,0.645
55.7200,0.670
55.7600,0.660
55.8000,0.701
55.8400,0.664
55.8800,0.673
55.9200,0.721
55.9600,0.661
56.0000,0.708
56.0400,0.663
56.0800,0.677
56.1200,0.691
56.1600,0.722
56.2000,0.712
56.2400,0.702
56.2800,0.669
56.3200,0.748
56.3600,0.674
56.4000,0.702
56.4400,0.699
56.4800,0.724
56.5200,0.772
56.5600,0.757
56.6000,0.744
56.6400,0.779
56.6800,0.839
56.7200,0.821
56.7600,0.884
56.8000,0.912
56.8400,0.982
56.8800,1.074
56.9200,1.137
56.9600,1.206
57.0000,1.347
57.0400,1.445
57.0800,1.534
57.1200,1.636
57.1600,1.669
57.2000,1.649
57.2400,1.695
57.2800,1.749
57.3200,1.726
57.3600,1.628
57.4000,1.495
57.4400,1.405
57.4800,1.323
57.5200,1.219
57.5600,1.104
57.6000,1.045
57.6400,0.971
57.6800,0.929
57.7200,0.847
57.7600,0.835
57.8000,0.792
57.8400,0.782
57.8800,0.791
57.9200,0.773
57.9600,0.752
58.0000,0.701
58.0400,0.757
58.0800,0.684
58.1200,0.683
58.1600,0.654
58.2000,0.628
58.2400,0.652
58.2800,0.671
58.3200,0.619
58.3600,0.617
58.4000,0.622
58.4400,0.656
58.4800,0.629
58.5200,0.641
58.5600,0.652
58.6000,0.641
58.6400,0.667
58.6800,0.650
58.7200,0.628
58.7600,0.611
58.8000,0.631
58.8400,0.627
58.8800,0.591
58.9200,0.593
58.9600,0.591
59.0000,0.606
59.0400,0.620
59.0800,0.617
59.1200,0.588
59.1600,0.616
59.2000,0.596
59.2400,0.595
59.2800,0.563
59.3200,0.553
59.3600,0.623
59.4000,0.600
59.4400,0.595
59.4800,0.607
59.5200,0.590
59.5600,0.567
59.6000,0.609
59.6400,0.573
59.6800,0.607
59.7200,0.591
59.7600,0.595
59.8000,0.573
59.8400,0.557
59.8800,0.627
59.9200,0.599
59.9600,0.574
60.0000,0.560
60.0400,0.562
60.0800,0.639
60.1200,0.596
60.1600,0.567
60.2000,0.573
60.2400,0.607
60.2800,0.591
60.3200,0.553
60.3600,0.584
60.4000,0.562
60.4400,0.561
60.4800,0.560
60.5200,0.563
60.5600,0.492
60.6000,0.577
60.6400,0.587
60.6800,0.564
60.7200,0.610
60.7600,0.584
60.8000,0.621
60.8400,0.610
60.8800,0.572
60.9200,0.555
60.9600,0.563
61.0000,0.576
61.0400,0.553
61.0800,0.559
61.1200,0.495
61.1600,0.579
61.2000,0.564
61.2400,0.559
61.2800,0.557
61.3200,0.568
61.3600,0.575
61.4000,0.531
61.4400,0.569
61.4800,0.531
61.5200,0.545
61.5600,0.582
61.6000,0.564
61.6400,0.638
61.6800,0.660
61.7200,0.616
61.7600,0.593
61.8000,0.561
61.8400,0.550
61.8800,0.534
61.9200,0.589
61.9600,0.585
62.0000,0.556
62.0400,0.569
62.0800,0.556
62.1200,0.524
62.1600,0.556
62.2000,0.566
62.2400,0.539
62.2800,0.510
62.3200,0.603
62.3600,0.585
62.4000,0.560
62.4400,0.608
62.4800,0.562
62.5200,0.612
62.5600,0.562
62.6000,0.578
62.6400,0.552
62.6800,0.575
62.7200,0.512
62.7600,0.558
62.8000,0.550
62.8400,0.562
62.8800,0.556
62.9200,0.539
62.9600,0.532
63.0000,0.537
63.0400,0.543
63.0800,0.549
63.1200,0.542
63.1600,0.523
63.2000,0.538
63.2400,0.505
63.2800,0.563
63.3200,0.539
63.3600,0.559
63.4000,0.533
63.4400,0.527
63.4800,0.562
63.5200,0.575
63.5600,0.520
63.6000,0.568
63.6400,0.566
63.6800,0.624
63.7200,0.577
63.7600,0.572
63.8000,0.596
63.8400,0.599
63.8800,0.604
63.9200,0.675
63.9600,0.620
64.0000,0.665
64.0400,0.676
64.0800,0.610
64.1200,0.616
64.1600,0.664
64.2000,0.645
64.2400,0.673
64.2800,0.658
64.3200,0.675
64.3600,0.666
64.4000,0.722
64.4400,0.707
64.4800,0.724
64.5200,0.709
64.5600,0.734
64.6000,0.750
64.6400,0.734
64.6800,0.755
64.7200,0.771
64.7600,0.759
64.8000,0.753
64.8400,0.716
64.8800,0.770
64.9200,0.786
64.9600,0.761
65.0000,0.776
65.0400,0.781
65.0800,0.776
65.1200,0.796
65.1600,0.820
65.2000,0.804
65.2400,0.795
65.2800,0.847
65.3200,0.812
65.3600,0.877
65.4000,0.790
65.4400,0.861
65.4800,0.823
65.5200,0.890
65.5600,0.891
65.6000,0.900
65.6400,0.829
65.6800,0.861
65.7200,0.824
65.7600,0.823
65.8000,0.825
65.8400,0.847
65.8800,0.825
65.9200,0.804
65.9600,0.765
66.0000,0.762
66.0400,0.809
66.0800,0.737
66.1200,0.798
66.1600,0.831
66.2000,0.752
66.2400,0.773
66.2800,0.734
66.3200,0.779
66.3600,0.776
66.4000,0.767
66.4400,0.830
66.4800,0.753
66.5200,0.838
66.5600,0.775
66.6000,0.847
66.6400,0.830
66.6800,0.874
66.7200,0.851
66.7600,0.886
66.8000,0.880
66.8400,0.877
66.8800,0.909
66.9200,0.911
66.9600,0.907
67.0000,0.965
67.0400,0.901
67.0800,0.963
67.1200,0.965
67.1600,0.996
67.2000,0.947
67.2400,0.997
67.2800,0.995
67.3200,1.033
67.3600,1.041
67.4000,1.050
67.4400,1.030
67.4800,1.105
67.5200,1.066
67.5600,1.095
67.6000,1.129
67.6400,1.150
67.6800,1.226
67.7200,1.157
67.7600,1.247
67.8000,1.293
67.8400,1.302
67.8800,1.298
67.9200,1.365
67.9600,1.358
68.0000,1.396
68.0400,1.447
68.0800,1.500
68.1200,1.511
68.1600,1.556
68.2000,1.521
68.2400,1.658
68.2800,1.741
68.3200,1.760
68.3600,1.809
68.4000,1.917
68.4400,1.895
68.4800,2.071
68.5200,2.195
68.5600,2.281
68.6000,2.303
68.6400,2.594
68.6800,2.943
68.7200,3.702
68.7600,4.769
68.8000,5.683
68.8400,6.112
68.8800,6.320
68.9200,6.656
68.9600,8.241
69.0000,12.483
69.0400,23.798
69.0800,82.067
69.1200,327.721
69.1600,410.960
69.2000,171.321
69.2400,48.263
69.2800,62.430
69.3200,178.065
69.3600,204.330
69.4000,84.219
69.4400,22.826
69.4800,11.292
69.5200,7.684
69.5600,5.961
69.6000,4.864
69.6400,4.281
69.6800,3.748
69.7200,3.412
69.7600,3.105
69.8000,2.896
69.8400,2.610
69.8800,2.536
69.9200,2.346
69.9600,2.335
70.0000,2.232
70.0400,2.207
70.0800,2.031
70.1200,2.035
70.1600,1.872
70.2000,1.881
70.2400,1.744
70.2800,1.761
70.3200,1.639
70.3600,1.635
70.4000,1.603
70.4400,1.537
70.4800,1.494
70.5200,1.380
70.5600,1.409
70.6000,1.406
70.6400,1.322
70.6800,1.316
70.7200,1.267
70.7600,1.243
70.8000,1.241
70.8400,1.234
70.8800,1.248
70.9200,1.203
70.9600,1.095
71.0000,1.144
71.0400,1.167
71.0800,1.211
71.1200,1.193
71.1600,1.210
71.2000,1.178
71.2400,1.305
71.2800,1.379
71.3200,1.410
71.3600,1.578
71.4000,1.669
71.4400,1.795
71.4800,1.915
71.5200,1.956
71.5600,2.258
71.6000,2.379
71.6400,2.419
71.6800,2.453
71.7200,2.538
71.7600,2.503
71.8000,2.209
71.8400,2.096
71.8800,1.965
71.9200,1.890
71.9600,1.748
72.0000,1.583
72.0400,1.428
72.0800,1.312
72.1200,1.200
72.1600,1.120
72.2000,0.940
72.2400,0.906
72.2800,0.830
72.3200,0.808
72.3600,0.839
72.4000,0.782
72.4400,0.733
72.4800,0.720
72.5200,0.651
72.5600,0.665
72.6000,0.642
72.6400,0.629
72.6800,0.662
72.7200,0.625
72.7600,0.645
72.8000,0.621
72.8400,0.593
72.8800,0.568
72.9200,0.590
72.9600,0.575
73.0000,0.569
73.0400,0.547
73.0800,0.540
73.1200,0.504
73.1600,0.525
73.2000,0.527
73.2400,0.539
73.2800,0.516
73.3200,0.499
73.3600,0.520
73.4000,0.508
73.4400,0.478
73.4800,0.476
73.5200,0.542
73.5600,0.489
73.6000,0.505
73.6400,0.489
73.6800,0.441
73.7200,0.477
73.7600,0.496
73.8000,0.493
73.8400,0.462
73.8800,0.479
73.9200,0.483
73.9600,0.472
74.0000,0.452
74.0400,0.449
74.0800,0.465
74.1200,0.448
74.1600,0.458
74.2000,0.450
74.2400,0.428
74.2800,0.469
74.3200,0.428
74.3600,0.419
74.4000,0.455
74.4400,0.478
74.4800,0.408
74.5200,0.443
74.5600,0.453
74.6000,0.394
74.6400,0.443
74.6800,0.414
74.7200,0.406
74.7600,0.440
74.8000,0.446
74.8400,0.381
74.8800,0.449
74.9200,0.440
74.9600,0.439
75.0000,0.442
75.0400,0.441
75.0800,0.435
75.1200,0.419
75.1600,0.388
75.2000,0.383
75.2400,0.417
75.2800,0.390
75.3200,0.415
75.3600,0.399
75.4000,0.423
75.4400,0.419
75.4800,0.397
75.5200,0.407
75.5600,0.423
75.6000,0.415
75.6400,0.404
75.6800,0.409
75.7200,0.399
75.7600,0.394
75.8000,0.412
75.8400,0.399
75.8800,0.394
75.9200,0.381
75.9600,0.430
76.0000,0.372
76.0400,0.412
76.0800,0.404
76.1200,0.374
76.1600,0.380
76.2000,0.379
76.2400,0.397
76.2800,0.395
76.3200,0.381
76.3600,0.404
76.4000,0.415
76.4400,0.420
76.4800,0.373
76.5200,0.359
76.5600,0.440
76.6000,0.394
76.6400,0.389
76.6800,0.398
76.7200,0.416
76.7600,0.399
76.8000,0.381
76.8400,0.412
76.8800,0.377
76.9200,0.413
76.9600,0.408
77.0000,0.388
77.0400,0.384
77.0800,0.405
77.1200,0.386
77.1600,0.411
77.2000,0.433
77.2400,0.410
77.2800,0.413
77.3200,0.390
77.3600,0.400
77.4000,0.416
77.4400,0.439
77.4800,0.398
77.5200,0.416
77.5600,0.421
77.6000,0.414
77.6400,0.400
77.6800,0.450
77.7200,0.452
77.7600,0.413
77.8000,0.446
77.8400,0.479
77.8800,0.452
77.9200,0.482
77.9600,0.463
78.0000,0.464
78.0400,0.456
78.0800,0.477
78.1200,0.435
78.1600,0.522
78.2000,0.474
78.2400,0.468
78.2800,0.506
78.3200,0.462
78.3600,0.489
78.4000,0.520
78.4400,0.501
78.4800,0.517
78.5200,0.516
78.5600,0.507
78.6000,0.549
78.6400,0.517
78.6800,0.495
78.7200,0.544
78.7600,0.561
78.8000,0.546
78.8400,0.507
78.8800,0.523
78.9200,0.542
78.9600,0.469
79.0000,0.481
79.0400,0.506
79.0800,0.464
79.1200,0.438
79.1600,0.417
79.2000,0.444
79.2400,0.442
79.2800,0.384
79.3200,0.397
79.3600,0.378
79.4000,0.372
79.4400,0.400
79.4800,0.385
79.5200,0.353
79.5600,0.394
79.6000,0.349
79.6400,0.351
79.6800,0.341
79.7200,0.364
79.7600,0.348
79.8000,0.383
79.8400,0.346
79.8800,0.381
79.9200,0.374
79.9600,0.411
80.0000,0.343
