theta,intensity
5.0000,5.758
5.0400,5.630
5.0800,5.694
5.1200,5.564
5.1600,5.548
5.2000,5.490
5.2400,5.434
5.2800,5.440
5.3200,5.635
5.3600,5.384
5.4000,5.372
5.4400,5.276
5.4800,5.400
5.5200,5.194
5.5600,5.092
5.6000,5.108
5.6400,5.007
5.6800,4.979
5.7200,4.968
5.7600,5.034
5.8000,4.906
5.8400,4.846
5.8800,4.775
5.9200,4.654
5.9600,4.666
6.0000,4.506
6.0400,4.455
6.0800,4.337
6.1200,4.395
6.1600,4.334
6.2000,4.356
6.2400,4.285
6.2800,4.240
6.3200,4.324
6.3600,4.435
6.4000,4.271
6.4400,4.206
6.4800,4.293
6.5200,4.220
6.5600,4.217
6.6000,4.221
6.6400,4.087
6.6800,4.164
6.7200,4.132
6.7600,4.185
6.8000,4.157
6.8400,4.131
6.8800,4.070
6.9200,4.201
6.9600,4.225
7.0000,4.271
7.0400,4.116
7.0800,4.037
7.1200,4.049
7.1600,4.028
7.2000,4.143
7.2400,4.105
7.2800,4.061
7.3200,4.056
7.3600,4.106
7.4000,3.964
7.4400,4.134
7.4800,3.948
7.5200,4.009
7.5600,3.979
7.6000,4.055
7.6400,3.930
7.6800,4.070
7.7200,3.893
7.7600,4.046
7.8000,3.942
7.8400,3.901
7.8800,3.908
7.9200,3.992
7.9600,3.911
8.0000,3.946
8.0400,3.921
8.0800,4.016
8.1200,3.913
8.1600,3.949
8.2000,3.846
8.2400,3.923
8.2800,3.794
8.3200,3.921
8.3600,3.957
8.4000,3.933
8.4400,3.882
8.4800,3.850
8.5200,3.909
8.5600,3.897
8.6000,3.898
8.6400,3.943
8.6800,3.916
8.7200,3.806
8.7600,3.894
8.8000,3.847
8.8400,3.932
8.8800,3.789
8.9200,3.864
8.9600,3.885
9.0000,3.840
9.0400,3.840
9.0800,3.821
9.1200,3.778
9.1600,3.768
9.2000,3.674
9.2400,3.749
9.2800,3.840
9.3200,3.703
9.3600,3.698
9.4000,3.815
9.4400,3.772
9.4800,3.780
9.5200,3.665
9.5600,3.807
9.6000,3.840
9.6400,3.765
9.6800,3.705
9.7200,3.778
9.7600,3.843
9.8000,3.665
9.8400,3.771
9.8800,3.720
9.9200,3.668
9.9600,3.694
10.0000,3.672
10.0400,3.815
10.0800,3.718
10.1200,3.592
10.1600,3.669
10.2000,3.641
10.2400,3.741
10.2800,3.702
10.3200,3.745
10.3600,3.663
10.4000,3.685
10.4400,3.577
10.4800,3.672
10.5200,3.678
10.5600,3.624
10.6000,3.760
10.6400,3.699
10.6800,3.760
10.7200,3.686
10.7600,3.592
10.8000,3.554
10.8400,3.558
10.8800,3.570
10.9200,3.563
10.9600,3.526
11.0000,3.523
11.0400,3.568
11.0800,3.679
11.1200,3.611
11.1600,3.670
11.2000,3.607
11.2400,3.679
11.2800,3.464
11.3200,3.618
11.3600,3.553
11.4000,3.476
11.4400,3.578
11.4800,3.477
11.5200,3.489
11.5600,3.606
11.6000,3.470
11.6400,3.492
11.6800,3.489
11.7200,3.560
11.7600,3.463
11.8000,3.496
11.8400,3.438
11.8800,3.505
11.9200,3.509
11.9600,3.563
12.0000,3.507
12.0400,3.442
12.0800,3.463
12.1200,3.377
12.1600,3.509
12.2000,3.514
12.2400,3.478
12.2800,3.432
12.3200,3.412
12.3600,3.442
12.4000,3.394
12.4400,3.396
12.4800,3.427
12.5200,3.461
12.5600,3.436
12.6000,3.348
12.6400,3.427
12.6800,3.459
12.7200,3.365
12.7600,3.430
12.8000,3.515
12.8400,3.372
12.8800,3.410
12.9200,3.357
12.9600,3.358
13.0000,3.419
13.0400,3.446
13.0800,3.273
13.1200,3.413
13.1600,3.418
13.2000,3.410
13.2400,3.413
13.2800,3.414
13.3200,3.305
13.3600,3.455
13.4000,3.411
13.4400,3.387
13.4800,3.328
13.5200,3.296
13.5600,3.275
13.6000,3.179
13.6400,3.274
13.6800,3.301
13.7200,3.268
13.7600,3.232
13.8000,3.225
13.8400,3.305
13.8800,3.324
13.9200,3.251
13.9600,3.300
14.0000,3.258
14.0400,3.281
14.0800,3.300
14.1200,3.225
14.1600,3.230
14.2000,3.264
14.2400,3.204
14.2800,3.214
14.3200,3.305
14.3600,3.240
14.4000,3.148
14.4400,3.274
14.4800,3.351
14.5200,3.232
14.5600,3.282
14.6000,3.353
14.6400,3.252
14.6800,3.228
14.7200,3.271
14.7600,3.255
14.8000,3.154
14.8400,3.247
14.8800,3.282
14.9200,3.150
14.9600,3.206
15.0000,3.174
15.0400,3.213
15.0800,3.112
15.1200,3.208
15.1600,3.241
15.2000,3.133
15.2400,3.265
15.2800,3.125
15.3200,3.208
15.3600,3.166
15.4000,3.169
15.4400,3.185
15.4800,3.163
15.5200,3.096
15.5600,3.050
15.6000,3.219
15.6400,3.103
15.6800,3.158
15.7200,3.119
15.7600,3.169
15.8000,3.236
15.8400,3.194
15.8800,3.143
15.9200,3.179
15.9600,3.162
16.0000,3.115
16.0400,3.056
16.0800,3.105
16.1200,3.002
16.1600,3.119
16.2000,3.142
16.2400,3.081
16.2800,3.127
16.3200,3.167
16.3600,3.048
16.4000,3.087
16.4400,3.019
16.4800,3.123
16.5200,3.047
16.5600,3.036
16.6000,2.966
16.6400,3.057
16.6800,3.063
16.7200,3.075
16.7600,3.078
16.8000,3.040
16.8400,3.146
16.8800,2.952
16.9200,2.991
16.9600,2.979
17.0000,2.938
17.0400,3.087
17.0800,2.895
17.1200,3.018
17.1600,2.874
17.2000,2.954
17.2400,3.081
17.2800,2.938
17.3200,2.977
17.3600,2.960
17.4000,2.922
17.4400,2.886
17.4800,2.912
17.5200,3.003
17.5600,2.883
17.6000,2.984
17.6400,2.965
17.6800,2.958
17.7200,2.924
17.7600,3.004
17.8000,2.942
17.8400,2.874
17.8800,2.956
17.9200,2.970
17.9600,2.954
18.0000,2.940
18.0400,2.965
18.0800,2.963
18.1200,2.883
18.1600,3.010
18.2000,2.952
18.2400,2.949
18.2800,2.971
18.3200,2.875
18.3600,2.801
18.4000,2.894
18.4400,2.882
18.4800,2.933
18.5200,2.933
18.5600,2.799
18.6000,2.772
18.6400,2.865
18.6800,2.871
18.7200,2.853
18.7600,2.902
18.8000,2.845
18.8400,2.842
18.8800,2.828
18.9200,2.802
18.9600,2.840
19.0000,2.843
19.0400,2.808
19.0800,2.679
19.1200,2.705
19.1600,2.803
19.2000,2.858
19.2400,2.779
19.2800,2.785
19.3200,2.820
19.3600,2.724
19.4000,2.828
19.4400,2.788
19.4800,2.721
19.5200,2.715
19.5600,2.750
19.6000,2.824
19.6400,2.854
19.6800,2.784
19.7200,2.730
19.7600,2.743
19.8000,2.742
19.8400,2.778
19.8800,2.659
19.9200,2.682
19.9600,2.797
20.0000,2.711
20.0400,2.796
20.0800,2.699
20.1200,2.743
20.1600,2.718
20.2000,2.704
20.2400,2.677
20.2800,2.880
20.3200,2.669
20.3600,2.646
20.4000,2.656
20.4400,2.735
20.4800,2.708
20.5200,2.623
20.5600,2.664
20.6000,2.723
20.6400,2.652
20.6800,2.609
20.7200,2.664
20.7600,2.715
20.8000,2.658
20.8400,2.718
20.8800,2.678
20.9200,2.691
20.9600,2.706
21.0000,2.682
21.0400,2.719
21.0800,2.811
21.1200,2.732
21.1600,2.682
21.2000,2.743
21.2400,2.778
21.2800,2.797
21.3200,2.971
21.3600,2.999
21.4000,2.987
21.4400,2.955
21.4800,2.870
21.5200,2.924
21.5600,2.836
21.6000,2.768
21.6400,2.701
21.6800,2.636
21.7200,2.672
21.7600,2.862
21.8000,2.697
21.8400,2.680
21.8800,2.613
21.9200,2.537
21.9600,2.619
22.0000,2.637
22.0400,2.608
22.0800,2.634
22.1200,2.562
22.1600,2.601
22.2000,2.621
22.2400,2.496
22.2800,2.477
22.3200,2.572
22.3600,2.581
22.4000,2.518
22.4400,2.520
22.4800,2.571
22.5200,2.577
22.5600,2.542
22.6000,2.567
22.6400,2.677
22.6800,2.595
22.7200,2.482
22.7600,2.655
22.8000,2.766
22.8400,2.822
22.8800,2.836
22.9200,2.886
22.9600,2.884
23.0000,2.941
23.0400,3.063
23.0800,3.114
23.1200,3.009
23.1600,2.935
23.2000,2.863
23.2400,2.829
23.2800,2.723
23.3200,2.633
23.3600,2.579
23.4000,2.480
23.4400,2.511
23.4800,2.427
23.5200,2.485
23.5600,2.501
23.6000,2.509
23.6400,2.437
23.6800,2.445
23.7200,2.453
23.7600,2.376
23.8000,2.351
23.8400,2.355
23.8800,2.344
23.9200,2.373
23.9600,2.517
24.0000,2.366
24.0400,2.355
24.0800,2.436
24.1200,2.365
24.1600,2.297
24.2000,2.374
24.2400,2.375
24.2800,2.369
24.3200,2.350
24.3600,2.243
24.4000,2.333
24.4400,2.287
24.4800,2.335
24.5200,2.296
24.5600,2.400
24.6000,2.263
24.6400,2.358
24.6800,2.322
24.7200,2.317
24.7600,2.278
24.8000,2.307
24.8400,2.235
24.8800,2.296
24.9200,2.320
24.9600,2.331
25.0000,2.303
25.0400,2.328
25.0800,2.207
25.1200,2.251
25.1600,2.260
25.2000,2.231
25.2400,2.234
25.2800,2.256
25.3200,2.248
25.3600,2.233
25.4000,2.205
25.4400,2.177
25.4800,2.179
25.5200,2.173
25.5600,2.281
25.6000,2.194
25.6400,2.232
25.6800,2.233
25.7200,2.220
25.7600,2.226
25.8000,2.251
25.8400,2.213
25.8800,2.236
25.9200,2.245
25.9600,2.216
26.0000,2.159
26.0400,2.216
26.0800,2.089
26.1200,2.137
26.1600,2.259
26.2000,2.069
26.2400,2.180
26.2800,2.168
26.3200,2.203
26.3600,2.059
26.4000,2.095
26.4400,2.175
26.4800,2.150
26.5200,2.065
26.5600,2.174
26.6000,2.115
26.6400,2.181
26.6800,2.137
26.7200,2.094
26.7600,2.098
26.8000,2.091
26.8400,2.129
26.8800,2.105
26.9200,2.137
26.9600,2.143
27.0000,2.110
27.0400,2.196
27.0800,2.109
27.1200,2.097
27.1600,2.048
27.2000,2.122
27.2400,2.191
27.2800,2.133
27.3200,2.111
27.3600,2.187
27.4000,2.197
27.4400,2.218
27.4800,2.266
27.5200,2.233
27.5600,2.351
27.6000,2.505
27.6400,2.671
27.6800,2.634
27.7200,2.617
27.7600,2.687
27.8000,2.528
27.8400,2.412
27.8800,2.333
27.9200,2.325
27.9600,2.288
28.0000,2.153
28.0400,2.156
28.0800,2.122
28.1200,2.132
28.1600,2.056
28.2000,2.004
28.2400,2.058
28.2800,2.074
28.3200,1.978
28.3600,2.062
28.4000,1.987
28.4400,2.094
28.4800,2.097
28.5200,1.991
28.5600,1.983
28.6000,2.014
28.6400,1.976
28.6800,1.944
28.7200,1.963
28.7600,1.979
28.8000,1.923
28.8400,1.966
28.8800,1.989
28.9200,1.950
28.9600,1.909
29.0000,1.913
29.0400,1.930
29.0800,1.954
29.1200,1.963
29.1600,2.011
29.2000,1.963
29.2400,2.040
29.2800,1.990
29.3200,1.930
29.3600,1.981
29.4000,1.890
29.4400,1.885
29.4800,1.926
29.5200,1.908
29.5600,1.918
29.6000,1.965
29.6400,1.920
29.6800,1.851
29.7200,1.864
29.7600,1.988
29.8000,1.952
29.8400,1.959
29.8800,1.816
29.9200,1.832
29.9600,1.888
30.0000,1.855
30.0400,1.950
30.0800,1.960
30.1200,1.913
30.1600,1.848
30.2000,1.842
30.2400,1.832
30.2800,1.894
30.3200,1.858
30.3600,1.877
30.4000,1.875
30.4400,1.821
30.4800,1.870
30.5200,1.814
30.5600,1.843
30.6000,1.817
30.6400,1.830
30.6800,1.892
30.7200,1.837
30.7600,1.778
30.8000,1.852
30.8400,1.844
30.8800,1.859
30.9200,1.792
30.9600,1.771
31.0000,1.857
31.0400,1.862
31.0800,1.874
31.1200,1.798
31.1600,1.806
31.2000,1.831
31.2400,1.848
31.2800,1.828
31.3200,1.867
31.3600,1.860
31.4000,1.741
31.4400,1.857
31.4800,1.849
31.5200,1.836
31.5600,1.911
31.6000,1.884
31.6400,1.924
31.6800,1.989
31.7200,1.868
31.7600,1.892
31.8000,1.923
31.8400,1.923
31.8800,1.973
31.9200,1.894
31.9600,1.989
32.0000,1.906
32.0400,1.917
32.0800,1.824
32.1200,1.924
32.1600,1.825
32.2000,1.717
32.2400,1.785
32.2800,1.800
32.3200,1.755
32.3600,1.739
32.4000,1.766
32.4400,1.751
32.4800,1.725
32.5200,1.763
32.5600,1.750
32.6000,1.690
32.6400,1.722
32.6800,1.677
32.7200,1.701
32.7600,1.692
32.8000,1.752
32.8400,1.705
32.8800,1.700
32.9200,1.693
32.9600,1.705
33.0000,1.700
33.0400,1.725
33.0800,1.658
33.1200,1.708
33.1600,1.726
33.2000,1.751
33.2400,1.609
33.2800,1.617
33.3200,1.650
33.3600,1.667
33.4000,1.643
33.4400,1.624
33.4800,1.682
33.5200,1.678
33.5600,1.691
33.6000,1.717
33.6400,1.715
33.6800,1.753
33.7200,1.714
33.7600,1.717
33.8000,1.766
33.8400,1.737
33.8800,1.761
33.9200,1.740
33.9600,1.737
34.0000,1.644
34.0400,1.699
34.0800,1.703
34.1200,1.736
34.1600,1.585
34.2000,1.569
34.2400,1.650
34.2800,1.613
34.3200,1.717
34.3600,1.582
34.4000,1.663
34.4400,1.625
34.4800,1.598
34.5200,1.601
34.5600,1.653
34.6000,1.617
34.6400,1.534
34.6800,1.602
34.7200,1.603
34.7600,1.671
34.8000,1.633
34.8400,1.587
34.8800,1.694
34.9200,1.669
34.9600,1.688
35.0000,1.779
35.0400,1.694
35.0800,1.881
35.1200,1.854
35.1600,1.919
35.2000,2.050
35.2400,2.094
35.2800,2.182
35.3200,2.229
35.3600,2.116
35.4000,2.071
35.4400,2.013
35.4800,1.935
35.5200,1.867
35.5600,1.784
35.6000,1.840
35.6400,1.817
35.6800,1.819
35.7200,1.783
35.7600,1.782
35.8000,1.797
35.8400,1.856
35.8800,1.934
35.9200,1.892
35.9600,1.869
36.0000,1.832
36.0400,1.841
36.0800,1.845
36.1200,1.846
36.1600,1.889
36.2000,1.879
36.2400,1.930
36.2800,1.858
36.3200,1.875
36.3600,1.840
36.4000,1.931
36.4400,1.828
36.4800,1.811
36.5200,1.878
36.5600,1.804
36.6000,1.822
36.6400,1.798
36.6800,1.699
36.7200,1.780
36.7600,1.707
36.8000,1.692
36.8400,1.689
36.8800,1.676
36.9200,1.743
36.9600,1.736
37.0000,1.699
37.0400,1.701
37.0800,1.717
37.1200,1.747
37.1600,1.670
37.2000,1.685
37.2400,1.744
37.2800,1.669
37.3200,1.704
37.3600,1.798
37.4000,1.705
37.4400,1.788
37.4800,1.799
37.5200,1.791
37.5600,1.773
37.6000,1.760
37.6400,1.896
37.6800,1.801
37.7200,1.774
37.7600,1.852
37.8000,1.818
37.8400,1.798
37.8800,1.852
37.9200,1.910
37.9600,1.958
38.0000,1.904
38.0400,2.035
38.0800,2.034
38.1200,2.220
38.1600,2.247
38.2000,2.342
38.2400,2.538
38.2800,2.511
38.3200,2.911
38.3600,3.226
38.4000,3.522
38.4400,4.048
38.4800,4.919
38.5200,5.945
38.5600,7.384
38.6000,9.171
38.6400,11.497
38.6800,14.103
38.7200,16.195
38.7600,16.813
38.8000,16.540
38.8400,15.141
38.8800,12.850
38.9200,10.301
38.9600,8.148
39.0000,6.395
39.0400,5.108
39.0800,4.133
39.1200,3.435
39.1600,3.032
39.2000,2.716
39.2400,2.449
39.2800,2.354
39.3200,2.117
39.3600,2.039
39.4000,2.067
39.4400,1.975
39.4800,1.849
39.5200,1.826
39.5600,1.750
39.6000,1.770
39.6400,1.744
39.6800,1.705
39.7200,1.729
39.7600,1.697
39.8000,1.570
39.8400,1.644
39.8800,1.553
39.9200,1.535
39.9600,1.584
40.0000,1.520
40.0400,1.456
40.0800,1.555
40.1200,1.494
40.1600,1.514
40.2000,1.527
40.2400,1.458
40.2800,1.486
40.3200,1.480
40.3600,1.465
40.4000,1.406
40.4400,1.481
40.4800,1.433
40.5200,1.397
40.5600,1.387
40.6000,1.427
40.6400,1.387
40.6800,1.411
40.7200,1.384
40.7600,1.299
40.8000,1.287
40.8400,1.299
40.8800,1.301
40.9200,1.344
40.9600,1.297
41.0000,1.355
41.0400,1.325
41.0800,1.247
41.1200,1.284
41.1600,1.250
41.2000,1.255
41.2400,1.287
41.2800,1.252
41.3200,1.253
41.3600,1.259
41.4000,1.272
41.4400,1.266
41.4800,1.324
41.5200,1.299
41.5600,1.270
41.6000,1.262
41.6400,1.178
41.6800,1.274
41.7200,1.218
41.7600,1.268
41.8000,1.251
41.8400,1.266
41.8800,1.228
41.9200,1.234
41.9600,1.255
42.0000,1.253
42.0400,1.327
42.0800,1.154
42.1200,1.181
42.1600,1.255
42.2000,1.258
42.2400,1.261
42.2800,1.241
42.3200,1.252
42.3600,1.183
42.4000,1.304
42.4400,1.211
42.4800,1.201
42.5200,1.244
42.5600,1.232
42.6000,1.194
42.6400,1.179
42.6800,1.246
42.7200,1.233
42.7600,1.248
42.8000,1.189
42.8400,1.220
42.8800,1.164
42.9200,1.211
42.9600,1.233
43.0000,1.210
43.0400,1.203
43.0800,1.219
43.1200,1.239
43.1600,1.205
43.2000,1.305
43.2400,1.293
43.2800,1.350
43.3200,1.405
43.3600,1.515
43.4000,1.595
43.4400,1.635
43.4800,1.772
43.5200,1.822
43.5600,1.904
43.6000,1.926
43.6400,1.957
43.6800,1.854
43.7200,1.816
43.7600,1.824
43.8000,1.751
43.8400,1.701
43.8800,1.623
43.9200,1.673
43.9600,1.585
44.0000,1.504
44.0400,1.470
44.0800,1.511
44.1200,1.566
44.1600,1.523
44.2000,1.534
44.2400,1.520
44.2800,1.522
44.3200,1.529
44.3600,1.520
44.4000,1.494
44.4400,1.505
44.4800,1.514
44.5200,1.491
44.5600,1.422
44.6000,1.402
44.6400,1.360
44.6800,1.360
44.7200,1.382
44.7600,1.452
44.8000,1.385
44.8400,1.347
44.8800,1.407
44.9200,1.509
44.9600,1.479
45.0000,1.457
45.0400,1.563
45.0800,1.494
45.1200,1.557
45.1600,1.620
45.2000,1.734
45.2400,1.694
45.2800,1.702
45.3200,1.693
45.3600,1.848
45.4000,1.868
45.4400,1.992
45.4800,1.910
45.5200,2.032
45.5600,2.152
45.6000,2.259
45.6400,2.295
45.6800,2.508
45.7200,2.579
45.7600,2.766
45.8000,2.795
45.8400,2.809
45.8800,2.648
45.9200,2.529
45.9600,2.439
46.0000,2.183
46.0400,1.987
46.0800,1.826
46.1200,1.625
46.1600,1.480
46.2000,1.405
46.2400,1.334
46.2800,1.224
46.3200,1.194
46.3600,1.143
46.4000,1.129
46.4400,1.049
46.4800,1.056
46.5200,1.066
46.5600,1.031
46.6000,1.040
46.6400,1.080
46.6800,1.032
46.7200,0.972
46.7600,1.025
46.8000,1.010
46.8400,0.978
46.8800,0.994
46.9200,0.921
46.9600,1.004
47.0000,1.052
47.0400,0.987
47.0800,0.981
47.1200,0.973
47.1600,0.979
47.2000,0.956
47.2400,1.020
47.2800,1.010
47.3200,0.970
47.3600,0.970
47.4000,0.988
47.4400,1.015
47.4800,0.924
47.5200,0.962
47.5600,0.917
47.6000,0.945
47.6400,0.968
47.6800,0.961
47.7200,0.853
47.7600,0.889
47.8000,0.954
47.8400,0.897
47.8800,0.899
47.9200,0.943
47.9600,0.917
48.0000,0.879
48.0400,0.899
48.0800,0.871
48.1200,0.872
48.1600,0.850
48.2000,0.892
48.2400,0.877
48.2800,0.881
48.3200,0.872
48.3600,0.857
48.4000,0.921
48.4400,0.893
48.4800,0.944
48.5200,0.837
48.5600,0.904
48.6000,0.901
48.6400,0.906
48.6800,0.868
48.7200,0.878
48.7600,0.851
48.8000,0.794
48.8400,0.852
48.8800,0.863
48.9200,0.881
48.9600,0.831
49.0000,0.865
49.0400,0.840
49.0800,0.837
49.1200,0.830
49.1600,0.839
49.2000,0.837
49.2400,0.846
49.2800,0.844
49.3200,0.825
49.3600,0.873
49.4000,0.831
49.4400,0.777
49.4800,0.848
49.5200,0.875
49.5600,0.860
49.6000,0.844
49.6400,0.869
49.6800,0.838
49.7200,0.825
49.7600,0.796
49.8000,0.848
49.8400,0.812
49.8800,0.837
49.9200,0.805
49.9600,0.849
50.0000,0.764
50.0400,0.866
50.0800,0.834
50.1200,0.784
50.1600,0.799
50.2000,0.854
50.2400,0.853
50.2800,0.795
50.3200,0.839
50.3600,0.770
50.4000,0.848
50.4400,0.765
50.4800,0.785
50.5200,0.819
50.5600,0.810
50.6000,0.803
50.6400,0.822
50.6800,0.824
50.7200,0.825
50.7600,0.790
50.8000,0.847
50.8400,0.805
50.8800,0.818
50.9200,0.878
50.9600,0.846
51.0000,0.813
51.0400,0.843
51.0800,0.879
51.1200,0.806
51.1600,0.783
51.2000,0.771
51.2400,0.830
51.2800,0.840
51.3200,0.814
51.3600,0.811
51.4000,0.787
51.4400,0.840
51.4800,0.860
51.5200,0.834
51.5600,0.903
51.6000,0.860
51.6400,0.883
51.6800,0.874
51.7200,0.941
51.7600,0.982
51.8000,0.983
51.8400,1.028
51.8800,1.003
51.9200,1.034
51.9600,1.117
52.0000,1.045
52.0400,1.013
52.0800,0.920
52.1200,0.932
52.1600,0.922
52.2000,0.849
52.2400,0.857
52.2800,0.822
52.3200,0.832
52.3600,0.808
52.4000,0.802
52.4400,0.803
52.4800,0.765
52.5200,0.729
52.5600,0.782
52.6000,0.778
52.6400,0.762
52.6800,0.731
52.7200,0.743
52.7600,0.717
52.8000,0.734
52.8400,0.731
52.8800,0.756
52.9200,0.745
52.9600,0.733
53.0000,0.758
53.0400,0.748
53.0800,0.759
53.1200,0.723
53.1600,0.733
53.2000,0.724
53.2400,0.746
53.2800,0.748
53.3200,0.755
53.3600,0.701
53.4000,0.743
53.4400,0.744
53.4800,0.731
53.5200,0.711
53.5600,0.706
53.6000,0.749
53.6400,0.736
53.6800,0.704
53.7200,0.726
53.7600,0.721
53.8000,0.717
53.8400,0.672
53.8800,0.730
53.9200,0.675
53.9600,0.724
54.0000,0.705
54.0400,0.699
54.0800,0.686
54.1200,0.699
54.1600,0.713
54.2000,0.695
54.2400,0.695
54.2800,0.707
54.3200,0.719
54.3600,0.712
54.4000,0.697
54.4400,0.715
54.4800,0.690
54.5200,0.701
54.5600,0.702
54.6000,0.691
54.6400,0.699
54.6800,0.701
54.7200,0.745
54.7600,0.725
54.8000,0.726
54.8400,0.745
54.8800,0.712
54.9200,0.772
54.9600,0.774
55.0000,0.737
55.0400,0.772
55.0800,0.755
55.1200,0.713
55.1600,0.748
55.2000,0.704
55.2400,0.719
55.2800,0.707
55.3200,0.746
55.3600,0.726
55.4000,0.725
55.4400,0.725
55.4800,0.714
55.5200,0.704
55.5600,0.691
55.6000,0.702
55.6400,0.670
55.6800,0.670
55.7200,0.737
55.7600,0.660
55.8000,0.678
55.8400,0.646
55.8800,0.656
55.9200,0.671
55.9600,0.682
56.0000,0.672
56.0400,0.739
56.0800,0.631
56.1200,0.734
56.1600,0.680
56.2000,0.645
56.2400,0.654
56.2800,0.645
56.3200,0.684
56.3600,0.616
56.4000,0.693
56.4400,0.662
56.4800,0.686
56.5200,0.652
56.5600,0.652
56.6000,0.645
56.6400,0.662
56.6800,0.662
56.7200,0.683
56.7600,0.645
56.8000,0.720
56.8400,0.661
56.8800,0.627
56.9200,0.653
56.9600,0.674
57.0000,0.647
57.0400,0.640
57.0800,0.663
57.1200,0.686
57.1600,0.685
57.2000,0.668
57.2400,0.694
57.2800,0.702
57.3200,0.654
57.3600,0.667
57.4000,0.663
57.4400,0.655
57.4800,0.663
57.5200,0.621
57.5600,0.622
57.6000,0.659
57.6400,0.598
57.6800,0.665
57.7200,0.616
57.7600,0.658
57.8000,0.630
57.8400,0.639
57.8800,0.663
57.9200,0.620
57.9600,0.602
58.0000,0.624
58.0400,0.610
58.0800,0.611
58.1200,0.620
58.1600,0.656
58.2000,0.616
58.2400,0.586
58.2800,0.609
58.3200,0.627
58.3600,0.611
58.4000,0.619
58.4400,0.648
58.4800,0.625
58.5200,0.632
58.5600,0.638
58.6000,0.633
58.6400,0.659
58.6800,0.648
58.7200,0.651
58.7600,0.593
58.8000,0.693
58.8400,0.664
58.8800,0.611
58.9200,0.637
58.9600,0.581
59.0000,0.608
59.0400,0.631
59.0800,0.623
59.1200,0.651
59.1600,0.634
59.2000,0.641
59.2400,0.654
59.2800,0.657
59.3200,0.627
59.3600,0.638
59.4000,0.616
59.4400,0.632
59.4800,0.590
59.5200,0.594
59.5600,0.604
59.6000,0.619
59.6400,0.603
59.6800,0.616
59.7200,0.595
59.7600,0.628
59.8000,0.594
59.8400,0.578
59.8800,0.627
59.9200,0.595
59.9600,0.610
60.0000,0.607
60.0400,0.589
60.0800,0.616
60.1200,0.592
60.1600,0.517
60.2000,0.576
60.2400,0.569
60.2800,0.606
60.3200,0.587
60.3600,0.525
60.4000,0.552
60.4400,0.582
60.4800,0.580
60.5200,0.563
60.5600,0.581
60.6000,0.591
60.6400,0.566
60.6800,0.567
60.7200,0.546
60.7600,0.574
60.8000,0.585
60.8400,0.568
60.8800,0.608
60.9200,0.588
60.9600,0.547
61.0000,0.573
61.0400,0.585
61.0800,0.537
61.1200,0.573
61.1600,0.507
61.2000,0.598
61.2400,0.538
61.2800,0.540
61.3200,0.550
61.3600,0.549
61.4000,0.558
61.4400,0.568
61.4800,0.545
61.5200,0.561
61.5600,0.587
61.6000,0.579
61.6400,0.636
61.6800,0.704
61.7200,0.649
61.7600,0.543
61.8000,0.578
61.8400,0.554
61.8800,0.585
61.9200,0.556
61.9600,0.554
62.0000,0.551
62.0400,0.548
62.0800,0.564
62.1200,0.600
62.1600,0.541
62.2000,0.548
62.2400,0.519
62.2800,0.516
62.3200,0.549
62.3600,0.551
62.4000,0.551
62.4400,0.533
62.4800,0.548
62.5200,0.551
62.5600,0.579
62.6000,0.554
62.6400,0.536
62.6800,0.564
62.7200,0.556
62.7600,0.533
62.8000,0.543
62.8400,0.549
62.8800,0.533
62.9200,0.569
62.9600,0.583
63.0000,0.577
63.0400,0.537
63.0800,0.556
63.1200,0.567
63.1600,0.550
63.2000,0.575
63.2400,0.559
63.2800,0.579
63.3200,0.541
63.3600,0.575
63.4000,0.489
63.4400,0.582
63.4800,0.586
63.5200,0.600
63.5600,0.580
63.6000,0.602
63.6400,0.584
63.6800,0.619
63.7200,0.570
63.7600,0.575
63.8000,0.615
63.8400,0.598
63.8800,0.562
63.9200,0.613
63.9600,0.606
64.0000,0.624
64.0400,0.613
64.0800,0.603
64.1200,0.584
64.1600,0.621
64.2000,0.644
64.2400,0.622
64.2800,0.602
64.3200,0.606
64.3600,0.675
64.4000,0.647
64.4400,0.684
64.4800,0.648
64.5200,0.711
64.5600,0.723
64.6000,0.713
64.6400,0.778
64.6800,0.763
64.7200,0.807
64.7600,0.875
64.8000,0.885
64.8400,0.978
64.8800,1.063
64.9200,1.113
64.9600,1.241
65.0000,1.311
65.0400,1.447
65.0800,1.420
65.1200,1.490
65.1600,1.500
65.2000,1.466
65.2400,1.484
65.2800,1.462
65.3200,1.260
65.3600,1.247
65.4000,1.231
65.4400,1.132
65.4800,1.109
65.5200,1.056
65.5600,1.106
65.6000,1.018
65.6400,1.006
65.6800,0.960
65.7200,0.956
65.7600,1.000
65.8000,0.971
65.8400,0.989
65.8800,0.936
65.9200,0.946
65.9600,0.991
66.0000,0.977
66.0400,0.954
66.0800,1.013
66.1200,0.980
66.1600,1.019
66.2000,0.988
66.2400,0.992
66.2800,1.019
66.3200,1.021
66.3600,1.041
66.4000,1.003
66.4400,0.948
66.4800,1.055
66.5200,1.115
66.5600,1.010
66.6000,1.086
66.6400,1.185
66.6800,1.209
66.7200,1.174
66.7600,1.179
66.8000,1.230
66.8400,1.218
66.8800,1.212
66.9200,1.160
66.9600,1.154
67.0000,1.201
67.0400,1.111
67.0800,1.149
67.1200,1.132
67.1600,1.127
67.2000,1.124
67.2400,1.103
67.2800,1.170
67.3200,1.181
67.3600,1.174
67.4000,1.150
67.4400,1.206
67.4800,1.239
67.5200,1.226
67.5600,1.277
67.6000,1.339
67.6400,1.313
67.6800,1.340
67.7200,1.386
67.7600,1.423
67.8000,1.466
67.8400,1.482
67.8800,1.530
67.9200,1.543
67.9600,1.570
68.0000,1.583
68.0400,1.707
68.0800,1.676
68.1200,1.749
68.1600,1.841
68.2000,1.800
68.2400,1.798
68.2800,1.905
68.3200,1.943
68.3600,2.056
68.4000,2.090
68.4400,2.281
68.4800,2.382
68.5200,2.549
68.5600,2.571
68.6000,2.698
68.6400,2.939
68.6800,3.417
68.7200,4.046
68.7600,5.169
68.8000,6.628
68.8400,7.035
68.8800,7.019
68.9200,7.548
68.9600,9.357
69.0000,13.738
69.0400,25.213
69.0800,77.325
69.1200,341.305
69.1600,501.843
69.2000,232.922
69.2400,61.038
69.2800,63.351
69.3200,193.485
69.3600,256.700
69.4000,116.056
69.4400,29.804
69.4800,14.090
69.5200,9.401
69.5600,7.343
69.6000,5.935
69.6400,4.995
69.6800,4.467
69.7200,4.062
69.7600,3.658
69.8000,3.436
69.8400,3.115
69.8800,2.915
69.9200,2.865
69.9600,2.803
70.0000,2.555
70.0400,2.491
70.0800,2.450
70.1200,2.238
70.1600,2.190
70.2000,2.147
70.2400,2.031
70.2800,2.020
70.3200,1.931
70.3600,1.873
70.4000,1.837
70.4400,1.745
70.4800,1.688
70.5200,1.607
70.5600,1.661
70.6000,1.552
70.6400,1.503
70.6800,1.457
70.7200,1.417
70.7600,1.364
70.8000,1.352
70.8400,1.322
70.8800,1.292
70.9200,1.307
70.9600,1.218
71.0000,1.212
71.0400,1.222
71.0800,1.101
71.1200,1.189
71.1600,1.104
71.2000,1.061
71.2400,1.032
71.2800,1.038
71.3200,1.039
71.3600,0.970
71.4000,1.001
71.4400,0.950
71.4800,0.945
71.5200,0.934
71.5600,0.900
71.6000,0.947
71.6400,0.902
71.6800,0.898
71.7200,0.863
71.7600,0.895
71.8000,0.785
71.8400,0.812
71.8800,0.801
71.9200,0.762
71.9600,0.744
72.0000,0.764
72.0400,0.723
72.0800,0.743
72.1200,0.694
72.1600,0.670
72.2000,0.735
72.2400,0.715
72.2800,0.677
72.3200,0.685
72.3600,0.654
72.4000,0.652
72.4400,0.622
72.4800,0.630
72.5200,0.657
72.5600,0.660
72.6000,0.661
72.6400,0.614
72.6800,0.572
72.7200,0.609
72.7600,0.530
72.8000,0.581
72.8400,0.593
72.8800,0.584
72.9200,0.596
72.9600,0.535
73.0000,0.539
73.0400,0.558
73.0800,0.581
73.1200,0.525
73.1600,0.505
73.2000,0.563
73.2400,0.515
73.2800,0.530
73.3200,0.536
73.3600,0.542
73.4000,0.580
73.4400,0.584
73.4800,0.485
73.5200,0.562
73.5600,0.511
73.6000,0.532
73.6400,0.538
73.6800,0.587
73.7200,0.569
73.7600,0.571
73.8000,0.542
73.8400,0.511
73.8800,0.601
73.9200,0.566
73.9600,0.563
74.0000,0.576
74.0400,0.538
74.0800,0.577
74.1200,0.600
74.1600,0.558
74.2000,0.586
74.2400,0.596
74.2800,0.543
74.3200,0.580
74.3600,0.542
74.4000,0.552
74.4400,0.506
74.4800,0.495
74.5200,0.529
74.5600,0.465
74.6000,0.477
74.6400,0.447
74.6800,0.452
74.7200,0.483
74.7600,0.443
74.8000,0.417
74.8400,0.431
74.8800,0.442
74.9200,0.467
74.9600,0.461
75.0000,0.445
75.0400,0.473
75.0800,0.436
75.1200,0.425
75.1600,0.431
75.2000,0.425
75.2400,0.405
75.2800,0.413
75.3200,0.405
75.3600,0.427
75.4000,0.426
75.4400,0.406
75.4800,0.398
75.5200,0.440
75.5600,0.397
75.6000,0.415
75.6400,0.441
75.6800,0.447
75.7200,0.438
75.7600,0.422
75.8000,0.396
75.8400,0.445
75.8800,0.454
75.9200,0.376
75.9600,0.399
76.0000,0.436
76.0400,0.464
76.0800,0.437
76.1200,0.439
76.1600,0.456
76.2000,0.447
76.2400,0.459
76.2800,0.448
76.3200,0.462
76.3600,0.455
76.4000,0.472
76.4400,0.479
76.4800,0.481
76.5200,0.500
76.5600,0.536
76.6000,0.497
76.6400,0.555
76.6800,0.575
76.7200,0.633
76.7600,0.603
76.8000,0.606
76.8400,0.594
76.8800,0.610
76.9200,0.593
76.9600,0.636
77.0000,0.581
77.0400,0.592
77.0800,0.588
77.1200,0.592
77.1600,0.540
77.2000,0.563
77.2400,0.547
77.2800,0.504
77.3200,0.487
77.3600,0.514
77.4000,0.531
77.4400,0.536
77.4800,0.466
77.5200,0.512
77.5600,0.530
77.6000,0.556
77.6400,0.567
77.6800,0.513
77.7200,0.531
77.7600,0.556
77.8000,0.550
77.8400,0.570
77.8800,0.546
77.9200,0.580
77.9600,0.542
78.0000,0.536
78.0400,0.539
78.0800,0.547
78.1200,0.523
78.1600,0.537
78.2000,0.513
78.2400,0.491
78.2800,0.520
78.3200,0.505
78.3600,0.532
78.4000,0.497
78.4400,0.458
78.4800,0.473
78.5200,0.490
78.5600,0.517
78.6000,0.539
78.6400,0.519
78.6800,0.490
78.7200,0.496
78.7600,0.491
78.8000,0.523
78.8400,0.519
78.8800,0.517
78.9200,0.523
78.9600,0.577
79.0000,0.563
79.0400,0.530
79.0800,0.571
79.1200,0.587
79.1600,0.544
79.2000,0.585
79.2400,0.592
79.2800,0.568
79.3200,0.566
79.3600,0.614
79.4000,0.611
79.4400,0.587
79.4800,0.602
79.5200,0.607
79.5600,0.640
79.6000,0.631
79.6400,0.637
79.6800,0.637
79.7200,0.661
79.7600,0.672
79.8000,0.703
79.8400,0.726
79.8800,0.690
79.9200,0.727
79.9600,0.638
80.0000,0.715
