theta,intensity
5.0000,15.254
5.0400,14.992
5.0800,15.166
5.1200,14.881
5.1600,15.097
5.2000,14.741
5.2400,14.731
5.2800,14.524
5.3200,14.447
5.3600,14.360
5.4000,14.307
5.4400,14.207
5.4800,14.040
5.5200,14.084
5.5600,13.849
5.6000,13.758
5.6400,13.504
5.6800,13.304
5.7200,13.360
5.7600,13.186
5.8000,13.310
5.8400,12.972
5.8800,12.807
5.9200,12.712
5.9600,12.523
6.0000,12.268
6.0400,12.100
6.0800,12.196
6.1200,11.891
6.1600,11.739
6.2000,11.420
6.2400,11.338
6.2800,11.179
6.3200,11.115
6.3600,10.918
6.4000,10.806
6.4400,10.375
6.4800,10.532
6.5200,10.423
6.5600,10.014
6.6000,9.976
6.6400,9.889
6.6800,9.807
6.7200,9.574
6.7600,9.353
6.8000,9.345
6.8400,9.260
6.8800,9.239
6.9200,9.063
6.9600,8.773
7.0000,8.772
7.0400,8.723
7.0800,8.665
7.1200,8.490
7.1600,8.271
7.2000,8.206
7.2400,8.259
7.2800,8.209
7.3200,8.087
7.3600,8.034
7.4000,7.757
7.4400,7.775
7.4800,7.791
7.5200,7.728
7.5600,7.323
7.6000,7.269
7.6400,7.542
7.6800,7.501
7.7200,7.160
7.7600,7.053
7.8000,6.847
7.8400,6.911
7.8800,6.844
7.9200,6.768
7.9600,6.743
8.0000,6.556
8.0400,6.611
8.0800,6.459
8.1200,6.521
8.1600,6.343
8.2000,6.347
8.2400,6.269
8.2800,6.318
8.3200,6.209
8.3600,6.066
8.4000,6.007
8.4400,5.927
8.4800,5.908
8.5200,5.908
8.5600,5.777
8.6000,5.743
8.6400,5.668
8.6800,5.709
8.7200,5.568
8.7600,5.714
8.8000,5.520
8.8400,5.513
8.8800,5.483
8.9200,5.417
8.9600,5.334
9.0000,5.260
9.0400,5.300
9.0800,5.145
9.1200,5.184
9.1600,5.142
9.2000,5.157
9.2400,5.140
9.2800,4.994
9.3200,4.906
9.3600,5.034
9.4000,4.921
9.4400,4.842
9.4800,4.831
9.5200,4.836
9.5600,4.744
9.6000,4.774
9.6400,4.720
9.6800,4.793
9.7200,4.655
9.7600,4.666
9.8000,4.586
9.8400,4.520
9.8800,4.538
9.9200,4.540
9.9600,4.594
10.0000,4.464
10.0400,4.493
10.0800,4.492
10.1200,4.250
10.1600,4.279
10.2000,4.330
10.2400,4.330
10.2800,4.286
10.3200,4.288
10.3600,4.160
10.4000,4.235
10.4400,4.259
10.4800,4.196
10.5200,4.161
10.5600,4.150
10.6000,4.097
10.6400,4.225
10.6800,4.012
10.7200,4.158
10.7600,4.018
10.8000,3.983
10.8400,4.037
10.8800,3.963
10.9200,3.937
10.9600,3.900
11.0000,3.892
11.0400,3.882
11.0800,4.047
11.1200,3.955
11.1600,3.972
11.2000,3.869
11.2400,3.840
11.2800,3.787
11.3200,3.758
11.3600,3.829
11.4000,3.803
11.4400,3.843
11.4800,3.797
11.5200,3.767
11.5600,3.745
11.6000,3.816
11.6400,3.733
11.6800,3.790
11.7200,3.790
11.7600,3.729
11.8000,3.741
11.8400,3.757
11.8800,3.669
11.9200,3.558
11.9600,3.657
12.0000,3.678
12.0400,3.635
12.0800,3.601
12.1200,3.642
12.1600,3.576
12.2000,3.608
12.2400,3.537
12.2800,3.639
12.3200,3.663
12.3600,3.518
12.4000,3.542
12.4400,3.607
12.4800,3.599
12.5200,3.590
12.5600,3.533
12.6000,3.597
12.6400,3.597
12.6800,3.440
12.7200,3.456
12.7600,3.442
12.8000,3.491
12.8400,3.570
12.8800,3.453
12.9200,3.471
12.9600,3.432
13.0000,3.461
13.0400,3.484
13.0800,3.613
13.1200,3.487
13.1600,3.452
13.2000,3.526
13.2400,3.494
13.2800,3.543
13.3200,3.450
13.3600,3.402
13.4000,3.488
13.4400,3.397
13.4800,3.440
13.5200,3.424
13.5600,3.393
13.6000,3.366
13.6400,3.400
13.6800,3.443
13.7200,3.411
13.7600,3.355
13.8000,3.395
13.8400,3.351
13.8800,3.279
13.9200,3.402
13.9600,3.354
14.0000,3.410
14.0400,3.405
14.0800,3.406
14.1200,3.438
14.1600,3.412
14.2000,3.301
14.2400,3.330
14.2800,3.300
14.3200,3.282
14.3600,3.302
14.4000,3.360
14.4400,3.272
14.4800,3.308
14.5200,3.347
14.5600,3.361
14.6000,3.353
14.6400,3.289
14.6800,3.303
14.7200,3.290
14.7600,3.228
14.8000,3.320
14.8400,3.193
14.8800,3.275
14.9200,3.233
14.9600,3.140
15.0000,3.161
15.0400,3.238
15.0800,3.259
15.1200,3.203
15.1600,3.188
15.2000,3.313
15.2400,3.153
15.2800,3.291
15.3200,3.363
15.3600,3.160
15.4000,3.289
15.4400,3.291
15.4800,3.248
15.5200,3.165
15.5600,3.136
15.6000,3.161
15.6400,3.164
15.6800,3.208
15.7200,3.231
15.7600,3.211
15.8000,3.186
15.8400,3.337
15.8800,3.291
15.9200,3.109
15.9600,3.119
16.0000,3.083
16.0400,3.165
16.0800,3.143
16.1200,3.160
16.1600,3.234
16.2000,3.132
16.2400,3.008
16.2800,3.102
16.3200,3.091
16.3600,3.059
16.4000,3.088
16.4400,3.023
16.4800,3.096
16.5200,3.170
16.5600,3.112
16.6000,3.081
16.6400,3.125
16.6800,3.044
16.7200,3.100
16.7600,3.058
16.8000,3.101
16.8400,3.115
16.8800,3.076
16.9200,3.140
16.9600,3.121
17.0000,3.086
17.0400,2.971
17.0800,3.048
17.1200,2.988
17.1600,3.019
17.2000,3.103
17.2400,3.079
17.2800,3.060
17.3200,3.003
17.3600,3.019
17.4000,2.973
17.4400,2.975
17.4800,3.053
17.5200,2.943
17.5600,3.045
17.6000,2.937
17.6400,2.990
17.6800,2.970
17.7200,2.975
17.7600,2.979
17.8000,2.938
17.8400,2.940
17.8800,2.911
17.9200,2.972
17.9600,2.871
18.0000,2.932
18.0400,2.980
18.0800,3.030
18.1200,2.936
18.1600,2.987
18.2000,3.085
18.2400,2.954
18.2800,2.932
18.3200,2.844
18.3600,2.878
18.4000,2.837
18.4400,2.921
18.4800,2.907
18.5200,2.936
18.5600,2.890
18.6000,2.928
18.6400,2.979
18.6800,2.844
18.7200,2.970
18.7600,2.872
18.8000,2.975
18.8400,2.903
18.8800,2.899
18.9200,2.912
18.9600,2.821
19.0000,2.822
19.0400,2.944
19.0800,2.897
19.1200,2.819
19.1600,2.818
19.2000,2.846
19.2400,2.887
19.2800,2.852
19.3200,2.843
19.3600,2.770
19.4000,2.756
19.4400,2.862
19.4800,2.860
19.5200,2.860
19.5600,2.787
19.6000,2.791
19.6400,2.775
19.6800,2.804
19.7200,2.784
19.7600,2.649
19.8000,2.757
19.8400,2.721
19.8800,2.709
19.9200,2.749
19.9600,2.752
20.0000,2.873
20.0400,2.847
20.0800,2.871
20.1200,2.820
20.1600,2.788
20.2000,2.752
20.2400,2.706
20.2800,2.636
20.3200,2.825
20.3600,2.735
20.4000,2.753
20.4400,2.795
20.4800,2.755
20.5200,2.712
20.5600,2.710
20.6000,2.720
20.6400,2.763
20.6800,2.716
20.7200,2.605
20.7600,2.604
20.8000,2.677
20.8400,2.679
20.8800,2.727
20.9200,2.662
20.9600,2.725
21.0000,2.740
21.0400,2.706
21.0800,2.673
21.1200,2.605
21.1600,2.674
21.2000,2.632
21.2400,2.584
21.2800,2.639
21.3200,2.619
21.3600,2.635
21.4000,2.606
21.4400,2.733
21.4800,2.619
21.5200,2.642
21.5600,2.599
21.6000,2.688
21.6400,2.670
21.6800,2.567
21.7200,2.659
21.7600,2.606
21.8000,2.517
21.8400,2.606
21.8800,2.485
21.9200,2.581
21.9600,2.599
22.0000,2.566
22.0400,2.548
22.0800,2.479
22.1200,2.560
22.1600,2.592
22.2000,2.519
22.2400,2.608
22.2800,2.576
22.3200,2.544
22.3600,2.604
22.4000,2.528
22.4400,2.519
22.4800,2.550
22.5200,2.536
22.5600,2.538
22.6000,2.503
22.6400,2.484
22.6800,2.474
22.7200,2.556
22.7600,2.425
22.8000,2.527
22.8400,2.423
22.8800,2.483
22.9200,2.568
22.9600,2.515
23.0000,2.463
23.0400,2.482
23.0800,2.452
23.1200,2.581
23.1600,2.486
23.2000,2.486
23.2400,2.471
23.2800,2.480
23.3200,2.433
23.3600,2.381
23.4000,2.439
23.4400,2.459
23.4800,2.378
23.5200,2.522
23.5600,2.512
23.6000,2.435
23.6400,2.401
23.6800,2.422
23.7200,2.397
23.7600,2.443
23.8000,2.354
23.8400,2.416
23.8800,2.358
23.9200,2.416
23.9600,2.346
24.0000,2.389
24.0400,2.326
24.0800,2.336
24.1200,2.463
24.1600,2.286
24.2000,2.350
24.2400,2.388
24.2800,2.352
24.3200,2.412
24.3600,2.391
24.4000,2.254
24.4400,2.341
24.4800,2.376
24.5200,2.306
24.5600,2.333
24.6000,2.293
24.6400,2.404
24.6800,2.309
24.7200,2.360
24.7600,2.267
24.8000,2.222
24.8400,2.290
24.8800,2.279
24.9200,2.313
24.9600,2.302
25.0000,2.271
25.0400,2.315
25.0800,2.289
25.1200,2.275
25.1600,2.301
25.2000,2.225
25.2400,2.239
25.2800,2.266
25.3200,2.349
25.3600,2.175
25.4000,2.268
25.4400,2.219
25.4800,2.208
25.5200,2.272
25.5600,2.227
25.6000,2.230
25.6400,2.281
25.6800,2.236
25.7200,2.185
25.7600,2.282
25.8000,2.200
25.8400,2.255
25.8800,2.197
25.9200,2.222
25.9600,2.265
26.0000,2.215
26.0400,2.164
26.0800,2.223
26.1200,2.251
26.1600,2.141
26.2000,2.264
26.2400,2.246
26.2800,2.221
26.3200,2.209
26.3600,2.163
26.4000,2.153
26.4400,2.118
26.4800,2.199
26.5200,2.150
26.5600,2.165
26.6000,2.149
26.6400,2.177
26.6800,2.118
26.7200,2.118
26.7600,2.119
26.8000,2.164
26.8400,2.215
26.8800,2.150
26.9200,2.058
26.9600,2.141
27.0000,2.099
27.0400,2.119
27.0800,2.070
27.1200,2.094
27.1600,2.081
27.2000,2.108
27.2400,2.132
27.2800,2.039
27.3200,2.101
27.3600,2.140
27.4000,2.137
27.4400,2.033
27.4800,2.090
27.5200,2.169
27.5600,2.077
27.6000,2.042
27.6400,2.040
27.6800,2.146
27.7200,2.062
27.7600,2.110
27.8000,2.090
27.8400,2.081
27.8800,2.060
27.9200,2.043
27.9600,2.103
28.0000,2.091
28.0400,2.050
28.0800,2.057
28.1200,2.062
28.1600,1.993
28.2000,1.985
28.2400,2.058
28.2800,2.092
28.3200,2.013
28.3600,2.059
28.4000,2.010
28.4400,1.988
28.4800,2.018
28.5200,2.112
28.5600,2.029
28.6000,2.034
28.6400,2.011
28.6800,1.994
28.7200,2.048
28.7600,2.011
28.8000,1.953
28.8400,1.967
28.8800,1.918
28.9200,1.914
28.9600,2.030
29.0000,1.934
29.0400,1.892
29.0800,1.923
29.1200,1.984
29.1600,1.915
29.2000,1.910
29.2400,1.892
29.2800,1.930
29.3200,1.965
29.3600,1.930
29.4000,1.922
29.4400,1.950
29.4800,2.041
29.5200,1.933
29.5600,1.923
29.6000,2.001
29.6400,1.859
29.6800,1.900
29.7200,1.910
29.7600,1.908
29.8000,1.891
29.8400,1.905
29.8800,1.921
29.9200,1.910
29.9600,1.937
30.0000,1.914
30.0400,1.899
30.0800,1.899
30.1200,1.895
30.1600,1.930
30.2000,1.885
30.2400,1.825
30.2800,1.874
30.3200,1.882
30.3600,1.891
30.4000,1.905
30.4400,1.914
30.4800,1.906
30.5200,1.860
30.5600,1.853
30.6000,1.867
30.6400,1.939
30.6800,1.891
30.7200,1.872
30.7600,1.940
30.8000,1.909
30.8400,1.961
30.8800,1.990
30.9200,1.923
30.9600,1.903
31.0000,2.037
31.0400,2.012
31.0800,1.965
31.1200,2.005
31.1600,2.044
31.2000,1.997
31.2400,2.004
31.2800,2.073
31.3200,2.040
31.3600,2.063
31.4000,2.091
31.4400,2.125
31.4800,2.176
31.5200,2.217
31.5600,2.286
31.6000,2.359
31.6400,2.470
31.6800,2.501
31.7200,2.521
31.7600,2.592
31.8000,2.630
31.8400,2.533
31.8800,2.517
31.9200,2.402
31.9600,2.342
32.0000,2.325
32.0400,2.201
32.0800,2.187
32.1200,2.229
32.1600,2.211
32.2000,2.125
32.2400,2.052
32.2800,2.069
32.3200,2.012
32.3600,1.996
32.4000,1.996
32.4400,1.909
32.4800,1.928
32.5200,1.941
32.5600,1.914
32.6000,1.963
32.6400,1.943
32.6800,1.878
32.7200,1.918
32.7600,1.862
32.8000,1.803
32.8400,1.889
32.8800,1.905
32.9200,1.817
32.9600,1.816
33.0000,1.848
33.0400,1.789
33.0800,1.812
33.1200,1.812
33.1600,1.813
33.2000,1.871
33.2400,1.730
33.2800,1.845
33.3200,1.889
33.3600,1.835
33.4000,1.811
33.4400,1.852
33.4800,1.836
33.5200,1.856
33.5600,1.884
33.6000,1.854
33.6400,1.826
33.6800,1.930
33.7200,1.925
33.7600,1.888
33.8000,1.869
33.8400,1.943
33.8800,1.997
33.9200,1.977
33.9600,1.969
34.0000,2.049
34.0400,2.046
34.0800,2.020
34.1200,2.058
34.1600,2.119
34.2000,2.082
34.2400,2.165
34.2800,2.118
34.3200,2.080
34.3600,2.137
34.4000,2.114
34.4400,2.223
34.4800,2.162
34.5200,2.138
34.5600,2.105
34.6000,2.119
34.6400,2.097
34.6800,2.028
34.7200,1.999
34.7600,1.975
34.8000,2.017
34.8400,1.896
34.8800,1.990
34.9200,1.870
34.9600,1.901
35.0000,1.937
35.0400,1.971
35.0800,1.933
35.1200,1.914
35.1600,1.937
35.2000,1.885
35.2400,1.942
35.2800,1.910
35.3200,1.936
35.3600,1.882
35.4000,1.915
35.4400,1.972
35.4800,2.011
35.5200,1.984
35.5600,1.989
35.6000,1.987
35.6400,2.143
35.6800,2.203
35.7200,2.219
35.7600,2.274
35.8000,2.365
35.8400,2.443
35.8800,2.519
35.9200,2.541
35.9600,2.564
36.0000,2.630
36.0400,2.792
36.0800,2.806
36.1200,2.902
36.1600,2.857
36.2000,2.991
36.2400,2.847
36.2800,2.907
36.3200,2.923
36.3600,2.815
36.4000,2.814
36.4400,2.772
36.4800,2.556
36.5200,2.531
36.5600,2.459
36.6000,2.385
36.6400,2.382
36.6800,2.321
36.7200,2.267
36.7600,2.278
36.8000,2.156
36.8400,2.103
36.8800,2.223
36.9200,2.135
36.9600,2.062
37.0000,2.152
37.0400,2.071
37.0800,2.107
37.1200,2.126
37.1600,2.016
37.2000,2.075
37.2400,2.064
37.2800,2.047
37.3200,1.965
37.3600,2.020
37.4000,2.033
37.4400,2.027
37.4800,2.021
37.5200,2.091
37.5600,2.064
37.6000,2.180
37.6400,2.113
37.6800,2.258
37.7200,2.347
37.7600,2.460
37.8000,2.515
37.8400,2.749
37.8800,2.764
37.9200,3.084
37.9600,3.242
38.0000,3.700
38.0400,3.843
38.0800,4.085
38.1200,4.212
38.1600,4.106
38.2000,3.997
38.2400,3.788
38.2800,3.636
38.3200,3.335
38.3600,3.243
38.4000,2.978
38.4400,2.973
38.4800,2.698
38.5200,2.620
38.5600,2.598
38.6000,2.345
38.6400,2.378
38.6800,2.239
38.7200,2.211
38.7600,2.115
38.8000,2.058
38.8400,2.113
38.8800,1.948
38.9200,1.930
38.9600,1.988
39.0000,1.938
39.0400,1.914
39.0800,1.877
39.1200,1.801
39.1600,1.816
39.2000,1.907
39.2400,1.815
39.2800,1.826
39.3200,1.837
39.3600,1.828
39.4000,1.781
39.4400,1.799
39.4800,1.820
39.5200,1.824
39.5600,1.794
39.6000,1.764
39.6400,1.747
39.6800,1.870
39.7200,1.875
39.7600,1.826
39.8000,1.858
39.8400,1.865
39.8800,1.826
39.9200,1.838
39.9600,1.862
40.0000,1.865
40.0400,1.900
40.0800,1.894
40.1200,1.936
40.1600,1.897
40.2000,1.875
40.2400,1.906
40.2800,1.941
40.3200,1.895
40.3600,1.917
40.4000,1.958
40.4400,1.952
40.4800,1.921
40.5200,1.907
40.5600,2.008
40.6000,1.968
40.6400,1.880
40.6800,1.959
40.7200,1.878
40.7600,1.965
40.8000,1.922
40.8400,1.917
40.8800,1.925
40.9200,1.925
40.9600,2.034
41.0000,1.976
41.0400,1.896
41.0800,1.875
41.1200,1.943
41.1600,1.888
41.2000,1.854
41.2400,1.858
41.2800,1.844
41.3200,1.858
41.3600,1.641
41.4000,1.719
41.4400,1.725
41.4800,1.751
41.5200,1.788
41.5600,1.694
41.6000,1.720
41.6400,1.616
41.6800,1.664
41.7200,1.513
41.7600,1.587
41.8000,1.599
41.8400,1.570
41.8800,1.645
41.9200,1.569
41.9600,1.560
42.0000,1.511
42.0400,1.520
42.0800,1.479
42.1200,1.524
42.1600,1.548
42.2000,1.464
42.2400,1.483
42.2800,1.458
42.3200,1.387
42.3600,1.381
42.4000,1.391
42.4400,1.387
42.4800,1.402
42.5200,1.355
42.5600,1.374
42.6000,1.347
42.6400,1.421
42.6800,1.438
42.7200,1.337
42.7600,1.324
42.8000,1.371
42.8400,1.298
42.8800,1.363
42.9200,1.325
42.9600,1.345
43.0000,1.257
43.0400,1.300
43.0800,1.286
43.1200,1.292
43.1600,1.354
43.2000,1.346
43.2400,1.305
43.2800,1.301
43.3200,1.257
43.3600,1.296
43.4000,1.331
43.4400,1.238
43.4800,1.353
43.5200,1.313
43.5600,1.374
43.6000,1.261
43.6400,1.266
43.6800,1.391
43.7200,1.289
43.7600,1.279
43.8000,1.283
43.8400,1.285
43.8800,1.372
43.9200,1.319
43.9600,1.410
44.0000,1.351
44.0400,1.422
44.0800,1.445
44.1200,1.449
44.1600,1.439
44.2000,1.514
44.2400,1.463
44.2800,1.495
44.3200,1.551
44.3600,1.445
44.4000,1.483
44.4400,1.445
44.4800,1.367
44.5200,1.393
44.5600,1.373
44.6000,1.318
44.6400,1.308
44.6800,1.264
44.7200,1.315
44.7600,1.235
44.8000,1.274
44.8400,1.224
44.8800,1.263
44.9200,1.212
44.9600,1.188
45.0000,1.179
45.0400,1.164
45.0800,1.181
45.1200,1.166
45.1600,1.090
45.2000,1.079
45.2400,1.092
45.2800,1.095
45.3200,1.141
45.3600,1.138
45.4000,1.047
45.4400,1.068
45.4800,1.117
45.5200,1.056
45.5600,1.060
45.6000,1.069
45.6400,1.015
45.6800,1.013
45.7200,1.038
45.7600,1.047
45.8000,1.038
45.8400,0.984
45.8800,1.032
45.9200,1.054
45.9600,1.018
46.0000,1.029
46.0400,1.025
46.0800,1.057
46.1200,1.023
46.1600,1.069
46.2000,0.978
46.2400,0.986
46.2800,1.051
46.3200,1.013
46.3600,0.988
46.4000,1.019
46.4400,0.992
46.4800,0.992
46.5200,1.012
46.5600,1.089
46.6000,0.999
46.6400,0.986
46.6800,0.973
46.7200,1.003
46.7600,0.957
46.8000,0.990
46.8400,0.994
46.8800,1.017
46.9200,1.014
46.9600,0.984
47.0000,0.991
47.0400,1.027
47.0800,0.977
47.1200,1.001
47.1600,0.980
47.2000,1.009
47.2400,0.974
47.2800,1.037
47.3200,1.012
47.3600,1.001
47.4000,1.037
47.4400,1.005
47.4800,1.087
47.5200,1.026
47.5600,1.006
47.6000,1.049
47.6400,1.050
47.6800,1.017
47.7200,1.018
47.7600,1.004
47.8000,0.989
47.8400,1.006
47.8800,0.985
47.9200,1.011
47.9600,1.010
48.0000,0.992
48.0400,0.971
48.0800,0.952
48.1200,0.916
48.1600,0.941
48.2000,0.934
48.2400,0.945
48.2800,0.898
48.3200,0.954
48.3600,0.997
48.4000,0.935
48.4400,0.892
48.4800,0.907
48.5200,0.919
48.5600,0.896
48.6000,0.949
48.6400,0.871
48.6800,0.884
48.7200,0.908
48.7600,0.897
48.8000,0.878
48.8400,0.891
48.8800,0.922
48.9200,0.838
48.9600,0.863
49.0000,0.871
49.0400,0.904
49.0800,0.840
49.1200,0.847
49.1600,0.867
49.2000,0.871
49.2400,0.882
49.2800,0.834
49.3200,0.825
49.3600,0.871
49.4000,0.837
49.4400,0.870
49.4800,0.868
49.5200,0.878
49.5600,0.842
49.6000,0.871
49.6400,0.838
49.6800,0.884
49.7200,0.899
49.7600,0.890
49.8000,0.847
49.8400,0.823
49.8800,0.909
49.9200,0.833
49.9600,0.855
50.0000,0.807
50.0400,0.833
50.0800,0.835
50.1200,0.823
50.1600,0.826
50.2000,0.841
50.2400,0.822
50.2800,0.840
50.3200,0.866
50.3600,0.868
50.4000,0.857
50.4400,0.816
50.4800,0.808
50.5200,0.800
50.5600,0.794
50.6000,0.799
50.6400,0.775
50.6800,0.854
50.7200,0.837
50.7600,0.801
50.8000,0.834
50.8400,0.823
50.8800,0.808
50.9200,0.804
50.9600,0.759
51.0000,0.810
51.0400,0.767
51.0800,0.784
51.1200,0.762
51.1600,0.830
51.2000,0.814
51.2400,0.767
51.2800,0.789
51.3200,0.762
51.3600,0.789
51.4000,0.816
51.4400,0.781
51.4800,0.790
51.5200,0.878
51.5600,0.827
51.6000,0.752
51.6400,0.758
51.6800,0.796
51.7200,0.783
51.7600,0.778
51.8000,0.742
51.8400,0.736
51.8800,0.762
51.9200,0.737
51.9600,0.756
52.0000,0.769
52.0400,0.765
52.0800,0.743
52.1200,0.756
52.1600,0.764
52.2000,0.763
52.2400,0.769
52.2800,0.718
52.3200,0.763
52.3600,0.765
52.4000,0.769
52.4400,0.746
52.4800,0.745
52.5200,0.698
52.5600,0.788
52.6000,0.802
52.6400,0.759
52.6800,0.795
52.7200,0.806
52.7600,0.786
52.8000,0.750
52.8400,0.758
52.8800,0.797
52.9200,0.725
52.9600,0.725
53.0000,0.779
53.0400,0.752
53.0800,0.730
53.1200,0.754
53.1600,0.769
53.2000,0.769
53.2400,0.736
53.2800,0.740
53.3200,0.795
53.3600,0.719
53.4000,0.741
53.4400,0.777
53.4800,0.733
53.5200,0.746
53.5600,0.719
53.6000,0.727
53.6400,0.736
53.6800,0.738
53.7200,0.723
53.7600,0.752
53.8000,0.743
53.8400,0.736
53.8800,0.709
53.9200,0.739
53.9600,0.677
54.0000,0.718
54.0400,0.740
54.0800,0.689
54.1200,0.742
54.1600,0.701
54.2000,0.737
54.2400,0.735
54.2800,0.705
54.3200,0.728
54.3600,0.760
54.4000,0.743
54.4400,0.710
54.4800,0.737
54.5200,0.717
54.5600,0.753
54.6000,0.734
54.6400,0.737
54.6800,0.735
54.7200,0.729
54.7600,0.686
54.8000,0.726
54.8400,0.723
54.8800,0.735
54.9200,0.719
54.9600,0.714
55.0000,0.663
55.0400,0.734
55.0800,0.713
55.1200,0.719
55.1600,0.721
55.2000,0.734
55.2400,0.718
55.2800,0.737
55.3200,0.736
55.3600,0.697
55.4000,0.673
55.4400,0.730
55.4800,0.760
55.5200,0.701
55.5600,0.729
55.6000,0.711
55.6400,0.721
55.6800,0.749
55.7200,0.723
55.7600,0.755
55.8000,0.721
55.8400,0.759
55.8800,0.744
55.9200,0.733
55.9600,0.781
56.0000,0.762
56.0400,0.802
56.0800,0.726
56.1200,0.740
56.1600,0.817
56.2000,0.791
56.2400,0.829
56.2800,0.826
56.3200,0.848
56.3600,0.837
56.4000,0.912
56.4400,0.864
56.4800,0.889
56.5200,0.920
56.5600,0.910
56.6000,0.954
56.6400,0.979
56.6800,0.952
56.7200,0.919
56.7600,0.848
56.8000,0.870
56.8400,0.866
56.8800,0.834
56.9200,0.852
56.9600,0.770
57.0000,0.845
57.0400,0.798
57.0800,0.758
57.1200,0.768
57.1600,0.751
57.2000,0.777
57.2400,0.742
57.2800,0.756
57.3200,0.756
57.3600,0.723
57.4000,0.756
57.4400,0.642
57.4800,0.726
57.5200,0.741
57.5600,0.694
57.6000,0.667
57.6400,0.659
57.6800,0.681
57.7200,0.710
57.7600,0.703
57.8000,0.720
57.8400,0.739
57.8800,0.691
57.9200,0.624
57.9600,0.685
58.0000,0.671
58.0400,0.681
58.0800,0.630
58.1200,0.640
58.1600,0.679
58.2000,0.691
58.2400,0.680
58.2800,0.628
58.3200,0.661
58.3600,0.638
58.4000,0.634
58.4400,0.660
58.4800,0.624
58.5200,0.622
58.5600,0.617
58.6000,0.656
58.6400,0.616
58.6800,0.612
58.7200,0.613
58.7600,0.619
58.8000,0.629
58.8400,0.633
58.8800,0.635
58.9200,0.634
58.9600,0.642
59.0000,0.615
59.0400,0.619
59.0800,0.611
59.1200,0.603
59.1600,0.652
59.2000,0.615
59.2400,0.629
59.2800,0.615
59.3200,0.611
59.3600,0.663
59.4000,0.645
59.4400,0.656
59.4800,0.579
59.5200,0.653
59.5600,0.586
59.6000,0.577
59.6400,0.591
59.6800,0.581
59.7200,0.649
59.7600,0.655
59.8000,0.642
59.8400,0.628
59.8800,0.526
59.9200,0.597
59.9600,0.609
60.0000,0.610
60.0400,0.621
60.0800,0.602
60.1200,0.593
60.1600,0.630
60.2000,0.606
60.2400,0.624
60.2800,0.636
60.3200,0.630
60.3600,0.575
60.4000,0.632
60.4400,0.600
60.4800,0.608
60.5200,0.609
60.5600,0.634
60.6000,0.572
60.6400,0.664
60.6800,0.602
60.7200,0.634
60.7600,0.559
60.8000,0.568
60.8400,0.649
60.8800,0.573
60.9200,0.581
60.9600,0.576
61.0000,0.560
61.0400,0.610
61.0800,0.624
61.1200,0.575
61.1600,0.597
61.2000,0.576
61.2400,0.620
61.2800,0.604
61.3200,0.610
61.3600,0.634
61.4000,0.645
61.4400,0.589
61.4800,0.554
61.5200,0.597
61.5600,0.642
61.6000,0.711
61.6400,0.689
61.6800,0.695
61.7200,0.573
61.7600,0.617
61.8000,0.644
61.8400,0.637
61.8800,0.596
61.9200,0.600
61.9600,0.575
62.0000,0.614
62.0400,0.667
62.0800,0.600
62.1200,0.652
62.1600,0.619
62.2000,0.635
62.2400,0.599
62.2800,0.653
62.3200,0.656
62.3600,0.628
62.4000,0.643
62.4400,0.697
62.4800,0.658
62.5200,0.690
62.5600,0.651
62.6000,0.686
62.6400,0.699
62.6800,0.724
62.7200,0.652
62.7600,0.703
62.8000,0.729
62.8400,0.719
62.8800,0.720
62.9200,0.737
62.9600,0.756
63.0000,0.637
63.0400,0.693
63.0800,0.679
63.1200,0.727
63.1600,0.692
63.2000,0.676
63.2400,0.715
63.2800,0.660
63.3200,0.669
63.3600,0.684
63.4000,0.661
63.4400,0.664
63.4800,0.654
63.5200,0.670
63.5600,0.670
63.6000,0.706
63.6400,0.696
63.6800,0.677
63.7200,0.671
63.7600,0.710
63.8000,0.661
63.8400,0.713
63.8800,0.705
63.9200,0.717
63.9600,0.708
64.0000,0.755
64.0400,0.787
64.0800,0.776
64.1200,0.741
64.1600,0.813
64.2000,0.782
64.2400,0.782
64.2800,0.893
64.3200,0.881
64.3600,0.907
64.4000,0.944
64.4400,0.929
64.4800,0.957
64.5200,0.946
64.5600,0.937
64.6000,0.929
64.6400,0.994
64.6800,0.979
64.7200,0.926
64.7600,0.947
64.8000,0.919
64.8400,0.876
64.8800,0.866
64.9200,0.810
64.9600,0.847
65.0000,0.883
65.0400,0.807
65.0800,0.821
65.1200,0.847
65.1600,0.800
65.2000,0.791
65.2400,0.785
65.2800,0.829
65.3200,0.777
65.3600,0.734
65.4000,0.813
65.4400,0.788
65.4800,0.736
65.5200,0.740
65.5600,0.756
65.6000,0.812
65.6400,0.742
65.6800,0.749
65.7200,0.772
65.7600,0.797
65.8000,0.766
65.8400,0.802
65.8800,0.801
65.9200,0.780
65.9600,0.797
66.0000,0.807
66.0400,0.831
66.0800,0.792
66.1200,0.739
66.1600,0.809
66.2000,0.826
66.2400,0.868
66.2800,0.855
66.3200,0.899
66.3600,0.794
66.4000,0.901
66.4400,0.944
66.4800,0.914
66.5200,0.963
66.5600,0.963
66.6000,0.985
66.6400,0.941
66.6800,0.970
66.7200,0.959
66.7600,0.965
66.8000,0.998
66.8400,1.027
66.8800,0.999
66.9200,1.031
66.9600,1.059
67.0000,1.056
67.0400,1.066
67.0800,1.088
67.1200,1.134
67.1600,1.091
67.2000,1.121
67.2400,1.155
67.2800,1.186
67.3200,1.150
67.3600,1.259
67.4000,1.267
67.4400,1.274
67.4800,1.316
67.5200,1.344
67.5600,1.394
67.6000,1.426
67.6400,1.462
67.6800,1.513
67.7200,1.557
67.7600,1.534
67.8000,1.640
67.8400,1.595
67.8800,1.666
67.9200,1.738
67.9600,1.674
68.0000,1.801
68.0400,1.873
68.0800,1.904
68.1200,1.966
68.1600,1.995
68.2000,1.970
68.2400,2.133
68.2800,2.235
68.3200,2.236
68.3600,2.352
68.4000,2.359
68.4400,2.551
68.4800,2.625
68.5200,2.761
68.5600,2.943
68.6000,3.278
68.6400,3.809
68.6800,4.714
68.7200,6.046
68.7600,7.061
68.8000,7.247
68.8400,7.424
68.8800,8.344
68.9200,10.879
68.9600,17.367
69.0000,37.318
69.0400,173.616
69.0800,477.052
69.1200,407.218
69.1600,115.301
69.2000,47.132
69.2400,110.798
69.2800,249.298
69.3200,200.168
69.3600,57.507
69.4000,18.471
69.4400,11.096
69.4800,8.039
69.5200,6.402
69.5600,5.493
69.6000,4.734
69.6400,4.259
69.6800,3.872
69.7200,3.486
69.7600,3.315
69.8000,2.977
69.8400,2.939
69.8800,2.690
69.9200,2.615
69.9600,2.504
70.0000,2.422
70.0400,2.280
70.0800,2.132
70.1200,2.178
70.1600,2.082
70.2000,2.036
70.2400,1.974
70.2800,1.850
70.3200,1.762
70.3600,1.790
70.4000,1.677
70.4400,1.691
70.4800,1.627
70.5200,1.539
70.5600,1.455
70.6000,1.460
70.6400,1.402
70.6800,1.357
70.7200,1.370
70.7600,1.305
70.8000,1.267
70.8400,1.254
70.8800,1.193
70.9200,1.164
70.9600,1.180
71.0000,1.135
71.0400,1.139
71.0800,1.154
71.1200,1.096
71.1600,1.048
71.2000,1.001
71.2400,1.065
71.2800,0.994
71.3200,0.975
71.3600,0.945
71.4000,0.953
71.4400,0.923
71.4800,0.927
71.5200,0.905
71.5600,0.885
71.6000,0.889
71.6400,0.851
71.6800,0.813
71.7200,0.835
71.7600,0.804
71.8000,0.759
71.8400,0.720
71.8800,0.753
71.9200,0.738
71.9600,0.754
72.0000,0.683
72.0400,0.724
72.0800,0.675
72.1200,0.700
72.1600,0.693
72.2000,0.713
72.2400,0.695
72.2800,0.668
72.3200,0.632
72.3600,0.635
72.4000,0.664
72.4400,0.627
72.4800,0.593
72.5200,0.572
72.5600,0.612
72.6000,0.615
72.6400,0.614
72.6800,0.571
72.7200,0.604
72.7600,0.571
72.8000,0.579
72.8400,0.614
72.8800,0.521
72.9200,0.573
72.9600,0.541
73.0000,0.511
73.0400,0.602
73.0800,0.536
73.1200,0.506
73.1600,0.506
73.2000,0.550
73.2400,0.488
73.2800,0.529
73.3200,0.476
73.3600,0.484
73.4000,0.484
73.4400,0.491
73.4800,0.515
73.5200,0.501
73.5600,0.516
73.6000,0.488
73.6400,0.486
73.6800,0.463
73.7200,0.493
73.7600,0.452
73.8000,0.509
73.8400,0.438
73.8800,0.491
73.9200,0.476
73.9600,0.478
74.0000,0.478
74.0400,0.504
74.0800,0.465
74.1200,0.476
74.1600,0.437
74.2000,0.451
74.2400,0.443
74.2800,0.436
74.3200,0.422
74.3600,0.423
74.4000,0.454
74.4400,0.430
74.4800,0.455
74.5200,0.422
74.5600,0.439
74.6000,0.452
74.6400,0.422
74.6800,0.418
74.7200,0.412
74.7600,0.440
74.8000,0.421
74.8400,0.425
74.8800,0.439
74.9200,0.455
74.9600,0.448
75.0000,0.441
75.0400,0.420
75.0800,0.419
75.1200,0.428
75.1600,0.426
75.2000,0.417
75.2400,0.382
75.2800,0.393
75.3200,0.425
75.3600,0.410
75.4000,0.387
75.4400,0.432
75.4800,0.426
75.5200,0.392
75.5600,0.395
75.6000,0.425
75.6400,0.437
75.6800,0.426
75.7200,0.402
75.7600,0.425
75.8000,0.415
75.8400,0.382
75.8800,0.411
75.9200,0.403
75.9600,0.415
76.0000,0.388
76.0400,0.363
76.0800,0.414
76.1200,0.456
76.1600,0.405
76.2000,0.414
76.2400,0.385
76.2800,0.424
76.3200,0.425
76.3600,0.424
76.4000,0.410
76.4400,0.451
76.4800,0.403
76.5200,0.402
76.5600,0.458
76.6000,0.447
76.6400,0.437
76.6800,0.467
76.7200,0.463
76.7600,0.485
76.8000,0.456
76.8400,0.489
76.8800,0.484
76.9200,0.521
76.9600,0.507
77.0000,0.499
77.0400,0.476
77.0800,0.512
77.1200,0.570
77.1600,0.522
77.2000,0.590
77.2400,0.606
77.2800,0.596
77.3200,0.633
77.3600,0.670
77.4000,0.700
77.4400,0.657
77.4800,0.671
77.5200,0.656
77.5600,0.633
77.6000,0.603
77.6400,0.656
77.6800,0.572
77.7200,0.595
77.7600,0.581
77.8000,0.533
77.8400,0.509
77.8800,0.563
77.9200,0.530
77.9600,0.527
78.0000,0.502
78.0400,0.483
78.0800,0.498
78.1200,0.504
78.1600,0.488
78.2000,0.486
78.2400,0.487
78.2800,0.439
78.3200,0.433
78.3600,0.435
78.4000,0.433
78.4400,0.474
78.4800,0.409
78.5200,0.436
78.5600,0.389
78.6000,0.413
78.6400,0.396
78.6800,0.394
78.7200,0.414
78.7600,0.413
78.8000,0.402
78.8400,0.373
78.8800,0.396
78.9200,0.407
78.9600,0.403
79.0000,0.383
79.0400,0.386
79.0800,0.395
79.1200,0.371
79.1600,0.393
79.2000,0.333
79.2400,0.348
79.2800,0.376
79.3200,0.378
79.3600,0.373
79.4000,0.368
79.4400,0.353
79.4800,0.368
79.5200,0.365
79.5600,0.396
79.6000,0.371
79.6400,0.405
79.6800,0.405
79.7200,0.354
79.7600,0.374
79.8000,0.348
79.8400,0.357
79.8800,0.378
79.9200,0.383
79.9600,0.373
80.0000,0.370
