theta,intensity
5.0000,6.136
5.0400,5.918
5.0800,6.005
5.1200,5.998
5.1600,5.652
5.2000,5.746
5.2400,5.761
5.2800,5.617
5.3200,5.624
5.3600,5.420
5.4000,5.420
5.4400,5.290
5.4800,5.054
5.5200,5.199
5.5600,4.993
5.6000,4.962
5.6400,4.938
5.6800,4.751
5.7200,4.693
5.7600,4.456
5.8000,4.436
5.8400,4.540
5.8800,4.371
5.9200,4.381
5.9600,4.430
6.0000,4.363
6.0400,4.496
6.0800,4.430
6.1200,4.470
6.1600,4.305
6.2000,4.325
6.2400,4.277
6.2800,4.277
6.3200,4.398
6.3600,4.316
6.4000,4.362
6.4400,4.349
6.4800,4.269
6.5200,4.352
6.5600,4.286
6.6000,4.199
6.6400,4.273
6.6800,4.255
6.7200,4.228
6.7600,4.279
6.8000,4.367
6.8400,4.239
6.8800,4.139
6.9200,4.273
6.9600,4.132
7.0000,4.144
7.0400,4.245
7.0800,4.228
7.1200,4.127
7.1600,4.135
7.2000,4.171
7.2400,4.113
7.2800,4.296
7.3200,4.187
7.3600,4.096
7.4000,4.022
7.4400,4.231
7.4800,4.119
7.5200,4.003
7.5600,3.999
7.6000,4.154
7.6400,4.090
7.6800,4.017
7.7200,4.072
7.7600,3.957
7.8000,4.022
7.8400,4.228
7.8800,3.981
7.9200,3.963
7.9600,4.037
8.0000,4.094
8.0400,4.026
8.0800,4.022
8.1200,4.081
8.1600,4.078
8.2000,4.005
8.2400,4.107
8.2800,3.964
8.3200,4.015
8.3600,3.885
8.4000,3.973
8.4400,4.029
8.4800,4.053
8.5200,4.055
8.5600,3.978
8.6000,3.947
8.6400,3.892
8.6800,3.988
8.7200,3.894
8.7600,4.031
8.8000,3.958
8.8400,3.925
8.8800,3.787
8.9200,3.852
8.9600,3.736
9.0000,3.939
9.0400,3.854
9.0800,3.825
9.1200,3.967
9.1600,3.960
9.2000,3.921
9.2400,3.824
9.2800,3.829
9.3200,3.911
9.3600,3.939
9.4000,3.828
9.4400,3.851
9.4800,3.804
9.5200,3.851
9.5600,3.814
9.6000,3.785
9.6400,3.838
9.6800,3.784
9.7200,3.817
9.7600,3.897
9.8000,3.887
9.8400,3.711
9.8800,3.951
9.9200,3.762
9.9600,3.764
10.0000,3.784
10.0400,3.641
10.0800,3.828
10.1200,3.793
10.1600,3.809
10.2000,3.755
10.2400,3.727
10.2800,3.776
10.3200,3.772
10.3600,3.758
10.4000,3.783
10.4400,3.736
10.4800,3.669
10.5200,3.743
10.5600,3.671
10.6000,3.744
10.6400,3.666
10.6800,3.730
10.7200,3.626
10.7600,3.783
10.8000,3.492
10.8400,3.646
10.8800,3.776
10.9200,3.685
10.9600,3.765
11.0000,3.628
11.0400,3.778
11.0800,3.759
11.1200,3.833
11.1600,3.630
11.2000,3.615
11.2400,3.567
11.2800,3.550
11.3200,3.595
11.3600,3.658
11.4000,3.599
11.4400,3.681
11.4800,3.559
11.5200,3.655
11.5600,3.569
11.6000,3.651
11.6400,3.616
11.6800,3.464
11.7200,3.652
11.7600,3.653
11.8000,3.575
11.8400,3.683
11.8800,3.494
11.9200,3.673
11.9600,3.612
12.0000,3.658
12.0400,3.504
12.0800,3.518
12.1200,3.675
12.1600,3.590
12.2000,3.555
12.2400,3.454
12.2800,3.517
12.3200,3.638
12.3600,3.544
12.4000,3.504
12.4400,3.626
12.4800,3.433
12.5200,3.503
12.5600,3.651
12.6000,3.492
12.6400,3.509
12.6800,3.535
12.7200,3.516
12.7600,3.430
12.8000,3.518
12.8400,3.431
12.8800,3.574
12.9200,3.387
12.9600,3.605
13.0000,3.555
13.0400,3.426
13.0800,3.496
13.1200,3.404
13.1600,3.446
13.2000,3.456
13.2400,3.388
13.2800,3.377
13.3200,3.489
13.3600,3.438
13.4000,3.415
13.4400,3.433
13.4800,3.299
13.5200,3.381
13.5600,3.416
13.6000,3.411
13.6400,3.397
13.6800,3.406
13.7200,3.419
13.7600,3.405
13.8000,3.398
13.8400,3.320
13.8800,3.431
13.9200,3.416
13.9600,3.464
14.0000,3.376
14.0400,3.382
14.0800,3.434
14.1200,3.285
14.1600,3.201
14.2000,3.382
14.2400,3.362
14.2800,3.384
14.3200,3.348
14.3600,3.246
14.4000,3.304
14.4400,3.414
14.4800,3.375
14.5200,3.371
14.5600,3.338
14.6000,3.374
14.6400,3.295
14.6800,3.275
14.7200,3.287
14.7600,3.240
14.8000,3.318
14.8400,3.256
14.8800,3.224
14.9200,3.314
14.9600,3.320
15.0000,3.235
15.0400,3.269
15.0800,3.317
15.1200,3.258
15.1600,3.221
15.2000,3.233
15.2400,3.248
15.2800,3.246
15.3200,3.196
15.3600,3.215
15.4000,3.241
15.4400,3.149
15.4800,3.202
15.5200,3.229
15.5600,3.252
15.6000,3.426
15.6400,3.172
15.6800,3.154
15.7200,3.326
15.7600,3.330
15.8000,3.232
15.8400,3.156
15.8800,3.238
15.9200,3.353
15.9600,3.232
16.0000,3.155
16.0400,3.197
16.0800,3.064
16.1200,3.149
16.1600,3.206
16.2000,3.202
16.2400,3.226
16.2800,3.194
16.3200,3.101
16.3600,3.101
16.4000,3.097
16.4400,3.082
16.4800,3.070
16.5200,3.092
16.5600,3.019
16.6000,3.082
16.6400,3.221
16.6800,3.102
16.7200,3.134
16.7600,3.078
16.8000,3.020
16.8400,3.119
16.8800,3.047
16.9200,3.015
16.9600,3.065
17.0000,3.000
17.0400,3.057
17.0800,3.074
17.1200,3.092
17.1600,3.089
17.2000,3.177
17.2400,3.019
17.2800,3.075
17.3200,3.114
17.3600,3.016
17.4000,3.127
17.4400,2.955
17.4800,3.097
17.5200,3.039
17.5600,3.129
17.6000,2.986
17.6400,2.952
17.6800,2.907
17.7200,3.064
17.7600,3.067
17.8000,2.994
17.8400,2.883
17.8800,3.015
17.9200,2.950
17.9600,2.935
18.0000,3.005
18.0400,2.886
18.0800,3.062
18.1200,2.958
18.1600,2.934
18.2000,2.998
18.2400,2.885
18.2800,2.927
18.3200,2.987
18.3600,2.884
18.4000,2.993
18.4400,2.871
18.4800,2.995
18.5200,2.958
18.5600,2.860
18.6000,2.880
18.6400,2.985
18.6800,2.897
18.7200,2.818
18.7600,2.828
18.8000,3.020
18.8400,3.036
18.8800,2.924
18.9200,2.922
18.9600,2.766
19.0000,2.813
19.0400,2.734
19.0800,2.852
19.1200,2.835
19.1600,2.886
19.2000,2.923
19.2400,2.862
19.2800,2.671
19.3200,2.857
19.3600,2.834
19.4000,2.923
19.4400,2.819
19.4800,2.795
19.5200,2.901
19.5600,2.783
19.6000,2.773
19.6400,2.862
19.6800,2.845
19.7200,2.940
19.7600,2.871
19.8000,2.757
19.8400,2.810
19.8800,2.870
19.9200,2.851
19.9600,2.821
20.0000,2.792
20.0400,2.790
20.0800,2.796
20.1200,2.646
20.1600,2.763
20.2000,2.778
20.2400,2.793
20.2800,2.695
20.3200,2.832
20.3600,2.784
20.4000,2.864
20.4400,2.803
20.4800,2.764
20.5200,2.791
20.5600,2.810
20.6000,2.733
20.6400,2.760
20.6800,2.771
20.7200,2.737
20.7600,2.797
20.8000,2.814
20.8400,2.768
20.8800,2.870
20.9200,2.852
20.9600,2.831
21.0000,2.919
21.0400,2.830
21.0800,2.747
21.1200,2.774
21.1600,2.950
21.2000,2.923
21.2400,2.890
21.2800,2.916
21.3200,2.920
21.3600,2.983
21.4000,3.113
21.4400,3.057
21.4800,3.065
21.5200,3.022
21.5600,2.955
21.6000,2.929
21.6400,2.959
21.6800,2.778
21.7200,2.890
21.7600,2.770
21.8000,2.849
21.8400,2.775
21.8800,2.818
21.9200,2.740
21.9600,2.663
22.0000,2.589
22.0400,2.700
22.0800,2.688
22.1200,2.604
22.1600,2.627
22.2000,2.684
22.2400,2.551
22.2800,2.614
22.3200,2.513
22.3600,2.701
22.4000,2.693
22.4400,2.515
22.4800,2.622
22.5200,2.659
22.5600,2.460
22.6000,2.454
22.6400,2.509
22.6800,2.558
22.7200,2.540
22.7600,2.542
22.8000,2.662
22.8400,2.565
22.8800,2.520
22.9200,2.482
22.9600,2.594
23.0000,2.587
23.0400,2.544
23.0800,2.533
23.1200,2.430
23.1600,2.409
23.2000,2.430
23.2400,2.462
23.2800,2.467
23.3200,2.479
23.3600,2.508
23.4000,2.469
23.4400,2.503
23.4800,2.432
23.5200,2.485
23.5600,2.365
23.6000,2.447
23.6400,2.340
23.6800,2.380
23.7200,2.471
23.7600,2.560
23.8000,2.490
23.8400,2.394
23.8800,2.304
23.9200,2.371
23.9600,2.494
24.0000,2.413
24.0400,2.415
24.0800,2.395
24.1200,2.432
24.1600,2.349
24.2000,2.426
24.2400,2.456
24.2800,2.480
24.3200,2.418
24.3600,2.407
24.4000,2.395
24.4400,2.428
24.4800,2.367
24.5200,2.260
24.5600,2.419
24.6000,2.362
24.6400,2.325
24.6800,2.320
24.7200,2.410
24.7600,2.418
24.8000,2.322
24.8400,2.353
24.8800,2.353
24.9200,2.403
24.9600,2.357
25.0000,2.294
25.0400,2.271
25.0800,2.277
25.1200,2.388
25.1600,2.268
25.2000,2.289
25.2400,2.210
25.2800,2.283
25.3200,2.266
25.3600,2.293
25.4000,2.257
25.4400,2.313
25.4800,2.221
25.5200,2.321
25.5600,2.314
25.6000,2.229
25.6400,2.155
25.6800,2.210
25.7200,2.174
25.7600,2.207
25.8000,2.211
25.8400,2.221
25.8800,2.206
25.9200,2.180
25.9600,2.269
26.0000,2.170
26.0400,2.269
26.0800,2.314
26.1200,2.303
26.1600,2.242
26.2000,2.231
26.2400,2.172
26.2800,2.208
26.3200,2.197
26.3600,2.149
26.4000,2.177
26.4400,2.142
26.4800,2.270
26.5200,2.225
26.5600,2.227
26.6000,2.163
26.6400,2.150
26.6800,2.138
26.7200,2.182
26.7600,2.168
26.8000,2.195
26.8400,2.165
26.8800,2.236
26.9200,2.197
26.9600,2.199
27.0000,2.085
27.0400,2.235
27.0800,2.182
27.1200,2.106
27.1600,2.140
27.2000,2.156
27.2400,2.174
27.2800,2.186
27.3200,2.131
27.3600,2.165
27.4000,2.029
27.4400,2.156
27.4800,2.085
27.5200,2.186
27.5600,2.123
27.6000,2.149
27.6400,2.132
27.6800,2.105
27.7200,2.170
27.7600,2.222
27.8000,2.099
27.8400,2.143
27.8800,2.101
27.9200,2.066
27.9600,2.056
28.0000,2.034
28.0400,2.180
28.0800,2.088
28.1200,2.075
28.1600,2.117
28.2000,2.100
28.2400,2.079
28.2800,2.049
28.3200,2.084
28.3600,2.088
28.4000,2.122
28.4400,2.080
28.4800,2.138
28.5200,2.082
28.5600,2.029
28.6000,2.086
28.6400,2.114
28.6800,2.046
28.7200,2.188
28.7600,2.158
28.8000,2.160
28.8400,2.109
28.8800,2.048
28.9200,2.119
28.9600,2.046
29.0000,2.048
29.0400,2.164
29.0800,2.125
29.1200,2.100
29.1600,2.124
29.2000,2.112
29.2400,2.149
29.2800,2.153
29.3200,2.097
29.3600,2.149
29.4000,2.133
29.4400,2.182
29.4800,2.210
29.5200,2.188
29.5600,2.139
29.6000,2.231
29.6400,2.277
29.6800,2.306
29.7200,2.323
29.7600,2.433
29.8000,2.359
29.8400,2.356
29.8800,2.444
29.9200,2.519
29.9600,2.631
30.0000,2.679
30.0400,2.833
30.0800,2.898
30.1200,3.009
30.1600,3.184
30.2000,3.281
30.2400,3.654
30.2800,3.790
30.3200,3.939
30.3600,4.234
30.4000,4.423
30.4400,4.672
30.4800,4.852
30.5200,4.880
30.5600,5.102
30.6000,5.148
30.6400,5.035
30.6800,4.746
30.7200,4.569
30.7600,4.253
30.8000,3.969
30.8400,3.822
30.8800,3.581
30.9200,3.400
30.9600,3.211
31.0000,2.926
31.0400,2.866
31.0800,2.745
31.1200,2.721
31.1600,2.633
31.2000,2.429
31.2400,2.444
31.2800,2.330
31.3200,2.282
31.3600,2.226
31.4000,2.106
31.4400,2.182
31.4800,2.111
31.5200,2.033
31.5600,2.094
31.6000,2.025
31.6400,2.023
31.6800,1.955
31.7200,1.951
31.7600,1.948
31.8000,1.956
31.8400,1.943
31.8800,1.905
31.9200,1.892
31.9600,1.898
32.0000,1.905
32.0400,1.860
32.0800,1.858
32.1200,1.806
32.1600,1.872
32.2000,1.813
32.2400,1.839
32.2800,1.834
32.3200,1.827
32.3600,1.823
32.4000,1.806
32.4400,1.769
32.4800,1.780
32.5200,1.810
32.5600,1.726
32.6000,1.787
32.6400,1.813
32.6800,1.813
32.7200,1.820
32.7600,1.770
32.8000,1.875
32.8400,1.807
32.8800,1.811
32.9200,1.754
32.9600,1.790
33.0000,1.762
33.0400,1.784
33.0800,1.783
33.1200,1.784
33.1600,1.766
33.2000,1.703
33.2400,1.669
33.2800,1.793
33.3200,1.689
33.3600,1.716
33.4000,1.698
33.4400,1.686
33.4800,1.739
33.5200,1.727
33.5600,1.664
33.6000,1.723
33.6400,1.719
33.6800,1.617
33.7200,1.717
33.7600,1.712
33.8000,1.666
33.8400,1.693
33.8800,1.748
33.9200,1.604
33.9600,1.682
34.0000,1.725
34.0400,1.721
34.0800,1.658
34.1200,1.660
34.1600,1.631
34.2000,1.613
34.2400,1.670
34.2800,1.689
34.3200,1.726
34.3600,1.671
34.4000,1.661
34.4400,1.750
34.4800,1.740
34.5200,1.708
34.5600,1.715
34.6000,1.749
34.6400,1.778
34.6800,1.720
34.7200,1.723
34.7600,1.779
34.8000,1.873
34.8400,1.787
34.8800,1.863
34.9200,1.834
34.9600,1.840
35.0000,1.955
35.0400,1.965
35.0800,2.090
35.1200,2.020
35.1600,2.139
35.2000,2.134
35.2400,2.267
35.2800,2.390
35.3200,2.299
35.3600,2.388
35.4000,2.564
35.4400,2.550
35.4800,2.583
35.5200,2.601
35.5600,2.622
35.6000,2.597
35.6400,2.573
35.6800,2.680
35.7200,2.773
35.7600,2.894
35.8000,2.866
35.8400,2.977
35.8800,2.826
35.9200,2.812
35.9600,2.627
36.0000,2.498
36.0400,2.299
36.0800,2.211
36.1200,2.030
36.1600,2.016
36.2000,2.007
36.2400,1.894
36.2800,1.853
36.3200,1.830
36.3600,1.790
36.4000,1.741
36.4400,1.741
36.4800,1.741
36.5200,1.772
36.5600,1.735
36.6000,1.617
36.6400,1.682
36.6800,1.761
36.7200,1.718
36.7600,1.680
36.8000,1.693
36.8400,1.724
36.8800,1.680
36.9200,1.653
36.9600,1.746
37.0000,1.704
37.0400,1.773
37.0800,1.714
37.1200,1.700
37.1600,1.810
37.2000,1.774
37.2400,1.861
37.2800,1.863
37.3200,1.752
37.3600,1.924
37.4000,1.955
37.4400,2.037
37.4800,2.020
37.5200,2.209
37.5600,2.263
37.6000,2.345
37.6400,2.510
37.6800,2.753
37.7200,2.963
37.7600,3.417
37.8000,3.988
37.8400,4.683
37.8800,5.046
37.9200,5.675
37.9600,6.013
38.0000,6.216
38.0400,6.208
38.0800,5.707
38.1200,5.313
38.1600,4.839
38.2000,4.349
38.2400,3.943
38.2800,3.414
38.3200,3.143
38.3600,2.875
38.4000,2.680
38.4400,2.484
38.4800,2.417
38.5200,2.319
38.5600,2.255
38.6000,2.154
38.6400,1.980
38.6800,2.043
38.7200,1.926
38.7600,1.960
38.8000,1.904
38.8400,1.867
38.8800,1.908
38.9200,1.760
38.9600,1.682
39.0000,1.691
39.0400,1.725
39.0800,1.661
39.1200,1.627
39.1600,1.605
39.2000,1.721
39.2400,1.599
39.2800,1.616
39.3200,1.640
39.3600,1.591
39.4000,1.577
39.4400,1.621
39.4800,1.573
39.5200,1.575
39.5600,1.644
39.6000,1.635
39.6400,1.588
39.6800,1.623
39.7200,1.572
39.7600,1.663
39.8000,1.643
39.8400,1.612
39.8800,1.690
39.9200,1.565
39.9600,1.660
40.0000,1.636
40.0400,1.639
40.0800,1.649
40.1200,1.645
40.1600,1.812
40.2000,1.825
40.2400,1.870
40.2800,1.930
40.3200,1.915
40.3600,2.153
40.4000,2.361
40.4400,2.474
40.4800,2.749
40.5200,2.893
40.5600,3.404
40.6000,3.591
40.6400,3.957
40.6800,4.011
40.7200,4.159
40.7600,4.043
40.8000,3.864
40.8400,3.656
40.8800,3.322
40.9200,3.030
40.9600,2.847
41.0000,2.624
41.0400,2.330
41.0800,2.252
41.1200,2.085
41.1600,1.992
41.2000,1.807
41.2400,1.799
41.2800,1.757
41.3200,1.711
41.3600,1.606
41.4000,1.692
41.4400,1.633
41.4800,1.497
41.5200,1.545
41.5600,1.574
41.6000,1.540
41.6400,1.544
41.6800,1.512
41.7200,1.496
41.7600,1.486
41.8000,1.465
41.8400,1.383
41.8800,1.425
41.9200,1.439
41.9600,1.428
42.0000,1.421
42.0400,1.405
42.0800,1.407
42.1200,1.358
42.1600,1.345
42.2000,1.316
42.2400,1.312
42.2800,1.322
42.3200,1.261
42.3600,1.268
42.4000,1.296
42.4400,1.249
42.4800,1.300
42.5200,1.251
42.5600,1.250
42.6000,1.269
42.6400,1.220
42.6800,1.284
42.7200,1.220
42.7600,1.247
42.8000,1.322
42.8400,1.307
42.8800,1.264
42.9200,1.283
42.9600,1.300
43.0000,1.214
43.0400,1.277
43.0800,1.195
43.1200,1.191
43.1600,1.270
43.2000,1.333
43.2400,1.214
43.2800,1.245
43.3200,1.277
43.3600,1.258
43.4000,1.306
43.4400,1.289
43.4800,1.326
43.5200,1.350
43.5600,1.364
43.6000,1.354
43.6400,1.342
43.6800,1.426
43.7200,1.444
43.7600,1.494
43.8000,1.581
43.8400,1.464
43.8800,1.505
43.9200,1.589
43.9600,1.685
44.0000,1.761
44.0400,1.761
44.0800,1.779
44.1200,1.847
44.1600,1.798
44.2000,1.776
44.2400,1.831
44.2800,1.744
44.3200,1.832
44.3600,1.823
44.4000,1.698
44.4400,1.654
44.4800,1.559
44.5200,1.497
44.5600,1.471
44.6000,1.360
44.6400,1.354
44.6800,1.437
44.7200,1.365
44.7600,1.290
44.8000,1.265
44.8400,1.282
44.8800,1.294
44.9200,1.209
44.9600,1.238
45.0000,1.247
45.0400,1.176
45.0800,1.201
45.1200,1.197
45.1600,1.178
45.2000,1.202
45.2400,1.199
45.2800,1.209
45.3200,1.232
45.3600,1.176
45.4000,1.179
45.4400,1.196
45.4800,1.218
45.5200,1.237
45.5600,1.282
45.6000,1.228
45.6400,1.244
45.6800,1.184
45.7200,1.206
45.7600,1.138
45.8000,1.209
45.8400,1.160
45.8800,1.103
45.9200,1.159
45.9600,1.170
46.0000,1.069
46.0400,1.098
46.0800,1.089
46.1200,1.078
46.1600,1.051
46.2000,1.087
46.2400,1.056
46.2800,0.985
46.3200,1.036
46.3600,1.028
46.4000,1.015
46.4400,0.991
46.4800,0.982
46.5200,0.944
46.5600,1.006
46.6000,0.973
46.6400,0.948
46.6800,0.945
46.7200,0.948
46.7600,0.925
46.8000,0.950
46.8400,0.977
46.8800,0.969
46.9200,0.964
46.9600,0.976
47.0000,0.917
47.0400,0.931
47.0800,0.920
47.1200,0.932
47.1600,0.869
47.2000,0.916
47.2400,0.957
47.2800,0.936
47.3200,0.901
47.3600,0.889
47.4000,0.961
47.4400,0.967
47.4800,0.929
47.5200,0.925
47.5600,0.876
47.6000,0.934
47.6400,0.864
47.6800,0.888
47.7200,0.947
47.7600,0.887
47.8000,0.931
47.8400,0.895
47.8800,0.898
47.9200,0.916
47.9600,0.850
48.0000,0.859
48.0400,0.812
48.0800,0.881
48.1200,0.899
48.1600,0.895
48.2000,0.902
48.2400,0.903
48.2800,0.910
48.3200,0.905
48.3600,0.874
48.4000,0.848
48.4400,0.855
48.4800,0.892
48.5200,0.860
48.5600,0.954
48.6000,0.905
48.6400,0.868
48.6800,0.941
48.7200,0.917
48.7600,0.908
48.8000,0.896
48.8400,0.842
48.8800,0.969
48.9200,0.922
48.9600,0.942
49.0000,0.934
49.0400,0.884
49.0800,0.884
49.1200,0.878
49.1600,0.952
49.2000,0.940
49.2400,0.865
49.2800,0.925
49.3200,0.926
49.3600,0.948
49.4000,0.923
49.4400,0.854
49.4800,0.879
49.5200,0.849
49.5600,0.888
49.6000,0.853
49.6400,0.967
49.6800,0.887
49.7200,0.898
49.7600,0.883
49.8000,0.847
49.8400,0.915
49.8800,0.878
49.9200,0.927
49.9600,0.918
50.0000,0.983
50.0400,0.960
50.0800,0.879
50.1200,0.886
50.1600,0.903
50.2000,0.984
50.2400,0.976
50.2800,0.959
50.3200,0.982
50.3600,0.978
50.4000,0.969
50.4400,1.039
50.4800,1.027
50.5200,1.142
50.5600,1.110
50.6000,1.175
50.6400,1.232
50.6800,1.283
50.7200,1.244
50.7600,1.327
50.8000,1.421
50.8400,1.457
50.8800,1.495
50.9200,1.492
50.9600,1.492
51.0000,1.577
51.0400,1.496
51.0800,1.528
51.1200,1.475
51.1600,1.485
51.2000,1.346
51.2400,1.331
51.2800,1.385
51.3200,1.340
51.3600,1.192
51.4000,1.190
51.4400,1.153
51.4800,1.163
51.5200,1.114
51.5600,1.057
51.6000,0.965
51.6400,0.981
51.6800,0.972
51.7200,0.913
51.7600,0.939
51.8000,0.917
51.8400,0.907
51.8800,0.923
51.9200,0.883
51.9600,0.830
52.0000,0.838
52.0400,0.831
52.0800,0.843
52.1200,0.858
52.1600,0.838
52.2000,0.828
52.2400,0.877
52.2800,0.850
52.3200,0.829
52.3600,0.844
52.4000,0.835
52.4400,0.880
52.4800,0.864
52.5200,0.851
52.5600,0.826
52.6000,0.793
52.6400,0.792
52.6800,0.846
52.7200,0.846
52.7600,0.866
52.8000,0.896
52.8400,0.926
52.8800,0.922
52.9200,0.928
52.9600,0.943
53.0000,0.951
53.0400,0.982
53.0800,0.968
53.1200,1.005
53.1600,1.079
53.2000,1.000
53.2400,1.023
53.2800,0.946
53.3200,0.961
53.3600,0.900
53.4000,0.941
53.4400,0.942
53.4800,0.866
53.5200,0.858
53.5600,0.841
53.6000,0.777
53.6400,0.861
53.6800,0.749
53.7200,0.807
53.7600,0.682
53.8000,0.773
53.8400,0.750
53.8800,0.761
53.9200,0.833
53.9600,0.800
54.0000,0.707
54.0400,0.778
54.0800,0.770
54.1200,0.738
54.1600,0.695
54.2000,0.668
54.2400,0.719
54.2800,0.740
54.3200,0.749
54.3600,0.766
54.4000,0.667
54.4400,0.803
54.4800,0.759
54.5200,0.742
54.5600,0.687
54.6000,0.726
54.6400,0.699
54.6800,0.684
54.7200,0.724
54.7600,0.736
54.8000,0.719
54.8400,0.771
54.8800,0.693
54.9200,0.691
54.9600,0.750
55.0000,0.763
55.0400,0.737
55.0800,0.696
55.1200,0.742
55.1600,0.733
55.2000,0.733
55.2400,0.675
55.2800,0.702
55.3200,0.733
55.3600,0.761
55.4000,0.729
55.4400,0.715
55.4800,0.713
55.5200,0.778
55.5600,0.733
55.6000,0.741
55.6400,0.727
55.6800,0.740
55.7200,0.775
55.7600,0.737
55.8000,0.712
55.8400,0.730
55.8800,0.736
55.9200,0.764
55.9600,0.784
56.0000,0.795
56.0400,0.764
56.0800,0.817
56.1200,0.697
56.1600,0.716
56.2000,0.785
56.2400,0.719
56.2800,0.717
56.3200,0.727
56.3600,0.734
56.4000,0.709
56.4400,0.682
56.4800,0.643
56.5200,0.678
56.5600,0.711
56.6000,0.682
56.6400,0.670
56.6800,0.654
56.7200,0.651
56.7600,0.660
56.8000,0.653
56.8400,0.617
56.8800,0.690
56.9200,0.681
56.9600,0.662
57.0000,0.633
57.0400,0.676
57.0800,0.655
57.1200,0.621
57.1600,0.687
57.2000,0.673
57.2400,0.682
57.2800,0.684
57.3200,0.689
57.3600,0.642
57.4000,0.644
57.4400,0.681
57.4800,0.688
57.5200,0.677
57.5600,0.672
57.6000,0.666
57.6400,0.657
57.6800,0.682
57.7200,0.659
57.7600,0.661
57.8000,0.722
57.8400,0.653
57.8800,0.676
57.9200,0.650
57.9600,0.653
58.0000,0.612
58.0400,0.660
58.0800,0.648
58.1200,0.625
58.1600,0.651
58.2000,0.697
58.2400,0.617
58.2800,0.619
58.3200,0.644
58.3600,0.670
58.4000,0.597
58.4400,0.633
58.4800,0.629
58.5200,0.647
58.5600,0.641
58.6000,0.640
58.6400,0.665
58.6800,0.665
58.7200,0.619
58.7600,0.658
58.8000,0.692
58.8400,0.660
58.8800,0.725
58.9200,0.688
58.9600,0.692
59.0000,0.713
59.0400,0.665
59.0800,0.696
59.1200,0.658
59.1600,0.686
59.2000,0.719
59.2400,0.700
59.2800,0.690
59.3200,0.759
59.3600,0.713
59.4000,0.671
59.4400,0.674
59.4800,0.690
59.5200,0.670
59.5600,0.677
59.6000,0.694
59.6400,0.702
59.6800,0.707
59.7200,0.671
59.7600,0.682
59.8000,0.677
59.8400,0.692
59.8800,0.690
59.9200,0.709
59.9600,0.730
60.0000,0.712
60.0400,0.749
60.0800,0.767
60.1200,0.736
60.1600,0.753
60.2000,0.839
60.2400,0.812
60.2800,0.878
60.3200,0.859
60.3600,0.921
60.4000,0.885
60.4400,0.926
60.4800,0.962
60.5200,0.910
60.5600,0.990
60.6000,1.048
60.6400,1.024
60.6800,0.991
60.7200,1.001
60.7600,1.072
60.8000,0.988
60.8400,0.988
60.8800,0.931
60.9200,0.926
60.9600,0.973
61.0000,0.884
61.0400,0.810
61.0800,0.802
61.1200,0.774
61.1600,0.790
61.2000,0.709
61.2400,0.703
61.2800,0.729
61.3200,0.750
61.3600,0.724
61.4000,0.645
61.4400,0.621
61.4800,0.666
61.5200,0.675
61.5600,0.667
61.6000,0.715
61.6400,0.782
61.6800,0.747
61.7200,0.739
61.7600,0.655
61.8000,0.634
61.8400,0.687
61.8800,0.702
61.9200,0.639
61.9600,0.665
62.0000,0.651
62.0400,0.666
62.0800,0.688
62.1200,0.644
62.1600,0.682
62.2000,0.697
62.2400,0.674
62.2800,0.659
62.3200,0.589
62.3600,0.671
62.4000,0.653
62.4400,0.660
62.4800,0.671
62.5200,0.650
62.5600,0.666
62.6000,0.604
62.6400,0.645
62.6800,0.595
62.7200,0.648
62.7600,0.667
62.8000,0.623
62.8400,0.615
62.8800,0.567
62.9200,0.621
62.9600,0.596
63.0000,0.609
63.0400,0.639
63.0800,0.620
63.1200,0.623
63.1600,0.632
63.2000,0.610
63.2400,0.637
63.2800,0.643
63.3200,0.676
63.3600,0.668
63.4000,0.613
63.4400,0.643
63.4800,0.667
63.5200,0.716
63.5600,0.666
63.6000,0.718
63.6400,0.730
63.6800,0.722
63.7200,0.781
63.7600,0.756
63.8000,0.749
63.8400,0.814
63.8800,0.792
63.9200,0.771
63.9600,0.874
64.0000,0.871
64.0400,0.952
64.0800,0.986
64.1200,0.985
64.1600,1.088
64.2000,1.174
64.2400,1.195
64.2800,1.212
64.3200,1.313
64.3600,1.345
64.4000,1.322
64.4400,1.251
64.4800,1.290
64.5200,1.258
64.5600,1.163
64.6000,1.135
64.6400,1.113
64.6800,1.083
64.7200,0.987
64.7600,0.917
64.8000,0.896
64.8400,0.846
64.8800,0.830
64.9200,0.854
64.9600,0.837
65.0000,0.777
65.0400,0.716
65.0800,0.726
65.1200,0.741
65.1600,0.719
65.2000,0.747
65.2400,0.722
65.2800,0.689
65.3200,0.714
65.3600,0.685
65.4000,0.700
65.4400,0.747
65.4800,0.722
65.5200,0.677
65.5600,0.696
65.6000,0.613
65.6400,0.642
65.6800,0.699
65.7200,0.678
65.7600,0.685
65.8000,0.699
65.8400,0.703
65.8800,0.693
65.9200,0.720
65.9600,0.717
66.0000,0.680
66.0400,0.689
66.0800,0.698
66.1200,0.731
66.1600,0.744
66.2000,0.747
66.2400,0.739
66.2800,0.730
66.3200,0.741
66.3600,0.743
66.4000,0.781
66.4400,0.748
66.4800,0.799
66.5200,0.780
66.5600,0.762
66.6000,0.743
66.6400,0.772
66.6800,0.846
66.7200,0.805
66.7600,0.843
66.8000,0.810
66.8400,0.887
66.8800,0.868
66.9200,0.886
66.9600,0.873
67.0000,0.918
67.0400,0.886
67.0800,0.924
67.1200,0.945
67.1600,0.965
67.2000,1.021
67.2400,1.006
67.2800,0.965
67.3200,0.965
67.3600,1.024
67.4000,1.086
67.4400,1.070
67.4800,1.104
67.5200,1.073
67.5600,1.055
67.6000,1.185
67.6400,1.272
67.6800,1.196
67.7200,1.244
67.7600,1.273
67.8000,1.339
67.8400,1.339
67.8800,1.354
67.9200,1.294
67.9600,1.340
68.0000,1.425
68.0400,1.395
68.0800,1.508
68.1200,1.570
68.1600,1.609
68.2000,1.584
68.2400,1.714
68.2800,1.760
68.3200,1.887
68.3600,1.807
68.4000,1.946
68.4400,2.023
68.4800,2.024
68.5200,2.180
68.5600,2.336
68.6000,2.491
68.6400,2.778
68.6800,3.326
68.7200,4.067
68.7600,5.292
68.8000,6.007
68.8400,6.400
68.8800,6.514
68.9200,7.749
68.9600,10.813
69.0000,17.840
69.0400,42.956
69.0800,205.551
69.1200,413.866
69.1600,270.741
69.2000,70.303
69.2400,43.512
69.2800,122.375
69.3200,213.632
69.3600,132.969
69.4000,34.767
69.4400,13.603
69.4800,8.569
69.5200,6.401
69.5600,5.205
69.6000,4.359
69.6400,3.900
69.6800,3.471
69.7200,3.116
69.7600,2.943
69.8000,2.672
69.8400,2.526
69.8800,2.366
69.9200,2.254
69.9600,2.108
70.0000,2.101
70.0400,2.127
70.0800,2.050
70.1200,1.913
70.1600,1.924
70.2000,1.919
70.2400,1.905
70.2800,1.742
70.3200,1.715
70.3600,1.688
70.4000,1.741
70.4400,1.629
70.4800,1.583
70.5200,1.485
70.5600,1.531
70.6000,1.494
70.6400,1.449
70.6800,1.312
70.7200,1.254
70.7600,1.251
70.8000,1.152
70.8400,1.204
70.8800,1.125
70.9200,1.103
70.9600,1.058
71.0000,1.070
71.0400,1.005
71.0800,0.946
71.1200,0.929
71.1600,0.919
71.2000,0.858
71.2400,0.836
71.2800,0.867
71.3200,0.822
71.3600,0.908
71.4000,0.894
71.4400,0.842
71.4800,0.815
71.5200,0.786
71.5600,0.780
71.6000,0.756
71.6400,0.710
71.6800,0.703
71.7200,0.708
71.7600,0.715
71.8000,0.716
71.8400,0.736
71.8800,0.708
71.9200,0.690
71.9600,0.647
72.0000,0.618
72.0400,0.583
72.0800,0.657
72.1200,0.630
72.1600,0.604
72.2000,0.590
72.2400,0.610
72.2800,0.562
72.3200,0.577
72.3600,0.569
72.4000,0.595
72.4400,0.545
72.4800,0.610
72.5200,0.617
72.5600,0.535
72.6000,0.540
72.6400,0.526
72.6800,0.558
72.7200,0.534
72.7600,0.501
72.8000,0.501
72.8400,0.529
72.8800,0.516
72.9200,0.516
72.9600,0.558
73.0000,0.513
73.0400,0.502
73.0800,0.486
73.1200,0.465
73.1600,0.518
73.2000,0.471
73.2400,0.477
73.2800,0.474
73.3200,0.502
73.3600,0.486
73.4000,0.527
73.4400,0.492
73.4800,0.479
73.5200,0.498
73.5600,0.480
73.6000,0.482
73.6400,0.484
73.6800,0.445
73.7200,0.465
73.7600,0.430
73.8000,0.485
73.8400,0.476
73.8800,0.447
73.9200,0.480
73.9600,0.447
74.0000,0.464
74.0400,0.416
74.0800,0.455
74.1200,0.440
74.1600,0.418
74.2000,0.463
74.2400,0.447
74.2800,0.449
74.3200,0.480
74.3600,0.470
74.4000,0.444
74.4400,0.401
74.4800,0.414
74.5200,0.449
74.5600,0.459
74.6000,0.421
74.6400,0.462
74.6800,0.409
74.7200,0.447
74.7600,0.453
74.8000,0.455
74.8400,0.455
74.8800,0.463
74.9200,0.493
74.9600,0.452
75.0000,0.433
75.0400,0.452
75.0800,0.448
75.1200,0.425
75.1600,0.451
75.2000,0.451
75.2400,0.470
75.2800,0.441
75.3200,0.425
75.3600,0.476
75.4000,0.474
75.4400,0.419
75.4800,0.423
75.5200,0.458
75.5600,0.449
75.6000,0.445
75.6400,0.421
75.6800,0.434
75.7200,0.404
75.7600,0.482
75.8000,0.427
75.8400,0.439
75.8800,0.450
75.9200,0.499
75.9600,0.424
76.0000,0.478
76.0400,0.432
76.0800,0.493
76.1200,0.464
76.1600,0.478
76.2000,0.459
76.2400,0.444
76.2800,0.449
76.3200,0.449
76.3600,0.512
76.4000,0.479
76.4400,0.496
76.4800,0.480
76.5200,0.495
76.5600,0.486
76.6000,0.504
76.6400,0.500
76.6800,0.555
76.7200,0.515
76.7600,0.574
76.8000,0.545
76.8400,0.583
76.8800,0.628
76.9200,0.733
76.9600,0.769
77.0000,0.738
77.0400,0.794
77.0800,0.927
77.1200,0.897
77.1600,0.960
77.2000,0.951
77.2400,0.973
77.2800,0.938
77.3200,0.954
77.3600,0.938
77.4000,0.895
77.4400,0.890
77.4800,0.899
77.5200,0.839
77.5600,0.786
77.6000,0.776
77.6400,0.724
77.6800,0.706
77.7200,0.644
77.7600,0.649
77.8000,0.588
77.8400,0.601
77.8800,0.517
77.9200,0.538
77.9600,0.490
78.0000,0.534
78.0400,0.466
78.0800,0.444
78.1200,0.500
78.1600,0.462
78.2000,0.426
78.2400,0.485
78.2800,0.470
78.3200,0.409
78.3600,0.412
78.4000,0.403
78.4400,0.417
78.4800,0.425
78.5200,0.379
78.5600,0.443
78.6000,0.426
78.6400,0.417
78.6800,0.451
78.7200,0.447
78.7600,0.424
78.8000,0.459
78.8400,0.457
78.8800,0.441
78.9200,0.475
78.9600,0.497
79.0000,0.505
79.0400,0.485
79.0800,0.502
79.1200,0.470
79.1600,0.459
79.2000,0.485
79.2400,0.506
79.2800,0.511
79.3200,0.460
79.3600,0.433
79.4000,0.465
79.4400,0.441
79.4800,0.391
79.5200,0.399
79.5600,0.416
79.6000,0.393
79.6400,0.403
79.6800,0.375
79.7200,0.390
79.7600,0.396
79.8000,0.337
79.8400,0.381
79.8800,0.373
79.9200,0.336
79.9600,0.356
80.0000,0.332
