theta,intensity
5.0000,6.535
5.0400,6.409
5.0800,6.564
5.1200,6.422
5.1600,6.312
5.2000,6.328
5.2400,6.174
5.2800,6.186
5.3200,6.105
5.3600,6.015
5.4000,6.008
5.4400,5.846
5.4800,5.782
5.5200,5.781
5.5600,5.677
5.6000,5.579
5.6400,5.450
5.6800,5.369
5.7200,5.389
5.7600,5.299
5.8000,5.223
5.8400,5.097
5.8800,4.947
5.9200,4.891
5.9600,4.986
6.0000,4.786
6.0400,4.732
6.0800,4.706
6.1200,4.538
6.1600,4.463
6.2000,4.413
6.2400,4.470
6.2800,4.434
6.3200,4.448
6.3600,4.378
6.4000,4.347
6.4400,4.339
6.4800,4.351
6.5200,4.432
6.5600,4.293
6.6000,4.139
6.6400,4.261
6.6800,4.211
6.7200,4.261
6.7600,4.354
6.8000,4.175
6.8400,4.106
6.8800,4.166
6.9200,4.252
6.9600,4.319
7.0000,4.186
7.0400,4.073
7.0800,4.150
7.1200,4.145
7.1600,4.121
7.2000,4.099
7.2400,4.103
7.2800,4.100
7.3200,4.096
7.3600,4.255
7.4000,4.141
7.4400,4.002
7.4800,4.129
7.5200,3.953
7.5600,4.137
7.6000,4.019
7.6400,4.079
7.6800,4.133
7.7200,4.202
7.7600,4.036
7.8000,3.963
7.8400,3.991
7.8800,4.009
7.9200,4.013
7.9600,4.044
8.0000,4.026
8.0400,4.012
8.0800,3.928
8.1200,4.012
8.1600,3.956
8.2000,3.990
8.2400,3.903
8.2800,3.876
8.3200,3.960
8.3600,3.945
8.4000,4.004
8.4400,4.007
8.4800,3.957
8.5200,3.838
8.5600,3.949
8.6000,3.951
8.6400,3.936
8.6800,3.847
8.7200,3.871
8.7600,3.919
8.8000,3.860
8.8400,3.846
8.8800,3.807
8.9200,3.833
8.9600,3.944
9.0000,3.948
9.0400,3.922
9.0800,3.928
9.1200,3.950
9.1600,3.727
9.2000,3.828
9.2400,3.892
9.2800,3.786
9.3200,3.816
9.3600,3.871
9.4000,3.821
9.4400,3.858
9.4800,3.822
9.5200,3.876
9.5600,3.868
9.6000,3.908
9.6400,3.750
9.6800,3.879
9.7200,3.788
9.7600,3.665
9.8000,3.803
9.8400,3.701
9.8800,3.752
9.9200,3.774
9.9600,3.836
10.0000,3.761
10.0400,3.774
10.0800,3.807
10.1200,3.685
10.1600,3.667
10.2000,3.699
10.2400,3.660
10.2800,3.782
10.3200,3.726
10.3600,3.680
10.4000,3.692
10.4400,3.814
10.4800,3.686
10.5200,3.786
10.5600,3.716
10.6000,3.748
10.6400,3.642
10.6800,3.701
10.7200,3.617
10.7600,3.715
10.8000,3.812
10.8400,3.676
10.8800,3.579
10.9200,3.681
10.9600,3.708
11.0000,3.729
11.0400,3.669
11.0800,3.598
11.1200,3.673
11.1600,3.651
11.2000,3.547
11.2400,3.654
11.2800,3.589
11.3200,3.787
11.3600,3.556
11.4000,3.490
11.4400,3.583
11.4800,3.618
11.5200,3.564
11.5600,3.549
11.6000,3.695
11.6400,3.627
11.6800,3.519
11.7200,3.571
11.7600,3.587
11.8000,3.544
11.8400,3.612
11.8800,3.432
11.9200,3.586
11.9600,3.513
12.0000,3.522
12.0400,3.574
12.0800,3.509
12.1200,3.524
12.1600,3.556
12.2000,3.542
12.2400,3.548
12.2800,3.450
12.3200,3.512
12.3600,3.559
12.4000,3.465
12.4400,3.509
12.4800,3.448
12.5200,3.537
12.5600,3.441
12.6000,3.460
12.6400,3.454
12.6800,3.489
12.7200,3.510
12.7600,3.405
12.8000,3.362
12.8400,3.381
12.8800,3.474
12.9200,3.366
12.9600,3.401
13.0000,3.427
13.0400,3.452
13.0800,3.446
13.1200,3.438
13.1600,3.413
13.2000,3.419
13.2400,3.288
13.2800,3.392
13.3200,3.357
13.3600,3.414
13.4000,3.371
13.4400,3.389
13.4800,3.358
13.5200,3.328
13.5600,3.330
13.6000,3.395
13.6400,3.396
13.6800,3.298
13.7200,3.318
13.7600,3.361
13.8000,3.403
13.8400,3.189
13.8800,3.348
13.9200,3.382
13.9600,3.261
14.0000,3.343
14.0400,3.354
14.0800,3.318
14.1200,3.416
14.1600,3.317
14.2000,3.340
14.2400,3.270
14.2800,3.380
14.3200,3.369
14.3600,3.293
14.4000,3.285
14.4400,3.307
14.4800,3.280
14.5200,3.275
14.5600,3.205
14.6000,3.242
14.6400,3.220
14.6800,3.315
14.7200,3.263
14.7600,3.176
14.8000,3.265
14.8400,3.238
14.8800,3.245
14.9200,3.231
14.9600,3.317
15.0000,3.237
15.0400,3.230
15.0800,3.257
15.1200,3.173
15.1600,3.176
15.2000,3.177
15.2400,3.278
15.2800,3.226
15.3200,3.241
15.3600,3.204
15.4000,3.285
15.4400,3.169
15.4800,3.142
15.5200,3.268
15.5600,3.174
15.6000,3.224
15.6400,3.270
15.6800,3.169
15.7200,3.146
15.7600,3.217
15.8000,3.133
15.8400,3.269
15.8800,3.217
15.9200,3.104
15.9600,3.126
16.0000,3.094
16.0400,3.148
16.0800,3.182
16.1200,3.093
16.1600,3.062
16.2000,3.075
16.2400,3.166
16.2800,3.112
16.3200,3.048
16.3600,3.125
16.4000,3.104
16.4400,3.012
16.4800,3.081
16.5200,3.007
16.5600,3.013
16.6000,3.135
16.6400,3.015
16.6800,3.093
16.7200,3.061
16.7600,3.163
16.8000,3.086
16.8400,3.009
16.8800,3.043
16.9200,3.105
16.9600,3.067
17.0000,3.055
17.0400,3.094
17.0800,3.115
17.1200,3.026
17.1600,2.980
17.2000,3.045
17.2400,3.116
17.2800,3.039
17.3200,2.978
17.3600,2.989
17.4000,3.024
17.4400,2.997
17.4800,3.016
17.5200,3.003
17.5600,3.094
17.6000,2.935
17.6400,2.952
17.6800,2.968
17.7200,3.076
17.7600,2.991
17.8000,3.032
17.8400,2.982
17.8800,2.901
17.9200,3.009
17.9600,2.981
18.0000,2.977
18.0400,2.854
18.0800,2.930
18.1200,2.952
18.1600,2.903
18.2000,2.904
18.2400,2.889
18.2800,2.982
18.3200,2.983
18.3600,2.958
18.4000,2.866
18.4400,2.890
18.4800,2.943
18.5200,2.938
18.5600,2.780
18.6000,2.839
18.6400,2.941
18.6800,2.877
18.7200,2.834
18.7600,2.906
18.8000,2.863
18.8400,2.859
18.8800,2.930
18.9200,2.825
18.9600,2.762
19.0000,2.765
19.0400,2.824
19.0800,2.785
19.1200,2.758
19.1600,2.816
19.2000,2.843
19.2400,2.891
19.2800,2.841
19.3200,2.887
19.3600,2.861
19.4000,2.817
19.4400,2.801
19.4800,2.860
19.5200,2.805
19.5600,2.712
19.6000,2.862
19.6400,2.777
19.6800,2.832
19.7200,2.766
19.7600,2.739
19.8000,2.737
19.8400,2.784
19.8800,2.648
19.9200,2.727
19.9600,2.721
20.0000,2.688
20.0400,2.750
20.0800,2.736
20.1200,2.781
20.1600,2.752
20.2000,2.681
20.2400,2.689
20.2800,2.698
20.3200,2.773
20.3600,2.765
20.4000,2.754
20.4400,2.720
20.4800,2.759
20.5200,2.739
20.5600,2.782
20.6000,2.750
20.6400,2.676
20.6800,2.720
20.7200,2.758
20.7600,2.662
20.8000,2.761
20.8400,2.838
20.8800,2.696
20.9200,2.766
20.9600,2.756
21.0000,2.762
21.0400,2.755
21.0800,2.708
21.1200,2.773
21.1600,2.733
21.2000,2.722
21.2400,2.811
21.2800,2.758
21.3200,2.772
21.3600,2.662
21.4000,2.796
21.4400,2.755
21.4800,2.695
21.5200,2.799
21.5600,2.756
21.6000,2.760
21.6400,2.781
21.6800,2.683
21.7200,2.780
21.7600,2.707
21.8000,2.697
21.8400,2.647
21.8800,2.674
21.9200,2.575
21.9600,2.609
22.0000,2.605
22.0400,2.623
22.0800,2.600
22.1200,2.722
22.1600,2.623
22.2000,2.565
22.2400,2.586
22.2800,2.643
22.3200,2.669
22.3600,2.537
22.4000,2.574
22.4400,2.600
22.4800,2.481
22.5200,2.547
22.5600,2.517
22.6000,2.520
22.6400,2.585
22.6800,2.488
22.7200,2.514
22.7600,2.547
22.8000,2.484
22.8400,2.585
22.8800,2.432
22.9200,2.539
22.9600,2.550
23.0000,2.518
23.0400,2.516
23.0800,2.523
23.1200,2.475
23.1600,2.457
23.2000,2.537
23.2400,2.544
23.2800,2.543
23.3200,2.537
23.3600,2.613
23.4000,2.390
23.4400,2.405
23.4800,2.457
23.5200,2.459
23.5600,2.397
23.6000,2.432
23.6400,2.506
23.6800,2.475
23.7200,2.353
23.7600,2.441
23.8000,2.426
23.8400,2.442
23.8800,2.412
23.9200,2.459
23.9600,2.380
24.0000,2.384
24.0400,2.425
24.0800,2.410
24.1200,2.312
24.1600,2.400
24.2000,2.461
24.2400,2.414
24.2800,2.371
24.3200,2.271
24.3600,2.416
24.4000,2.405
24.4400,2.389
24.4800,2.280
24.5200,2.297
24.5600,2.343
24.6000,2.377
24.6400,2.390
24.6800,2.338
24.7200,2.407
24.7600,2.277
24.8000,2.390
24.8400,2.360
24.8800,2.359
24.9200,2.337
24.9600,2.346
25.0000,2.341
25.0400,2.293
25.0800,2.418
25.1200,2.276
25.1600,2.301
25.2000,2.266
25.2400,2.365
25.2800,2.269
25.3200,2.219
25.3600,2.272
25.4000,2.355
25.4400,2.378
25.4800,2.273
25.5200,2.263
25.5600,2.265
25.6000,2.239
25.6400,2.281
25.6800,2.252
25.7200,2.343
25.7600,2.280
25.8000,2.247
25.8400,2.247
25.8800,2.305
25.9200,2.288
25.9600,2.281
26.0000,2.274
26.0400,2.211
26.0800,2.192
26.1200,2.268
26.1600,2.151
26.2000,2.175
26.2400,2.137
26.2800,2.338
26.3200,2.197
26.3600,2.251
26.4000,2.214
26.4400,2.260
26.4800,2.132
26.5200,2.119
26.5600,2.177
26.6000,2.248
26.6400,2.246
26.6800,2.180
26.7200,2.153
26.7600,2.290
26.8000,2.161
26.8400,2.194
26.8800,2.157
26.9200,2.226
26.9600,2.149
27.0000,2.122
27.0400,2.161
27.0800,2.131
27.1200,2.196
27.1600,2.100
27.2000,2.091
27.2400,2.144
27.2800,2.120
27.3200,2.144
27.3600,2.127
27.4000,2.179
27.4400,2.147
27.4800,2.234
27.5200,2.154
27.5600,2.008
27.6000,2.048
27.6400,2.159
27.6800,2.111
27.7200,2.068
27.7600,2.104
27.8000,2.059
27.8400,2.025
27.8800,2.122
27.9200,2.075
27.9600,2.146
28.0000,2.038
28.0400,2.089
28.0800,2.111
28.1200,2.208
28.1600,2.119
28.2000,2.091
28.2400,2.113
28.2800,2.006
28.3200,2.073
28.3600,2.060
28.4000,2.123
28.4400,2.070
28.4800,2.071
28.5200,2.120
28.5600,2.084
28.6000,1.983
28.6400,2.081
28.6800,2.067
28.7200,2.028
28.7600,2.048
28.8000,2.062
28.8400,2.064
28.8800,2.101
28.9200,1.987
28.9600,2.049
29.0000,2.087
29.0400,2.051
29.0800,2.049
29.1200,2.077
29.1600,2.136
29.2000,2.095
29.2400,1.986
29.2800,1.991
29.3200,1.945
29.3600,2.110
29.4000,2.059
29.4400,2.136
29.4800,2.046
29.5200,2.065
29.5600,2.056
29.6000,2.117
29.6400,2.074
29.6800,2.004
29.7200,2.096
29.7600,2.120
29.8000,2.074
29.8400,2.241
29.8800,2.193
29.9200,2.103
29.9600,2.200
30.0000,2.183
30.0400,2.341
30.0800,2.361
30.1200,2.307
30.1600,2.249
30.2000,2.367
30.2400,2.430
30.2800,2.525
30.3200,2.592
30.3600,2.538
30.4000,2.614
30.4400,2.769
30.4800,2.720
30.5200,2.743
30.5600,2.833
30.6000,2.742
30.6400,2.809
30.6800,2.742
30.7200,2.692
30.7600,2.602
30.8000,2.591
30.8400,2.542
30.8800,2.441
30.9200,2.453
30.9600,2.296
31.0000,2.321
31.0400,2.382
31.0800,2.273
31.1200,2.281
31.1600,2.179
31.2000,2.115
31.2400,2.114
31.2800,2.086
31.3200,2.121
31.3600,2.025
31.4000,1.986
31.4400,2.083
31.4800,1.949
31.5200,1.993
31.5600,1.967
31.6000,2.024
31.6400,2.015
31.6800,1.907
31.7200,1.880
31.7600,1.914
31.8000,1.892
31.8400,1.850
31.8800,1.828
31.9200,1.894
31.9600,1.815
32.0000,1.875
32.0400,1.810
32.0800,1.927
32.1200,1.849
32.1600,1.829
32.2000,1.858
32.2400,1.775
32.2800,1.881
32.3200,1.833
32.3600,1.834
32.4000,1.789
32.4400,1.852
32.4800,1.771
32.5200,1.864
32.5600,1.802
32.6000,1.758
32.6400,1.757
32.6800,1.827
32.7200,1.784
32.7600,1.774
32.8000,1.740
32.8400,1.807
32.8800,1.829
32.9200,1.816
32.9600,1.725
33.0000,1.781
33.0400,1.753
33.0800,1.817
33.1200,1.735
33.1600,1.758
33.2000,1.783
33.2400,1.764
33.2800,1.821
33.3200,1.728
33.3600,1.761
33.4000,1.795
33.4400,1.793
33.4800,1.714
33.5200,1.688
33.5600,1.730
33.6000,1.687
33.6400,1.749
33.6800,1.656
33.7200,1.715
33.7600,1.722
33.8000,1.781
33.8400,1.761
33.8800,1.745
33.9200,1.717
33.9600,1.670
34.0000,1.673
34.0400,1.704
34.0800,1.677
34.1200,1.660
34.1600,1.658
34.2000,1.629
34.2400,1.663
34.2800,1.711
34.3200,1.677
34.3600,1.670
34.4000,1.754
34.4400,1.753
34.4800,1.707
34.5200,1.722
34.5600,1.713
34.6000,1.768
34.6400,1.661
34.6800,1.680
34.7200,1.688
34.7600,1.680
34.8000,1.712
34.8400,1.767
34.8800,1.666
34.9200,1.745
34.9600,1.767
35.0000,1.757
35.0400,1.772
35.0800,1.800
35.1200,1.895
35.1600,1.805
35.2000,1.834
35.2400,1.875
35.2800,1.861
35.3200,1.807
35.3600,1.948
35.4000,1.918
35.4400,1.947
35.4800,1.965
35.5200,1.961
35.5600,1.939
35.6000,1.972
35.6400,1.979
35.6800,1.981
35.7200,2.042
35.7600,2.067
35.8000,2.032
35.8400,2.108
35.8800,2.019
35.9200,2.057
35.9600,2.069
36.0000,2.088
36.0400,2.164
36.0800,2.134
36.1200,2.122
36.1600,2.171
36.2000,2.170
36.2400,2.102
36.2800,2.079
36.3200,2.058
36.3600,2.077
36.4000,2.061
36.4400,2.080
36.4800,2.042
36.5200,2.104
36.5600,2.021
36.6000,2.061
36.6400,2.059
36.6800,2.015
36.7200,1.978
36.7600,2.017
36.8000,2.057
36.8400,2.019
36.8800,2.116
36.9200,2.012
36.9600,2.044
37.0000,2.075
37.0400,2.043
37.0800,2.148
37.1200,2.164
37.1600,2.211
37.2000,2.235
37.2400,2.226
37.2800,2.338
37.3200,2.341
37.3600,2.442
37.4000,2.602
37.4400,2.619
37.4800,2.740
37.5200,2.777
37.5600,3.034
37.6000,3.188
37.6400,3.256
37.6800,3.537
37.7200,3.835
37.7600,4.116
37.8000,4.370
37.8400,4.605
37.8800,4.918
37.9200,5.240
37.9600,5.471
38.0000,5.629
38.0400,5.848
38.0800,5.736
38.1200,5.906
38.1600,5.663
38.2000,5.547
38.2400,5.397
38.2800,4.951
38.3200,4.777
38.3600,4.457
38.4000,4.156
38.4400,4.048
38.4800,3.710
38.5200,3.563
38.5600,3.431
38.6000,3.262
38.6400,3.079
38.6800,2.891
38.7200,2.807
38.7600,2.650
38.8000,2.654
38.8400,2.521
38.8800,2.573
38.9200,2.367
38.9600,2.409
39.0000,2.367
39.0400,2.320
39.0800,2.264
39.1200,2.224
39.1600,2.201
39.2000,2.199
39.2400,2.173
39.2800,2.207
39.3200,2.212
39.3600,2.072
39.4000,2.158
39.4400,2.171
39.4800,2.103
39.5200,2.171
39.5600,2.135
39.6000,2.014
39.6400,2.102
39.6800,2.112
39.7200,2.183
39.7600,2.123
39.8000,2.205
39.8400,2.127
39.8800,2.100
39.9200,2.150
39.9600,2.186
40.0000,2.130
40.0400,2.178
40.0800,2.065
40.1200,2.215
40.1600,2.143
40.2000,2.119
40.2400,2.095
40.2800,2.128
40.3200,2.058
40.3600,2.091
40.4000,2.072
40.4400,2.172
40.4800,2.152
40.5200,2.020
40.5600,2.057
40.6000,2.100
40.6400,2.089
40.6800,2.076
40.7200,2.160
40.7600,2.045
40.8000,2.074
40.8400,2.032
40.8800,2.005
40.9200,2.002
40.9600,2.023
41.0000,1.952
41.0400,1.997
41.0800,1.893
41.1200,1.888
41.1600,1.970
41.2000,1.946
41.2400,1.925
41.2800,1.954
41.3200,1.816
41.3600,1.853
41.4000,1.899
41.4400,1.899
41.4800,1.865
41.5200,1.783
41.5600,1.799
41.6000,1.834
41.6400,1.793
41.6800,1.799
41.7200,1.747
41.7600,1.716
41.8000,1.673
41.8400,1.744
41.8800,1.644
41.9200,1.706
41.9600,1.659
42.0000,1.661
42.0400,1.643
42.0800,1.572
42.1200,1.684
42.1600,1.581
42.2000,1.651
42.2400,1.587
42.2800,1.534
42.3200,1.578
42.3600,1.520
42.4000,1.553
42.4400,1.581
42.4800,1.499
42.5200,1.538
42.5600,1.523
42.6000,1.510
42.6400,1.529
42.6800,1.485
42.7200,1.468
42.7600,1.555
42.8000,1.644
42.8400,1.518
42.8800,1.539
42.9200,1.535
42.9600,1.536
43.0000,1.495
43.0400,1.557
43.0800,1.567
43.1200,1.496
43.1600,1.518
43.2000,1.506
43.2400,1.555
43.2800,1.543
43.3200,1.601
43.3600,1.533
43.4000,1.480
43.4400,1.503
43.4800,1.557
43.5200,1.574
43.5600,1.416
43.6000,1.510
43.6400,1.443
43.6800,1.462
43.7200,1.501
43.7600,1.513
43.8000,1.476
43.8400,1.496
43.8800,1.487
43.9200,1.528
43.9600,1.461
44.0000,1.510
44.0400,1.499
44.0800,1.521
44.1200,1.524
44.1600,1.487
44.2000,1.429
44.2400,1.470
44.2800,1.549
44.3200,1.515
44.3600,1.556
44.4000,1.639
44.4400,1.528
44.4800,1.568
44.5200,1.547
44.5600,1.491
44.6000,1.588
44.6400,1.542
44.6800,1.534
44.7200,1.603
44.7600,1.614
44.8000,1.586
44.8400,1.557
44.8800,1.544
44.9200,1.593
44.9600,1.641
45.0000,1.609
45.0400,1.585
45.0800,1.535
45.1200,1.537
45.1600,1.551
45.2000,1.485
45.2400,1.439
45.2800,1.471
45.3200,1.403
45.3600,1.381
45.4000,1.383
45.4400,1.385
45.4800,1.317
45.5200,1.292
45.5600,1.302
45.6000,1.284
45.6400,1.278
45.6800,1.229
45.7200,1.258
45.7600,1.233
45.8000,1.222
45.8400,1.222
45.8800,1.274
45.9200,1.212
45.9600,1.223
46.0000,1.210
46.0400,1.176
46.0800,1.104
46.1200,1.129
46.1600,1.092
46.2000,1.125
46.2400,1.053
46.2800,1.120
46.3200,1.078
46.3600,1.053
46.4000,1.077
46.4400,1.093
46.4800,1.069
46.5200,1.062
46.5600,1.056
46.6000,1.062
46.6400,1.009
46.6800,1.073
46.7200,1.069
46.7600,1.066
46.8000,1.067
46.8400,1.037
46.8800,1.053
46.9200,1.009
46.9600,1.066
47.0000,0.962
47.0400,0.937
47.0800,0.968
47.1200,0.982
47.1600,0.926
47.2000,1.010
47.2400,0.975
47.2800,0.931
47.3200,0.965
47.3600,0.971
47.4000,0.977
47.4400,0.966
47.4800,0.989
47.5200,0.982
47.5600,0.948
47.6000,0.936
47.6400,0.976
47.6800,0.967
47.7200,0.962
47.7600,0.998
47.8000,0.948
47.8400,0.898
47.8800,0.947
47.9200,0.988
47.9600,0.927
48.0000,0.942
48.0400,0.982
48.0800,0.953
48.1200,0.923
48.1600,0.957
48.2000,0.951
48.2400,0.935
48.2800,0.925
48.3200,0.938
48.3600,0.948
48.4000,0.906
48.4400,0.945
48.4800,0.934
48.5200,0.933
48.5600,0.970
48.6000,0.949
48.6400,0.931
48.6800,0.915
48.7200,0.910
48.7600,0.933
48.8000,0.920
48.8400,0.930
48.8800,0.885
48.9200,0.927
48.9600,0.867
49.0000,0.891
49.0400,0.846
49.0800,0.914
49.1200,0.940
49.1600,0.923
49.2000,0.927
49.2400,0.909
49.2800,0.902
49.3200,0.892
49.3600,0.915
49.4000,0.935
49.4400,0.949
49.4800,0.889
49.5200,0.896
49.5600,0.917
49.6000,0.876
49.6400,0.923
49.6800,0.931
49.7200,0.918
49.7600,0.936
49.8000,0.985
49.8400,0.895
49.8800,0.855
49.9200,0.912
49.9600,0.877
50.0000,0.904
50.0400,0.907
50.0800,0.902
50.1200,0.911
50.1600,0.906
50.2000,0.896
50.2400,0.935
50.2800,0.975
50.3200,0.929
50.3600,0.890
50.4000,0.911
50.4400,0.941
50.4800,0.969
50.5200,0.942
50.5600,0.977
50.6000,0.976
50.6400,0.970
50.6800,0.921
50.7200,0.979
50.7600,0.965
50.8000,0.991
50.8400,0.929
50.8800,1.029
50.9200,1.020
50.9600,1.037
51.0000,1.016
51.0400,1.016
51.0800,1.030
51.1200,1.017
51.1600,1.006
51.2000,0.959
51.2400,0.978
51.2800,0.924
51.3200,0.964
51.3600,0.957
51.4000,0.861
51.4400,0.906
51.4800,0.886
51.5200,0.879
51.5600,0.903
51.6000,0.890
51.6400,0.908
51.6800,0.900
51.7200,0.844
51.7600,0.868
51.8000,0.839
51.8400,0.822
51.8800,0.849
51.9200,0.824
51.9600,0.825
52.0000,0.862
52.0400,0.822
52.0800,0.856
52.1200,0.745
52.1600,0.780
52.2000,0.838
52.2400,0.809
52.2800,0.782
52.3200,0.752
52.3600,0.779
52.4000,0.795
52.4400,0.802
52.4800,0.777
52.5200,0.726
52.5600,0.818
52.6000,0.822
52.6400,0.810
52.6800,0.797
52.7200,0.775
52.7600,0.756
52.8000,0.794
52.8400,0.782
52.8800,0.740
52.9200,0.802
52.9600,0.743
53.0000,0.762
53.0400,0.788
53.0800,0.758
53.1200,0.784
53.1600,0.747
53.2000,0.797
53.2400,0.770
53.2800,0.717
53.3200,0.781
53.3600,0.771
53.4000,0.772
53.4400,0.741
53.4800,0.757
53.5200,0.738
53.5600,0.764
53.6000,0.756
53.6400,0.751
53.6800,0.759
53.7200,0.756
53.7600,0.734
53.8000,0.709
53.8400,0.780
53.8800,0.730
53.9200,0.730
53.9600,0.736
54.0000,0.748
54.0400,0.765
54.0800,0.720
54.1200,0.772
54.1600,0.707
54.2000,0.720
54.2400,0.731
54.2800,0.723
54.3200,0.725
54.3600,0.718
54.4000,0.735
54.4400,0.676
54.4800,0.709
54.5200,0.745
54.5600,0.736
54.6000,0.785
54.6400,0.692
54.6800,0.698
54.7200,0.757
54.7600,0.720
54.8000,0.742
54.8400,0.713
54.8800,0.733
54.9200,0.742
54.9600,0.726
55.0000,0.713
55.0400,0.704
55.0800,0.700
55.1200,0.748
55.1600,0.661
55.2000,0.743
55.2400,0.741
55.2800,0.711
55.3200,0.721
55.3600,0.714
55.4000,0.712
55.4400,0.674
55.4800,0.735
55.5200,0.689
55.5600,0.714
55.6000,0.743
55.6400,0.694
55.6800,0.668
55.7200,0.759
55.7600,0.706
55.8000,0.713
55.8400,0.733
55.8800,0.685
55.9200,0.735
55.9600,0.685
56.0000,0.738
56.0400,0.708
56.0800,0.750
56.1200,0.705
56.1600,0.731
56.2000,0.666
56.2400,0.711
56.2800,0.708
56.3200,0.736
56.3600,0.688
56.4000,0.730
56.4400,0.685
56.4800,0.683
56.5200,0.687
56.5600,0.713
56.6000,0.672
56.6400,0.730
56.6800,0.677
56.7200,0.680
56.7600,0.672
56.8000,0.675
56.8400,0.660
56.8800,0.650
56.9200,0.691
56.9600,0.680
57.0000,0.691
57.0400,0.716
57.0800,0.648
57.1200,0.664
57.1600,0.649
57.2000,0.652
57.2400,0.684
57.2800,0.724
57.3200,0.670
57.3600,0.692
57.4000,0.691
57.4400,0.664
57.4800,0.635
57.5200,0.661
57.5600,0.633
57.6000,0.644
57.6400,0.663
57.6800,0.685
57.7200,0.661
57.7600,0.696
57.8000,0.683
57.8400,0.625
57.8800,0.660
57.9200,0.687
57.9600,0.666
58.0000,0.632
58.0400,0.687
58.0800,0.651
58.1200,0.652
58.1600,0.628
58.2000,0.667
58.2400,0.606
58.2800,0.669
58.3200,0.639
58.3600,0.606
58.4000,0.630
58.4400,0.631
58.4800,0.630
58.5200,0.634
58.5600,0.667
58.6000,0.663
58.6400,0.635
58.6800,0.658
58.7200,0.603
58.7600,0.631
58.8000,0.639
58.8400,0.630
58.8800,0.646
58.9200,0.652
58.9600,0.711
59.0000,0.650
59.0400,0.651
59.0800,0.694
59.1200,0.668
59.1600,0.637
59.2000,0.671
59.2400,0.676
59.2800,0.667
59.3200,0.670
59.3600,0.682
59.4000,0.656
59.4400,0.647
59.4800,0.606
59.5200,0.634
59.5600,0.669
59.6000,0.670
59.6400,0.626
59.6800,0.651
59.7200,0.667
59.7600,0.618
59.8000,0.646
59.8400,0.696
59.8800,0.643
59.9200,0.667
59.9600,0.648
60.0000,0.645
60.0400,0.676
60.0800,0.714
60.1200,0.638
60.1600,0.685
60.2000,0.664
60.2400,0.747
60.2800,0.668
60.3200,0.703
60.3600,0.772
60.4000,0.693
60.4400,0.717
60.4800,0.704
60.5200,0.732
60.5600,0.704
60.6000,0.698
60.6400,0.701
60.6800,0.748
60.7200,0.731
60.7600,0.677
60.8000,0.714
60.8400,0.703
60.8800,0.720
60.9200,0.650
60.9600,0.716
61.0000,0.685
61.0400,0.668
61.0800,0.702
61.1200,0.675
61.1600,0.681
61.2000,0.661
61.2400,0.675
61.2800,0.656
61.3200,0.649
61.3600,0.652
61.4000,0.675
61.4400,0.628
61.4800,0.657
61.5200,0.642
61.5600,0.667
61.6000,0.672
61.6400,0.732
61.6800,0.734
61.7200,0.643
61.7600,0.576
61.8000,0.622
61.8400,0.619
61.8800,0.603
61.9200,0.618
61.9600,0.605
62.0000,0.624
62.0400,0.608
62.0800,0.616
62.1200,0.650
62.1600,0.625
62.2000,0.637
62.2400,0.661
62.2800,0.618
62.3200,0.608
62.3600,0.635
62.4000,0.622
62.4400,0.627
62.4800,0.615
62.5200,0.634
62.5600,0.623
62.6000,0.571
62.6400,0.648
62.6800,0.633
62.7200,0.643
62.7600,0.629
62.8000,0.683
62.8400,0.630
62.8800,0.590
62.9200,0.623
62.9600,0.647
63.0000,0.653
63.0400,0.681
63.0800,0.666
63.1200,0.646
63.1600,0.641
63.2000,0.671
63.2400,0.654
63.2800,0.715
63.3200,0.716
63.3600,0.701
63.4000,0.681
63.4400,0.729
63.4800,0.738
63.5200,0.705
63.5600,0.740
63.6000,0.807
63.6400,0.801
63.6800,0.789
63.7200,0.803
63.7600,0.811
63.8000,0.845
63.8400,0.828
63.8800,0.878
63.9200,0.792
63.9600,0.917
64.0000,0.940
64.0400,0.929
64.0800,0.975
64.1200,0.969
64.1600,1.002
64.2000,0.968
64.2400,0.996
64.2800,1.020
64.3200,1.030
64.3600,1.045
64.4000,1.034
64.4400,1.036
64.4800,1.046
64.5200,1.072
64.5600,1.045
64.6000,1.011
64.6400,0.989
64.6800,0.988
64.7200,0.896
64.7600,1.034
64.8000,0.987
64.8400,0.956
64.8800,0.975
64.9200,0.912
64.9600,0.913
65.0000,0.921
65.0400,0.938
65.0800,0.913
65.1200,0.885
65.1600,0.928
65.2000,0.892
65.2400,0.856
65.2800,0.894
65.3200,0.877
65.3600,0.853
65.4000,0.862
65.4400,0.825
65.4800,0.856
65.5200,0.870
65.5600,0.829
65.6000,0.808
65.6400,0.830
65.6800,0.866
65.7200,0.829
65.7600,0.823
65.8000,0.833
65.8400,0.843
65.8800,0.782
65.9200,0.829
65.9600,0.803
66.0000,0.818
66.0400,0.783
66.0800,0.809
66.1200,0.788
66.1600,0.784
66.2000,0.813
66.2400,0.874
66.2800,0.837
66.3200,0.848
66.3600,0.792
66.4000,0.899
66.4400,0.866
66.4800,0.883
66.5200,0.841
66.5600,0.867
66.6000,0.885
66.6400,0.897
66.6800,0.892
66.7200,0.862
66.7600,0.923
66.8000,0.912
66.8400,0.920
66.8800,0.965
66.9200,0.969
66.9600,0.964
67.0000,0.953
67.0400,0.990
67.0800,1.032
67.1200,0.987
67.1600,1.072
67.2000,1.020
67.2400,1.039
67.2800,1.100
67.3200,1.089
67.3600,1.097
67.4000,1.123
67.4400,1.194
67.4800,1.177
67.5200,1.273
67.5600,1.221
67.6000,1.230
67.6400,1.310
67.6800,1.259
67.7200,1.352
67.7600,1.338
67.8000,1.378
67.8400,1.446
67.8800,1.457
67.9200,1.474
67.9600,1.462
68.0000,1.601
68.0400,1.578
68.0800,1.647
68.1200,1.722
68.1600,1.747
68.2000,1.708
68.2400,1.892
68.2800,1.881
68.3200,1.921
68.3600,2.039
68.4000,2.135
68.4400,2.272
68.4800,2.333
68.5200,2.355
68.5600,2.564
68.6000,2.642
68.6400,3.008
68.6800,3.539
68.7200,4.481
68.7600,5.747
68.8000,6.546
68.8400,6.929
68.8800,7.045
68.9200,8.463
68.9600,11.163
69.0000,18.142
69.0400,39.343
69.0800,189.421
69.1200,443.718
69.1600,322.302
69.2000,86.571
69.2400,43.632
69.2800,116.124
69.3200,228.725
69.3600,158.488
69.4000,43.420
69.4400,15.461
69.4800,9.854
69.5200,7.294
69.5600,5.980
69.6000,5.052
69.6400,4.354
69.6800,3.933
69.7200,3.514
69.7600,3.280
69.8000,3.031
69.8400,2.833
69.8800,2.658
69.9200,2.436
69.9600,2.480
70.0000,2.327
70.0400,2.281
70.0800,2.117
70.1200,2.062
70.1600,1.978
70.2000,1.951
70.2400,1.860
70.2800,1.819
70.3200,1.713
70.3600,1.763
70.4000,1.595
70.4400,1.557
70.4800,1.506
70.5200,1.492
70.5600,1.430
70.6000,1.363
70.6400,1.420
70.6800,1.397
70.7200,1.341
70.7600,1.243
70.8000,1.285
70.8400,1.239
70.8800,1.188
70.9200,1.168
70.9600,1.248
71.0000,1.094
71.0400,1.120
71.0800,1.102
71.1200,1.133
71.1600,1.055
71.2000,1.006
71.2400,0.965
71.2800,0.962
71.3200,0.964
71.3600,0.939
71.4000,0.938
71.4400,0.910
71.4800,0.894
71.5200,0.902
71.5600,0.893
71.6000,0.825
71.6400,0.846
71.6800,0.815
71.7200,0.833
71.7600,0.844
71.8000,0.776
71.8400,0.765
71.8800,0.778
71.9200,0.757
71.9600,0.767
72.0000,0.711
72.0400,0.718
72.0800,0.714
72.1200,0.723
72.1600,0.698
72.2000,0.725
72.2400,0.714
72.2800,0.651
72.3200,0.657
72.3600,0.652
72.4000,0.677
72.4400,0.688
72.4800,0.627
72.5200,0.610
72.5600,0.650
72.6000,0.600
72.6400,0.599
72.6800,0.587
72.7200,0.611
72.7600,0.594
72.8000,0.546
72.8400,0.567
72.8800,0.609
72.9200,0.558
72.9600,0.583
73.0000,0.571
73.0400,0.586
73.0800,0.572
73.1200,0.582
73.1600,0.499
73.2000,0.546
73.2400,0.572
73.2800,0.500
73.3200,0.574
73.3600,0.521
73.4000,0.492
73.4400,0.527
73.4800,0.528
73.5200,0.514
73.5600,0.518
73.6000,0.513
73.6400,0.542
73.6800,0.507
73.7200,0.490
73.7600,0.486
73.8000,0.520
73.8400,0.491
73.8800,0.484
73.9200,0.491
73.9600,0.464
74.0000,0.534
74.0400,0.490
74.0800,0.541
74.1200,0.442
74.1600,0.448
74.2000,0.469
74.2400,0.478
74.2800,0.485
74.3200,0.476
74.3600,0.493
74.4000,0.450
74.4400,0.470
74.4800,0.495
74.5200,0.477
74.5600,0.480
74.6000,0.503
74.6400,0.465
74.6800,0.476
74.7200,0.472
74.7600,0.471
74.8000,0.490
74.8400,0.504
74.8800,0.450
74.9200,0.455
74.9600,0.471
75.0000,0.475
75.0400,0.459
75.0800,0.449
75.1200,0.463
75.1600,0.454
75.2000,0.471
75.2400,0.447
75.2800,0.462
75.3200,0.487
75.3600,0.490
75.4000,0.450
75.4400,0.472
75.4800,0.500
75.5200,0.495
75.5600,0.463
75.6000,0.482
75.6400,0.522
75.6800,0.495
75.7200,0.491
75.7600,0.476
75.8000,0.495
75.8400,0.514
75.8800,0.507
75.9200,0.543
75.9600,0.540
76.0000,0.541
76.0400,0.514
76.0800,0.481
76.1200,0.480
76.1600,0.543
76.2000,0.463
76.2400,0.555
76.2800,0.525
76.3200,0.524
76.3600,0.547
76.4000,0.546
76.4400,0.548
76.4800,0.538
76.5200,0.541
76.5600,0.574
76.6000,0.525
76.6400,0.549
76.6800,0.550
76.7200,0.544
76.7600,0.597
76.8000,0.590
76.8400,0.630
76.8800,0.571
76.9200,0.614
76.9600,0.629
77.0000,0.603
77.0400,0.614
77.0800,0.622
77.1200,0.635
77.1600,0.651
77.2000,0.628
77.2400,0.692
77.2800,0.678
77.3200,0.651
77.3600,0.653
77.4000,0.680
77.4400,0.648
77.4800,0.658
77.5200,0.665
77.5600,0.647
77.6000,0.637
77.6400,0.690
77.6800,0.663
77.7200,0.679
77.7600,0.662
77.8000,0.629
77.8400,0.662
77.8800,0.652
77.9200,0.675
77.9600,0.651
78.0000,0.651
78.0400,0.666
78.0800,0.629
78.1200,0.672
78.1600,0.626
78.2000,0.591
78.2400,0.641
78.2800,0.640
78.3200,0.580
78.3600,0.633
78.4000,0.604
78.4400,0.582
78.4800,0.608
78.5200,0.593
78.5600,0.574
78.6000,0.567
78.6400,0.547
78.6800,0.520
78.7200,0.517
78.7600,0.538
78.8000,0.528
78.8400,0.544
78.8800,0.510
78.9200,0.490
78.9600,0.472
79.0000,0.493
79.0400,0.469
79.0800,0.508
79.1200,0.474
79.1600,0.493
79.2000,0.486
79.2400,0.474
79.2800,0.479
79.3200,0.429
79.3600,0.465
79.4000,0.430
79.4400,0.463
79.4800,0.468
79.5200,0.486
79.5600,0.474
79.6000,0.429
79.6400,0.424
79.6800,0.425
79.7200,0.434
79.7600,0.438
79.8000,0.400
79.8400,0.375
79.8800,0.419
79.9200,0.382
79.9600,0.384
80.0000,0.403
