theta,intensity
5.0000,4.994
5.0400,4.895
5.0800,4.993
5.1200,4.894
5.1600,5.121
5.2000,5.026
5.2400,4.976
5.2800,4.956
5.3200,4.845
5.3600,4.795
5.4000,4.884
5.4400,4.883
5.4800,4.802
5.5200,4.796
5.5600,4.660
5.6000,4.788
5.6400,4.590
5.6800,4.618
5.7200,4.501
5.7600,4.460
5.8000,4.463
5.8400,4.377
5.8800,4.341
5.9200,4.331
5.9600,4.317
6.0000,4.230
6.0400,4.183
6.0800,4.204
6.1200,4.226
6.1600,4.214
6.2000,4.172
6.2400,4.242
6.2800,4.147
6.3200,4.193
6.3600,4.197
6.4000,4.128
6.4400,4.080
6.4800,4.040
6.5200,4.111
6.5600,4.102
6.6000,4.069
6.6400,4.081
6.6800,4.143
6.7200,4.005
6.7600,4.066
6.8000,4.060
6.8400,4.023
6.8800,3.979
6.9200,4.051
6.9600,3.867
7.0000,4.033
7.0400,3.940
7.0800,3.988
7.1200,3.942
7.1600,4.057
7.2000,3.979
7.2400,3.970
7.2800,4.045
7.3200,3.949
7.3600,3.987
7.4000,3.920
7.4400,3.799
7.4800,3.933
7.5200,3.887
7.5600,3.925
7.6000,3.914
7.6400,3.855
7.6800,3.827
7.7200,3.974
7.7600,3.890
7.8000,3.912
7.8400,4.013
7.8800,3.893
7.9200,3.946
7.9600,3.859
8.0000,3.968
8.0400,3.883
8.0800,3.803
8.1200,3.975
8.1600,3.856
8.2000,3.822
8.2400,3.954
8.2800,3.799
8.3200,3.906
8.3600,3.899
8.4000,3.847
8.4400,3.834
8.4800,3.834
8.5200,3.940
8.5600,3.853
8.6000,3.851
8.6400,3.788
8.6800,3.802
8.7200,3.874
8.7600,3.865
8.8000,3.745
8.8400,3.793
8.8800,3.748
8.9200,3.836
8.9600,3.719
9.0000,3.847
9.0400,3.733
9.0800,3.766
9.1200,3.801
9.1600,3.760
9.2000,3.718
9.2400,3.645
9.2800,3.638
9.3200,3.721
9.3600,3.750
9.4000,3.817
9.4400,3.720
9.4800,3.642
9.5200,3.716
9.5600,3.694
9.6000,3.572
9.6400,3.643
9.6800,3.650
9.7200,3.591
9.7600,3.663
9.8000,3.707
9.8400,3.716
9.8800,3.651
9.9200,3.687
9.9600,3.603
10.0000,3.759
10.0400,3.671
10.0800,3.691
10.1200,3.581
10.1600,3.613
10.2000,3.632
10.2400,3.630
10.2800,3.637
10.3200,3.591
10.3600,3.679
10.4000,3.705
10.4400,3.537
10.4800,3.706
10.5200,3.678
10.5600,3.640
10.6000,3.638
10.6400,3.626
10.6800,3.614
10.7200,3.567
10.7600,3.666
10.8000,3.452
10.8400,3.547
10.8800,3.669
10.9200,3.553
10.9600,3.545
11.0000,3.543
11.0400,3.495
11.0800,3.521
11.1200,3.534
11.1600,3.540
11.2000,3.473
11.2400,3.533
11.2800,3.574
11.3200,3.543
11.3600,3.459
11.4000,3.501
11.4400,3.589
11.4800,3.457
11.5200,3.444
11.5600,3.441
11.6000,3.564
11.6400,3.467
11.6800,3.580
11.7200,3.467
11.7600,3.406
11.8000,3.568
11.8400,3.455
11.8800,3.391
11.9200,3.421
11.9600,3.332
12.0000,3.388
12.0400,3.541
12.0800,3.486
12.1200,3.393
12.1600,3.401
12.2000,3.476
12.2400,3.447
12.2800,3.373
12.3200,3.420
12.3600,3.439
12.4000,3.305
12.4400,3.441
12.4800,3.456
12.5200,3.451
12.5600,3.499
12.6000,3.408
12.6400,3.491
12.6800,3.495
12.7200,3.307
12.7600,3.341
12.8000,3.374
12.8400,3.480
12.8800,3.338
12.9200,3.398
12.9600,3.468
13.0000,3.491
13.0400,3.417
13.0800,3.329
13.1200,3.367
13.1600,3.364
13.2000,3.410
13.2400,3.399
13.2800,3.396
13.3200,3.293
13.3600,3.353
13.4000,3.520
13.4400,3.349
13.4800,3.263
13.5200,3.168
13.5600,3.342
13.6000,3.220
13.6400,3.298
13.6800,3.374
13.7200,3.255
13.7600,3.296
13.8000,3.343
13.8400,3.332
13.8800,3.318
13.9200,3.221
13.9600,3.315
14.0000,3.276
14.0400,3.279
14.0800,3.241
14.1200,3.316
14.1600,3.191
14.2000,3.271
14.2400,3.154
14.2800,3.285
14.3200,3.297
14.3600,3.237
14.4000,3.341
14.4400,3.264
14.4800,3.334
14.5200,3.261
14.5600,3.302
14.6000,3.180
14.6400,3.125
14.6800,3.232
14.7200,3.210
14.7600,3.273
14.8000,3.245
14.8400,3.122
14.8800,3.169
14.9200,3.166
14.9600,3.193
15.0000,3.147
15.0400,3.179
15.0800,3.184
15.1200,3.164
15.1600,3.137
15.2000,3.120
15.2400,3.126
15.2800,3.136
15.3200,3.061
15.3600,3.150
15.4000,3.205
15.4400,3.301
15.4800,3.121
15.5200,3.128
15.5600,3.165
15.6000,3.116
15.6400,3.119
15.6800,3.092
15.7200,3.079
15.7600,3.068
15.8000,3.110
15.8400,3.111
15.8800,3.070
15.9200,3.103
15.9600,3.077
16.0000,3.111
16.0400,3.141
16.0800,3.102
16.1200,3.118
16.1600,3.217
16.2000,3.066
16.2400,3.026
16.2800,3.082
16.3200,3.084
16.3600,3.007
16.4000,2.966
16.4400,3.009
16.4800,3.039
16.5200,3.072
16.5600,2.995
16.6000,3.100
16.6400,3.027
16.6800,3.025
16.7200,3.048
16.7600,3.006
16.8000,3.018
16.8400,2.992
16.8800,3.079
16.9200,2.986
16.9600,2.962
17.0000,2.949
17.0400,2.960
17.0800,2.933
17.1200,3.032
17.1600,3.033
17.2000,2.996
17.2400,2.990
17.2800,2.912
17.3200,2.960
17.3600,2.842
17.4000,3.015
17.4400,2.876
17.4800,3.093
17.5200,2.899
17.5600,2.999
17.6000,2.969
17.6400,2.914
17.6800,2.893
17.7200,2.927
17.7600,2.926
17.8000,2.947
17.8400,2.829
17.8800,2.881
17.9200,2.880
17.9600,2.917
18.0000,2.930
18.0400,2.898
18.0800,2.921
18.1200,2.845
18.1600,2.790
18.2000,2.939
18.2400,2.882
18.2800,2.828
18.3200,2.844
18.3600,2.829
18.4000,2.875
18.4400,2.831
18.4800,2.856
18.5200,2.756
18.5600,2.784
18.6000,2.837
18.6400,2.907
18.6800,2.817
18.7200,2.842
18.7600,2.871
18.8000,2.885
18.8400,2.798
18.8800,2.850
18.9200,2.782
18.9600,2.891
19.0000,2.792
19.0400,2.862
19.0800,2.878
19.1200,2.780
19.1600,2.808
19.2000,2.704
19.2400,2.795
19.2800,2.746
19.3200,2.882
19.3600,2.852
19.4000,2.770
19.4400,2.824
19.4800,2.768
19.5200,2.827
19.5600,2.706
19.6000,2.751
19.6400,2.619
19.6800,2.729
19.7200,2.691
19.7600,2.796
19.8000,2.779
19.8400,2.669
19.8800,2.710
19.9200,2.733
19.9600,2.761
20.0000,2.684
20.0400,2.701
20.0800,2.672
20.1200,2.803
20.1600,2.708
20.2000,2.686
20.2400,2.606
20.2800,2.622
20.3200,2.679
20.3600,2.741
20.4000,2.657
20.4400,2.673
20.4800,2.619
20.5200,2.681
20.5600,2.647
20.6000,2.707
20.6400,2.631
20.6800,2.642
20.7200,2.570
20.7600,2.652
20.8000,2.650
20.8400,2.667
20.8800,2.625
20.9200,2.631
20.9600,2.652
21.0000,2.625
21.0400,2.700
21.0800,2.622
21.1200,2.605
21.1600,2.672
21.2000,2.677
21.2400,2.610
21.2800,2.649
21.3200,2.612
21.3600,2.575
21.4000,2.611
21.4400,2.639
21.4800,2.625
21.5200,2.459
21.5600,2.671
21.6000,2.609
21.6400,2.584
21.6800,2.641
21.7200,2.696
21.7600,2.519
21.8000,2.543
21.8400,2.524
21.8800,2.565
21.9200,2.481
21.9600,2.558
22.0000,2.587
22.0400,2.499
22.0800,2.538
22.1200,2.583
22.1600,2.563
22.2000,2.541
22.2400,2.516
22.2800,2.547
22.3200,2.496
22.3600,2.548
22.4000,2.555
22.4400,2.605
22.4800,2.473
22.5200,2.491
22.5600,2.541
22.6000,2.542
22.6400,2.538
22.6800,2.509
22.7200,2.512
22.7600,2.465
22.8000,2.456
22.8400,2.409
22.8800,2.436
22.9200,2.472
22.9600,2.415
23.0000,2.538
23.0400,2.360
23.0800,2.436
23.1200,2.406
23.1600,2.463
23.2000,2.469
23.2400,2.406
23.2800,2.340
23.3200,2.469
23.3600,2.419
23.4000,2.471
23.4400,2.362
23.4800,2.504
23.5200,2.458
23.5600,2.499
23.6000,2.358
23.6400,2.344
23.6800,2.364
23.7200,2.442
23.7600,2.423
23.8000,2.419
23.8400,2.439
23.8800,2.493
23.9200,2.499
23.9600,2.450
24.0000,2.333
24.0400,2.419
24.0800,2.410
24.1200,2.404
24.1600,2.312
24.2000,2.413
24.2400,2.419
24.2800,2.449
24.3200,2.454
24.3600,2.356
24.4000,2.341
24.4400,2.348
24.4800,2.407
24.5200,2.447
24.5600,2.441
24.6000,2.335
24.6400,2.370
24.6800,2.359
24.7200,2.305
24.7600,2.323
24.8000,2.383
24.8400,2.323
24.8800,2.320
24.9200,2.279
24.9600,2.364
25.0000,2.287
25.0400,2.202
25.0800,2.263
25.1200,2.245
25.1600,2.271
25.2000,2.267
25.2400,2.308
25.2800,2.254
25.3200,2.346
25.3600,2.283
25.4000,2.357
25.4400,2.199
25.4800,2.258
25.5200,2.206
25.5600,2.222
25.6000,2.308
25.6400,2.316
25.6800,2.222
25.7200,2.161
25.7600,2.210
25.8000,2.303
25.8400,2.328
25.8800,2.207
25.9200,2.190
25.9600,2.190
26.0000,2.165
26.0400,2.356
26.0800,2.208
26.1200,2.148
26.1600,2.222
26.2000,2.256
26.2400,2.210
26.2800,2.188
26.3200,2.239
26.3600,2.219
26.4000,2.210
26.4400,2.171
26.4800,2.175
26.5200,2.093
26.5600,2.218
26.6000,2.193
26.6400,2.221
26.6800,2.193
26.7200,2.230
26.7600,2.233
26.8000,2.102
26.8400,2.169
26.8800,2.189
26.9200,2.162
26.9600,2.179
27.0000,2.133
27.0400,2.122
27.0800,2.116
27.1200,2.189
27.1600,2.165
27.2000,2.196
27.2400,2.122
27.2800,2.204
27.3200,2.164
27.3600,2.152
27.4000,2.150
27.4400,2.099
27.4800,2.184
27.5200,2.196
27.5600,2.128
27.6000,2.190
27.6400,2.175
27.6800,2.087
27.7200,2.203
27.7600,2.252
27.8000,2.291
27.8400,2.353
27.8800,2.327
27.9200,2.359
27.9600,2.405
28.0000,2.424
28.0400,2.575
28.0800,2.682
28.1200,2.740
28.1600,2.716
28.2000,2.846
28.2400,2.800
28.2800,2.875
28.3200,2.820
28.3600,2.775
28.4000,2.681
28.4400,2.450
28.4800,2.568
28.5200,2.436
28.5600,2.451
28.6000,2.357
28.6400,2.289
28.6800,2.228
28.7200,2.166
28.7600,2.131
28.8000,2.156
28.8400,2.053
28.8800,2.059
28.9200,2.093
28.9600,2.089
29.0000,2.034
29.0400,2.074
29.0800,1.983
29.1200,2.005
29.1600,2.031
29.2000,2.032
29.2400,2.041
29.2800,1.990
29.3200,1.996
29.3600,1.987
29.4000,1.998
29.4400,1.980
29.4800,1.947
29.5200,1.969
29.5600,1.956
29.6000,1.993
29.6400,1.903
29.6800,1.881
29.7200,1.900
29.7600,1.914
29.8000,1.953
29.8400,1.934
29.8800,1.912
29.9200,1.950
29.9600,1.973
30.0000,1.888
30.0400,2.004
30.0800,1.941
30.1200,1.892
30.1600,1.896
30.2000,1.921
30.2400,1.939
30.2800,1.833
30.3200,1.939
30.3600,1.877
30.4000,1.874
30.4400,1.934
30.4800,1.937
30.5200,1.853
30.5600,1.892
30.6000,1.842
30.6400,1.853
30.6800,1.865
30.7200,1.937
30.7600,1.819
30.8000,1.888
30.8400,1.935
30.8800,1.876
30.9200,1.879
30.9600,1.896
31.0000,1.942
31.0400,1.904
31.0800,1.903
31.1200,1.876
31.1600,2.007
31.2000,1.956
31.2400,1.955
31.2800,1.857
31.3200,1.980
31.3600,1.912
31.4000,1.965
31.4400,1.977
31.4800,1.960
31.5200,2.040
31.5600,2.071
31.6000,2.060
31.6400,2.130
31.6800,2.173
31.7200,2.339
31.7600,2.336
31.8000,2.335
31.8400,2.318
31.8800,2.356
31.9200,2.332
31.9600,2.237
32.0000,2.195
32.0400,2.308
32.0800,2.241
32.1200,2.126
32.1600,2.054
32.2000,2.046
32.2400,2.071
32.2800,1.966
32.3200,1.978
32.3600,1.945
32.4000,1.959
32.4400,1.938
32.4800,1.881
32.5200,1.841
32.5600,1.850
32.6000,1.925
32.6400,1.854
32.6800,1.770
32.7200,1.915
32.7600,1.861
32.8000,1.856
32.8400,1.795
32.8800,1.806
32.9200,1.743
32.9600,1.904
33.0000,2.397
33.0400,2.645
33.0800,2.088
33.1200,1.764
33.1600,1.767
33.2000,1.823
33.2400,1.807
33.2800,1.746
33.3200,1.756
33.3600,1.804
33.4000,1.702
33.4400,1.763
33.4800,1.741
33.5200,1.810
33.5600,1.749
33.6000,1.761
33.6400,1.703
33.6800,1.794
33.7200,1.770
33.7600,1.839
33.8000,1.820
33.8400,1.859
33.8800,1.835
33.9200,1.783
33.9600,1.843
34.0000,1.789
34.0400,1.807
34.0800,1.829
34.1200,1.881
34.1600,1.827
34.2000,1.955
34.2400,1.974
34.2800,1.919
34.3200,2.009
34.3600,1.957
34.4000,1.959
34.4400,1.983
34.4800,1.986
34.5200,1.956
34.5600,1.996
34.6000,2.022
34.6400,1.950
34.6800,1.972
34.7200,1.957
34.7600,1.932
34.8000,1.888
34.8400,1.886
34.8800,1.856
34.9200,1.832
34.9600,1.864
35.0000,1.838
35.0400,1.777
35.0800,1.779
35.1200,1.762
35.1600,1.802
35.2000,1.801
35.2400,1.776
35.2800,1.801
35.3200,1.860
35.3600,1.816
35.4000,1.772
35.4400,1.756
35.4800,1.731
35.5200,1.740
35.5600,1.805
35.6000,1.874
35.6400,1.794
35.6800,1.887
35.7200,1.895
35.7600,1.873
35.8000,1.950
35.8400,2.040
35.8800,1.989
35.9200,2.048
35.9600,2.048
36.0000,2.119
36.0400,2.155
36.0800,2.216
36.1200,2.312
36.1600,2.313
36.2000,2.336
36.2400,2.423
36.2800,2.539
36.3200,2.442
36.3600,2.413
36.4000,2.371
36.4400,2.422
36.4800,2.373
36.5200,2.376
36.5600,2.261
36.6000,2.216
36.6400,2.131
36.6800,2.114
36.7200,2.067
36.7600,2.055
36.8000,2.034
36.8400,1.925
36.8800,1.905
36.9200,1.941
36.9600,1.879
37.0000,1.913
37.0400,1.833
37.0800,1.897
37.1200,1.792
37.1600,1.733
37.2000,1.878
37.2400,1.857
37.2800,1.777
37.3200,1.797
37.3600,1.763
37.4000,1.810
37.4400,1.729
37.4800,1.777
37.5200,1.808
37.5600,1.814
37.6000,1.769
37.6400,1.816
37.6800,1.897
37.7200,1.808
37.7600,1.917
37.8000,2.016
37.8400,1.905
37.8800,1.904
37.9200,1.951
37.9600,2.019
38.0000,2.075
38.0400,2.158
38.0800,2.272
38.1200,2.395
38.1600,2.584
38.2000,2.695
38.2400,2.871
38.2800,3.317
38.3200,3.531
38.3600,4.108
38.4000,4.415
38.4400,4.627
38.4800,4.663
38.5200,4.393
38.5600,4.002
38.6000,3.515
38.6400,3.216
38.6800,2.788
38.7200,2.643
38.7600,2.404
38.8000,2.277
38.8400,2.258
38.8800,2.124
38.9200,2.046
38.9600,1.959
39.0000,1.967
39.0400,1.957
39.0800,1.914
39.1200,1.833
39.1600,1.936
39.2000,1.942
39.2400,1.783
39.2800,1.889
39.3200,1.885
39.3600,1.944
39.4000,1.860
39.4400,1.970
39.4800,1.953
39.5200,1.895
39.5600,1.967
39.6000,2.014
39.6400,2.080
39.6800,2.142
39.7200,2.199
39.7600,2.286
39.8000,2.443
39.8400,2.585
39.8800,2.627
39.9200,2.835
39.9600,3.110
40.0000,3.320
40.0400,3.747
40.0800,3.998
40.1200,4.393
40.1600,4.595
40.2000,4.865
40.2400,5.244
40.2800,5.330
40.3200,5.356
40.3600,5.241
40.4000,4.877
40.4400,4.719
40.4800,4.347
40.5200,4.037
40.5600,3.738
40.6000,3.484
40.6400,3.191
40.6800,2.879
40.7200,2.703
40.7600,2.524
40.8000,2.367
40.8400,2.304
40.8800,2.170
40.9200,2.206
40.9600,2.067
41.0000,2.013
41.0400,1.995
41.0800,1.971
41.1200,1.946
41.1600,1.813
41.2000,1.852
41.2400,1.817
41.2800,1.755
41.3200,1.797
41.3600,1.763
41.4000,1.683
41.4400,1.717
41.4800,1.673
41.5200,1.670
41.5600,1.656
41.6000,1.535
41.6400,1.550
41.6800,1.553
41.7200,1.574
41.7600,1.475
41.8000,1.541
41.8400,1.472
41.8800,1.480
41.9200,1.401
41.9600,1.412
42.0000,1.410
42.0400,1.363
42.0800,1.394
42.1200,1.374
42.1600,1.406
42.2000,1.366
42.2400,1.355
42.2800,1.394
42.3200,1.280
42.3600,1.373
42.4000,1.307
42.4400,1.315
42.4800,1.287
42.5200,1.287
42.5600,1.275
42.6000,1.277
42.6400,1.237
42.6800,1.333
42.7200,1.278
42.7600,1.289
42.8000,1.275
42.8400,1.251
42.8800,1.287
42.9200,1.324
42.9600,1.218
43.0000,1.235
43.0400,1.212
43.0800,1.226
43.1200,1.234
43.1600,1.184
43.2000,1.217
43.2400,1.235
43.2800,1.209
43.3200,1.223
43.3600,1.150
43.4000,1.203
43.4400,1.211
43.4800,1.264
43.5200,1.215
43.5600,1.284
43.6000,1.258
43.6400,1.265
43.6800,1.226
43.7200,1.155
43.7600,1.206
43.8000,1.233
43.8400,1.213
43.8800,1.234
43.9200,1.273
43.9600,1.267
44.0000,1.296
44.0400,1.261
44.0800,1.238
44.1200,1.327
44.1600,1.282
44.2000,1.282
44.2400,1.342
44.2800,1.401
44.3200,1.442
44.3600,1.431
44.4000,1.368
44.4400,1.440
44.4800,1.418
44.5200,1.462
44.5600,1.550
44.6000,1.637
44.6400,1.632
44.6800,1.690
44.7200,1.738
44.7600,1.661
44.8000,1.686
44.8400,1.578
44.8800,1.552
44.9200,1.573
44.9600,1.396
45.0000,1.412
45.0400,1.352
45.0800,1.265
45.1200,1.248
45.1600,1.204
45.2000,1.278
45.2400,1.201
45.2800,1.188
45.3200,1.152
45.3600,1.183
45.4000,1.171
45.4400,1.135
45.4800,1.101
45.5200,1.130
45.5600,1.120
45.6000,1.057
45.6400,1.047
45.6800,1.035
45.7200,1.063
45.7600,1.060
45.8000,1.035
45.8400,1.073
45.8800,1.073
45.9200,1.035
45.9600,0.987
46.0000,1.007
46.0400,1.038
46.0800,1.080
46.1200,1.020
46.1600,0.999
46.2000,1.010
46.2400,1.010
46.2800,0.997
46.3200,1.038
46.3600,1.030
46.4000,0.959
46.4400,1.031
46.4800,0.967
46.5200,1.000
46.5600,1.085
46.6000,0.956
46.6400,0.924
46.6800,0.981
46.7200,1.049
46.7600,1.045
46.8000,0.949
46.8400,1.025
46.8800,0.988
46.9200,1.051
46.9600,0.996
47.0000,0.968
47.0400,0.922
47.0800,0.936
47.1200,0.967
47.1600,0.995
47.2000,1.035
47.2400,0.955
47.2800,1.010
47.3200,1.060
47.3600,1.015
47.4000,0.964
47.4400,1.047
47.4800,1.006
47.5200,1.060
47.5600,1.014
47.6000,1.004
47.6400,0.987
47.6800,0.942
47.7200,0.974
47.7600,0.995
47.8000,0.977
47.8400,0.994
47.8800,1.011
47.9200,0.939
47.9600,0.999
48.0000,0.925
48.0400,0.969
48.0800,0.950
48.1200,0.939
48.1600,0.961
48.2000,0.962
48.2400,0.978
48.2800,0.969
48.3200,0.953
48.3600,0.940
48.4000,0.924
48.4400,0.952
48.4800,0.969
48.5200,0.905
48.5600,0.877
48.6000,0.977
48.6400,0.930
48.6800,0.942
48.7200,0.895
48.7600,0.946
48.8000,0.915
48.8400,0.852
48.8800,0.909
48.9200,0.873
48.9600,0.911
49.0000,0.889
49.0400,0.936
49.0800,0.952
49.1200,0.871
49.1600,0.842
49.2000,0.927
49.2400,0.930
49.2800,0.901
49.3200,0.896
49.3600,0.915
49.4000,0.884
49.4400,0.938
49.4800,0.908
49.5200,0.925
49.5600,0.903
49.6000,0.943
49.6400,0.981
49.6800,0.993
49.7200,0.962
49.7600,0.975
49.8000,1.010
49.8400,0.971
49.8800,1.006
49.9200,1.014
49.9600,1.019
50.0000,0.957
50.0400,0.951
50.0800,0.937
50.1200,0.916
50.1600,0.868
50.2000,0.865
50.2400,0.848
50.2800,0.895
50.3200,0.906
50.3600,0.842
50.4000,0.856
50.4400,0.863
50.4800,0.846
50.5200,0.877
50.5600,0.805
50.6000,0.798
50.6400,0.864
50.6800,0.824
50.7200,0.837
50.7600,0.876
50.8000,0.821
50.8400,0.816
50.8800,0.828
50.9200,0.793
50.9600,0.797
51.0000,0.786
51.0400,0.842
51.0800,0.815
51.1200,0.774
51.1600,0.807
51.2000,0.820
51.2400,0.859
51.2800,0.827
51.3200,0.823
51.3600,0.830
51.4000,0.828
51.4400,0.873
51.4800,0.787
51.5200,0.829
51.5600,0.834
51.6000,0.784
51.6400,0.805
51.6800,0.796
51.7200,0.757
51.7600,0.760
51.8000,0.782
51.8400,0.787
51.8800,0.800
51.9200,0.830
51.9600,0.799
52.0000,0.757
52.0400,0.782
52.0800,0.775
52.1200,0.818
52.1600,0.733
52.2000,0.732
52.2400,0.737
52.2800,0.791
52.3200,0.745
52.3600,0.793
52.4000,0.763
52.4400,0.732
52.4800,0.777
52.5200,0.744
52.5600,0.753
52.6000,0.779
52.6400,0.744
52.6800,0.749
52.7200,0.733
52.7600,0.762
52.8000,0.767
52.8400,0.803
52.8800,0.769
52.9200,0.740
52.9600,0.796
53.0000,0.749
53.0400,0.775
53.0800,0.816
53.1200,0.757
53.1600,0.740
53.2000,0.755
53.2400,0.778
53.2800,0.726
53.3200,0.746
53.3600,0.754
53.4000,0.771
53.4400,0.726
53.4800,0.761
53.5200,0.724
53.5600,0.780
53.6000,0.795
53.6400,0.740
53.6800,0.766
53.7200,0.783
53.7600,0.776
53.8000,0.747
53.8400,0.770
53.8800,0.724
53.9200,0.710
53.9600,0.718
54.0000,0.720
54.0400,0.735
54.0800,0.721
54.1200,0.737
54.1600,0.708
54.2000,0.741
54.2400,0.699
54.2800,0.729
54.3200,0.757
54.3600,0.713
54.4000,0.672
54.4400,0.710
54.4800,0.732
54.5200,0.740
54.5600,0.689
54.6000,0.701
54.6400,0.739
54.6800,0.719
54.7200,0.682
54.7600,0.792
54.8000,0.709
54.8400,0.659
54.8800,0.685
54.9200,0.737
54.9600,0.694
55.0000,0.701
55.0400,0.698
55.0800,0.717
55.1200,0.738
55.1600,0.746
55.2000,0.703
55.2400,0.714
55.2800,0.697
55.3200,0.727
55.3600,0.679
55.4000,0.673
55.4400,0.699
55.4800,0.690
55.5200,0.698
55.5600,0.728
55.6000,0.733
55.6400,0.754
55.6800,0.688
55.7200,0.755
55.7600,0.700
55.8000,0.719
55.8400,0.716
55.8800,0.740
55.9200,0.760
55.9600,0.729
56.0000,0.738
56.0400,0.726
56.0800,0.721
56.1200,0.750
56.1600,0.756
56.2000,0.774
56.2400,0.796
56.2800,0.825
56.3200,0.768
56.3600,0.771
56.4000,0.785
56.4400,0.792
56.4800,0.783
56.5200,0.797
56.5600,0.787
56.6000,0.828
56.6400,0.863
56.6800,0.829
56.7200,0.846
56.7600,0.851
56.8000,0.863
56.8400,0.878
56.8800,0.853
56.9200,0.859
56.9600,0.823
57.0000,0.844
57.0400,0.813
57.0800,0.836
57.1200,0.824
57.1600,0.846
57.2000,0.764
57.2400,0.783
57.2800,0.754
57.3200,0.788
57.3600,0.782
57.4000,0.764
57.4400,0.775
57.4800,0.757
57.5200,0.762
57.5600,0.735
57.6000,0.781
57.6400,0.772
57.6800,0.752
57.7200,0.795
57.7600,0.750
57.8000,0.730
57.8400,0.757
57.8800,0.778
57.9200,0.785
57.9600,0.790
58.0000,0.784
58.0400,0.787
58.0800,0.776
58.1200,0.791
58.1600,0.842
58.2000,0.812
58.2400,0.783
58.2800,0.817
58.3200,0.769
58.3600,0.810
58.4000,0.847
58.4400,0.822
58.4800,0.823
58.5200,0.796
58.5600,0.828
58.6000,0.777
58.6400,0.768
58.6800,0.792
58.7200,0.777
58.7600,0.798
58.8000,0.787
58.8400,0.726
58.8800,0.747
58.9200,0.769
58.9600,0.745
59.0000,0.737
59.0400,0.759
59.0800,0.727
59.1200,0.686
59.1600,0.670
59.2000,0.695
59.2400,0.642
59.2800,0.703
59.3200,0.642
59.3600,0.653
59.4000,0.722
59.4400,0.639
59.4800,0.641
59.5200,0.653
59.5600,0.667
59.6000,0.606
59.6400,0.663
59.6800,0.624
59.7200,0.657
59.7600,0.601
59.8000,0.627
59.8400,0.609
59.8800,0.675
59.9200,0.638
59.9600,0.655
60.0000,0.630
60.0400,0.634
60.0800,0.645
60.1200,0.574
60.1600,0.605
60.2000,0.572
60.2400,0.605
60.2800,0.626
60.3200,0.617
60.3600,0.612
60.4000,0.620
60.4400,0.580
60.4800,0.591
60.5200,0.624
60.5600,0.606
60.6000,0.627
60.6400,0.619
60.6800,0.608
60.7200,0.589
60.7600,0.615
60.8000,0.593
60.8400,0.648
60.8800,0.569
60.9200,0.569
60.9600,0.630
61.0000,0.609
61.0400,0.593
61.0800,0.617
61.1200,0.596
61.1600,0.601
61.2000,0.640
61.2400,0.582
61.2800,0.618
61.3200,0.625
61.3600,0.619
61.4000,0.605
61.4400,0.598
61.4800,0.589
61.5200,0.614
61.5600,0.608
61.6000,0.563
61.6400,0.644
61.6800,0.642
61.7200,0.673
61.7600,0.652
61.8000,0.638
61.8400,0.610
61.8800,0.602
61.9200,0.631
61.9600,0.653
62.0000,0.622
62.0400,0.602
62.0800,0.601
62.1200,0.621
62.1600,0.617
62.2000,0.587
62.2400,0.609
62.2800,0.633
62.3200,0.631
62.3600,0.626
62.4000,0.664
62.4400,0.647
62.4800,0.650
62.5200,0.643
62.5600,0.613
62.6000,0.642
62.6400,0.634
62.6800,0.645
62.7200,0.632
62.7600,0.657
62.8000,0.646
62.8400,0.601
62.8800,0.623
62.9200,0.662
62.9600,0.683
63.0000,0.652
63.0400,0.631
63.0800,0.659
63.1200,0.658
63.1600,0.668
63.2000,0.710
63.2400,0.660
63.2800,0.605
63.3200,0.690
63.3600,0.656
63.4000,0.671
63.4400,0.683
63.4800,0.652
63.5200,0.662
63.5600,0.603
63.6000,0.629
63.6400,0.659
63.6800,0.621
63.7200,0.668
63.7600,0.613
63.8000,0.647
63.8400,0.628
63.8800,0.615
63.9200,0.651
63.9600,0.620
64.0000,0.645
64.0400,0.613
64.0800,0.658
64.1200,0.672
64.1600,0.669
64.2000,0.660
64.2400,0.674
64.2800,0.675
64.3200,0.737
64.3600,0.680
64.4000,0.697
64.4400,0.713
64.4800,0.728
64.5200,0.754
64.5600,0.799
64.6000,0.746
64.6400,0.810
64.6800,0.775
64.7200,0.836
64.7600,0.854
64.8000,0.830
64.8400,0.865
64.8800,0.985
64.9200,0.995
64.9600,1.046
65.0000,1.046
65.0400,1.019
65.0800,1.032
65.1200,1.046
65.1600,0.999
65.2000,1.032
65.2400,0.991
65.2800,0.946
65.3200,0.966
65.3600,0.943
65.4000,0.895
65.4400,0.956
65.4800,0.866
65.5200,0.883
65.5600,0.838
65.6000,0.834
65.6400,0.817
65.6800,0.857
65.7200,0.857
65.7600,0.827
65.8000,0.789
65.8400,0.823
65.8800,0.825
65.9200,0.834
65.9600,0.850
66.0000,0.902
66.0400,0.857
66.0800,0.843
66.1200,0.839
66.1600,0.871
66.2000,0.863
66.2400,0.831
66.2800,0.891
66.3200,0.890
66.3600,0.868
66.4000,0.874
66.4400,0.887
66.4800,0.917
66.5200,0.965
66.5600,0.895
66.6000,0.890
66.6400,0.883
66.6800,0.976
66.7200,0.968
66.7600,0.998
66.8000,0.999
66.8400,1.016
66.8800,1.063
66.9200,0.989
66.9600,0.982
67.0000,1.027
67.0400,1.057
67.0800,1.047
67.1200,1.096
67.1600,1.126
67.2000,1.128
67.2400,1.150
67.2800,1.144
67.3200,1.196
67.3600,1.157
67.4000,1.258
67.4400,1.256
67.4800,1.315
67.5200,1.322
67.5600,1.374
67.6000,1.298
67.6400,1.328
67.6800,1.394
67.7200,1.387
67.7600,1.449
67.8000,1.520
67.8400,1.515
67.8800,1.591
67.9200,1.627
67.9600,1.704
68.0000,1.735
68.0400,1.690
68.0800,1.813
68.1200,1.789
68.1600,1.899
68.2000,1.982
68.2400,1.930
68.2800,1.991
68.3200,2.149
68.3600,2.251
68.4000,2.180
68.4400,2.374
68.4800,2.488
68.5200,2.464
68.5600,2.674
68.6000,2.942
68.6400,3.037
68.6800,3.446
68.7200,3.929
68.7600,5.061
68.8000,6.513
68.8400,7.686
68.8800,8.091
68.9200,8.107
68.9600,9.123
69.0000,11.984
69.0400,19.163
69.0800,39.787
69.1200,170.222
69.1600,509.735
69.2000,464.536
69.2400,144.611
69.2800,54.192
69.3200,112.315
69.3600,269.579
69.4000,230.576
69.4400,71.752
69.4800,22.033
69.5200,12.230
69.5600,9.085
69.6000,7.056
69.6400,5.957
69.6800,4.996
69.7200,4.403
69.7600,4.120
69.8000,3.824
69.8400,3.516
69.8800,3.177
69.9200,3.009
69.9600,2.813
70.0000,2.662
70.0400,2.593
70.0800,2.487
70.1200,2.312
70.1600,2.296
70.2000,2.200
70.2400,2.177
70.2800,2.062
70.3200,1.963
70.3600,1.878
70.4000,1.830
70.4400,1.800
70.4800,1.799
70.5200,1.670
70.5600,1.632
70.6000,1.587
70.6400,1.588
70.6800,1.451
70.7200,1.479
70.7600,1.425
70.8000,1.395
70.8400,1.404
70.8800,1.440
70.9200,1.320
70.9600,1.277
71.0000,1.212
71.0400,1.197
71.0800,1.158
71.1200,1.145
71.1600,1.129
71.2000,1.162
71.2400,1.044
71.2800,1.053
71.3200,1.064
71.3600,1.036
71.4000,1.025
71.4400,0.987
71.4800,0.966
71.5200,0.976
71.5600,0.958
71.6000,0.948
71.6400,0.919
71.6800,0.904
71.7200,0.859
71.7600,0.914
71.8000,0.847
71.8400,0.793
71.8800,0.805
71.9200,0.811
71.9600,0.819
72.0000,0.837
72.0400,0.789
72.0800,0.757
72.1200,0.768
72.1600,0.735
72.2000,0.739
72.2400,0.752
72.2800,0.716
72.3200,0.723
72.3600,0.729
72.4000,0.785
72.4400,0.772
72.4800,0.750
72.5200,0.743
72.5600,0.726
72.6000,0.740
72.6400,0.725
72.6800,0.747
72.7200,0.809
72.7600,0.763
72.8000,0.748
72.8400,0.809
72.8800,0.768
72.9200,0.772
72.9600,0.792
73.0000,0.829
73.0400,0.814
73.0800,0.803
73.1200,0.803
73.1600,0.842
73.2000,0.886
73.2400,0.832
73.2800,0.833
73.3200,0.767
73.3600,0.801
73.4000,0.738
73.4400,0.756
73.4800,0.736
73.5200,0.751
73.5600,0.667
73.6000,0.706
73.6400,0.657
73.6800,0.693
73.7200,0.705
73.7600,0.650
73.8000,0.645
73.8400,0.601
73.8800,0.614
73.9200,0.589
73.9600,0.531
74.0000,0.547
74.0400,0.543
74.0800,0.546
74.1200,0.538
74.1600,0.530
74.2000,0.533
74.2400,0.525
74.2800,0.473
74.3200,0.524
74.3600,0.513
74.4000,0.527
74.4400,0.493
74.4800,0.479
74.5200,0.477
74.5600,0.464
74.6000,0.501
74.6400,0.463
74.6800,0.482
74.7200,0.486
74.7600,0.426
74.8000,0.469
74.8400,0.466
74.8800,0.420
74.9200,0.421
74.9600,0.470
75.0000,0.437
75.0400,0.429
75.0800,0.461
75.1200,0.438
75.1600,0.459
75.2000,0.411
75.2400,0.462
75.2800,0.463
75.3200,0.422
75.3600,0.444
75.4000,0.410
75.4400,0.475
75.4800,0.402
75.5200,0.426
75.5600,0.422
75.6000,0.406
75.6400,0.399
75.6800,0.417
75.7200,0.447
75.7600,0.414
75.8000,0.430
75.8400,0.453
75.8800,0.402
75.9200,0.385
75.9600,0.396
76.0000,0.399
76.0400,0.460
76.0800,0.431
76.1200,0.397
76.1600,0.440
76.2000,0.415
76.2400,0.402
76.2800,0.440
76.3200,0.421
76.3600,0.356
76.4000,0.397
76.4400,0.411
76.4800,0.417
76.5200,0.439
76.5600,0.432
76.6000,0.427
76.6400,0.409
76.6800,0.455
76.7200,0.432
76.7600,0.400
76.8000,0.451
76.8400,0.415
76.8800,0.400
76.9200,0.394
76.9600,0.418
77.0000,0.396
77.0400,0.426
77.0800,0.404
77.1200,0.429
77.1600,0.428
77.2000,0.435
77.2400,0.423
77.2800,0.459
77.3200,0.414
77.3600,0.450
77.4000,0.494
77.4400,0.481
77.4800,0.483
77.5200,0.463
77.5600,0.476
77.6000,0.474
77.6400,0.486
77.6800,0.489
77.7200,0.486
77.7600,0.543
77.8000,0.532
77.8400,0.577
77.8800,0.559
77.9200,0.605
77.9600,0.561
78.0000,0.644
78.0400,0.628
78.0800,0.657
78.1200,0.690
78.1600,0.670
78.2000,0.671
78.2400,0.646
78.2800,0.644
78.3200,0.644
78.3600,0.622
78.4000,0.630
78.4400,0.576
78.4800,0.556
78.5200,0.504
78.5600,0.501
78.6000,0.522
78.6400,0.513
78.6800,0.440
78.7200,0.471
78.7600,0.465
78.8000,0.438
78.8400,0.457
78.8800,0.425
78.9200,0.425
78.9600,0.417
79.0000,0.387
79.0400,0.398
79.0800,0.363
79.1200,0.367
79.1600,0.418
79.2000,0.421
79.2400,0.404
79.2800,0.371
79.3200,0.372
79.3600,0.395
79.4000,0.364
79.4400,0.350
79.4800,0.371
79.5200,0.335
79.5600,0.364
79.6000,0.387
79.6400,0.355
79.6800,0.364
79.7200,0.353
79.7600,0.360
79.8000,0.394
79.8400,0.341
79.8800,0.391
79.9200,0.372
79.9600,0.322
80.0000,0.346
