theta,intensity
5.0000,2.970
5.0400,3.330
5.0800,3.294
5.1200,3.309
5.1600,3.162
5.2000,3.184
5.2400,3.052
5.2800,3.052
5.3200,2.968
5.3600,2.895
5.4000,2.979
5.4400,2.893
5.4800,2.836
5.5200,2.827
5.5600,2.830
5.6000,2.756
5.6400,2.664
5.6800,2.702
5.7200,2.650
5.7600,2.628
5.8000,2.570
5.8400,2.505
5.8800,2.455
5.9200,2.520
5.9600,2.421
6.0000,2.430
6.0400,2.369
6.0800,2.334
6.1200,2.245
6.1600,2.257
6.2000,2.125
6.2400,2.153
6.2800,2.100
6.3200,2.036
6.3600,2.047
6.4000,1.982
6.4400,1.942
6.4800,1.885
6.5200,1.926
6.5600,1.839
6.6000,1.821
6.6400,1.821
6.6800,1.729
6.7200,1.775
6.7600,1.679
6.8000,1.663
6.8400,1.638
6.8800,1.614
6.9200,1.630
6.9600,1.535
7.0000,1.564
7.0400,1.490
7.0800,1.471
7.1200,1.556
7.1600,1.516
7.2000,1.510
7.2400,1.508
7.2800,1.463
7.3200,1.417
7.3600,1.434
7.4000,1.441
7.4400,1.455
7.4800,1.352
7.5200,1.372
7.5600,1.325
7.6000,1.370
7.6400,1.438
7.6800,1.405
7.7200,1.385
7.7600,1.380
7.8000,1.361
7.8400,1.386
7.8800,1.401
7.9200,1.415
7.9600,1.390
8.0000,1.411
8.0400,1.394
8.0800,1.387
8.1200,1.353
8.1600,1.388
8.2000,1.381
8.2400,1.371
8.2800,1.381
8.3200,1.360
8.3600,1.334
8.4000,1.362
8.4400,1.369
8.4800,1.351
8.5200,1.357
8.5600,1.364
8.6000,1.362
8.6400,1.403
8.6800,1.372
8.7200,1.355
8.7600,1.362
8.8000,1.386
8.8400,1.353
8.8800,1.303
8.9200,1.328
8.9600,1.371
9.0000,1.315
9.0400,1.373
9.0800,1.351
9.1200,1.369
9.1600,1.351
9.2000,1.322
9.2400,1.269
9.2800,1.307
9.3200,1.298
9.3600,1.283
9.4000,1.379
9.4400,1.284
9.4800,1.309
9.5200,1.282
9.5600,1.305
9.6000,1.338
9.6400,1.296
9.6800,1.266
9.7200,1.280
9.7600,1.330
9.8000,1.277
9.8400,1.236
9.8800,1.269
9.9200,1.316
9.9600,1.324
10.0000,1.287
10.0400,1.257
10.0800,1.333
10.1200,1.281
10.1600,1.309
10.2000,1.322
10.2400,1.327
10.2800,1.255
10.3200,1.275
10.3600,1.304
10.4000,1.307
10.4400,1.258
10.4800,1.285
10.5200,1.306
10.5600,1.307
10.6000,1.283
10.6400,1.227
10.6800,1.304
10.7200,1.283
10.7600,1.236
10.8000,1.319
10.8400,1.257
10.8800,1.256
10.9200,1.284
10.9600,1.261
11.0000,1.314
11.0400,1.306
11.0800,1.259
11.1200,1.314
11.1600,1.222
11.2000,1.294
11.2400,1.238
11.2800,1.246
11.3200,1.232
11.3600,1.238
11.4000,1.232
11.4400,1.236
11.4800,1.240
11.5200,1.261
11.5600,1.209
11.6000,1.236
11.6400,1.277
11.6800,1.241
11.7200,1.242
11.7600,1.247
11.8000,1.248
11.8400,1.222
11.8800,1.260
11.9200,1.220
11.9600,1.173
12.0000,1.272
12.0400,1.228
12.0800,1.223
12.1200,1.232
12.1600,1.251
12.2000,1.223
12.2400,1.240
12.2800,1.217
12.3200,1.182
12.3600,1.227
12.4000,1.247
12.4400,1.235
12.4800,1.204
12.5200,1.210
12.5600,1.205
12.6000,1.192
12.6400,1.215
12.6800,1.220
12.7200,1.197
12.7600,1.197
12.8000,1.207
12.8400,1.174
12.8800,1.188
12.9200,1.198
12.9600,1.194
13.0000,1.226
13.0400,1.209
13.0800,1.178
13.1200,1.216
13.1600,1.165
13.2000,1.197
13.2400,1.205
13.2800,1.172
13.3200,1.215
13.3600,1.187
13.4000,1.151
13.4400,1.171
13.4800,1.170
13.5200,1.187
13.5600,1.209
13.6000,1.168
13.6400,1.161
13.6800,1.124
13.7200,1.187
13.7600,1.169
13.8000,1.154
13.8400,1.168
13.8800,1.157
13.9200,1.133
13.9600,1.186
14.0000,1.141
14.0400,1.159
14.0800,1.137
14.1200,1.173
14.1600,1.181
14.2000,1.181
14.2400,1.184
14.2800,1.155
14.3200,1.187
14.3600,1.132
14.4000,1.179
14.4400,1.137
14.4800,1.204
14.5200,1.189
14.5600,1.110
14.6000,1.115
14.6400,1.169
14.6800,1.108
14.7200,1.140
14.7600,1.126
14.8000,1.149
14.8400,1.141
14.8800,1.128
14.9200,1.113
14.9600,1.117
15.0000,1.127
15.0400,1.108
15.0800,1.084
15.1200,1.065
15.1600,1.115
15.2000,1.134
15.2400,1.125
15.2800,1.083
15.3200,1.098
15.3600,1.117
15.4000,1.137
15.4400,1.072
15.4800,1.140
15.5200,1.108
15.5600,1.072
15.6000,1.105
15.6400,1.118
15.6800,1.090
15.7200,1.093
15.7600,1.180
15.8000,1.140
15.8400,1.114
15.8800,1.093
15.9200,1.111
15.9600,1.103
16.0000,1.084
16.0400,1.050
16.0800,1.121
16.1200,1.080
16.1600,1.102
16.2000,1.033
16.2400,1.071
16.2800,1.054
16.3200,1.069
16.3600,1.095
16.4000,1.061
16.4400,1.080
16.4800,1.051
16.5200,1.052
16.5600,1.084
16.6000,1.079
16.6400,1.062
16.6800,1.072
16.7200,1.058
16.7600,1.096
16.8000,1.060
16.8400,1.063
16.8800,1.052
16.9200,1.042
16.9600,1.052
17.0000,1.003
17.0400,1.055
17.0800,1.056
17.1200,1.049
17.1600,1.063
17.2000,1.082
17.2400,1.039
17.2800,1.057
17.3200,1.082
17.3600,1.054
17.4000,1.036
17.4400,1.021
17.4800,1.054
17.5200,1.042
17.5600,0.996
17.6000,0.999
17.6400,1.060
17.6800,1.024
17.7200,1.031
17.7600,0.993
17.8000,1.066
17.8400,1.034
17.8800,1.011
17.9200,1.016
17.9600,1.019
18.0000,1.017
18.0400,1.020
18.0800,0.989
18.1200,1.001
18.1600,0.984
18.2000,1.038
18.2400,1.044
18.2800,1.011
18.3200,0.971
18.3600,1.005
18.4000,0.980
18.4400,1.011
18.4800,1.061
18.5200,1.037
18.5600,0.961
18.6000,0.958
18.6400,0.997
18.6800,0.982
18.7200,0.955
18.7600,1.014
18.8000,1.005
18.8400,1.022
18.8800,1.015
18.9200,0.985
18.9600,0.959
19.0000,1.012
19.0400,0.996
19.0800,0.957
19.1200,1.022
19.1600,0.988
19.2000,1.007
19.2400,0.977
19.2800,1.029
19.3200,1.000
19.3600,0.980
19.4000,0.983
19.4400,0.970
19.4800,1.001
19.5200,0.956
19.5600,0.962
19.6000,0.934
19.6400,0.949
19.6800,0.977
19.7200,0.992
19.7600,0.942
19.8000,0.945
19.8400,0.946
19.8800,0.906
19.9200,0.926
19.9600,0.938
20.0000,0.962
20.0400,0.952
20.0800,0.978
20.1200,0.914
20.1600,0.946
20.2000,0.937
20.2400,0.971
20.2800,0.949
20.3200,0.936
20.3600,0.937
20.4000,0.962
20.4400,0.961
20.4800,1.004
20.5200,0.937
20.5600,0.973
20.6000,0.903
20.6400,0.922
20.6800,0.906
20.7200,0.918
20.7600,0.920
20.8000,0.978
20.8400,0.958
20.8800,0.907
20.9200,0.926
20.9600,0.902
21.0000,0.909
21.0400,0.939
21.0800,0.932
21.1200,0.898
21.1600,0.907
21.2000,0.934
21.2400,0.902
21.2800,0.905
21.3200,0.892
21.3600,0.897
21.4000,0.912
21.4400,0.887
21.4800,0.945
21.5200,0.951
21.5600,0.862
21.6000,0.892
21.6400,0.908
21.6800,0.857
21.7200,0.866
21.7600,0.864
21.8000,0.891
21.8400,0.925
21.8800,0.894
21.9200,0.902
21.9600,0.915
22.0000,0.883
22.0400,0.878
22.0800,0.876
22.1200,0.866
22.1600,0.905
22.2000,0.865
22.2400,0.879
22.2800,0.881
22.3200,0.844
22.3600,0.881
22.4000,0.870
22.4400,0.886
22.4800,0.892
22.5200,0.853
22.5600,0.879
22.6000,0.910
22.6400,0.882
22.6800,0.815
22.7200,0.883
22.7600,0.838
22.8000,0.910
22.8400,0.870
22.8800,0.880
22.9200,0.849
22.9600,0.862
23.0000,0.795
23.0400,0.839
23.0800,0.858
23.1200,0.851
23.1600,0.844
23.2000,0.885
23.2400,0.823
23.2800,0.824
23.3200,0.813
23.3600,0.841
23.4000,0.798
23.4400,0.795
23.4800,0.824
23.5200,0.821
23.5600,0.846
23.6000,0.825
23.6400,0.847
23.6800,0.849
23.7200,0.805
23.7600,0.826
23.8000,0.808
23.8400,0.845
23.8800,0.805
23.9200,0.820
23.9600,0.834
24.0000,0.800
24.0400,0.812
24.0800,0.847
24.1200,0.816
24.1600,0.829
24.2000,0.816
24.2400,0.799
24.2800,0.825
24.3200,0.805
24.3600,0.794
24.4000,0.798
24.4400,0.791
24.4800,0.794
24.5200,0.751
24.5600,0.792
24.6000,0.806
24.6400,0.846
24.6800,0.796
24.7200,0.765
24.7600,0.813
24.8000,0.758
24.8400,0.778
24.8800,0.749
24.9200,0.796
24.9600,0.780
25.0000,0.780
25.0400,0.778
25.0800,0.787
25.1200,0.778
25.1600,0.741
25.2000,0.785
25.2400,0.789
25.2800,0.737
25.3200,0.805
25.3600,0.754
25.4000,0.755
25.4400,0.765
25.4800,0.768
25.5200,0.771
25.5600,0.781
25.6000,0.780
25.6400,0.724
25.6800,0.745
25.7200,0.741
25.7600,0.723
25.8000,0.725
25.8400,0.737
25.8800,0.706
25.9200,0.733
25.9600,0.732
26.0000,0.759
26.0400,0.710
26.0800,0.769
26.1200,0.714
26.1600,0.756
26.2000,0.718
26.2400,0.745
26.2800,0.727
26.3200,0.738
26.3600,0.738
26.4000,0.737
26.4400,0.743
26.4800,0.735
26.5200,0.714
26.5600,0.725
26.6000,0.759
26.6400,0.716
26.6800,0.688
26.7200,0.704
26.7600,0.703
26.8000,0.734
26.8400,0.738
26.8800,0.736
26.9200,0.725
26.9600,0.725
27.0000,0.705
27.0400,0.721
27.0800,0.743
27.1200,0.698
27.1600,0.728
27.2000,0.690
27.2400,0.698
27.2800,0.720
27.3200,0.748
27.3600,0.730
27.4000,0.693
27.4400,0.694
27.4800,0.705
27.5200,0.697
27.5600,0.708
27.6000,0.679
27.6400,0.741
27.6800,0.692
27.7200,0.691
27.7600,0.703
27.8000,0.666
27.8400,0.680
27.8800,0.672
27.9200,0.650
27.9600,0.684
28.0000,0.687
28.0400,0.683
28.0800,0.682
28.1200,0.663
28.1600,0.701
28.2000,0.669
28.2400,0.627
28.2800,0.641
28.3200,0.659
28.3600,0.648
28.4000,0.700
28.4400,0.644
28.4800,0.662
28.5200,0.662
28.5600,0.634
28.6000,0.707
28.6400,0.633
28.6800,0.650
28.7200,0.676
28.7600,0.665
28.8000,0.678
28.8400,0.659
28.8800,0.695
28.9200,0.656
28.9600,0.641
29.0000,0.643
29.0400,0.637
29.0800,0.652
29.1200,0.647
29.1600,0.630
29.2000,0.662
29.2400,0.661
29.2800,0.636
29.3200,0.596
29.3600,0.649
29.4000,0.618
29.4400,0.622
29.4800,0.604
29.5200,0.630
29.5600,0.610
29.6000,0.617
29.6400,0.627
29.6800,0.645
29.7200,0.647
29.7600,0.635
29.8000,0.592
29.8400,0.630
29.8800,0.606
29.9200,0.647
29.9600,0.630
30.0000,0.607
30.0400,0.616
30.0800,0.620
30.1200,0.650
30.1600,0.614
30.2000,0.611
30.2400,0.668
30.2800,0.620
30.3200,0.623
30.3600,0.594
30.4000,0.590
30.4400,0.623
30.4800,0.574
30.5200,0.615
30.5600,0.603
30.6000,0.600
30.6400,0.627
30.6800,0.598
30.7200,0.595
30.7600,0.605
30.8000,0.599
30.8400,0.593
30.8800,0.602
30.9200,0.591
30.9600,0.591
31.0000,0.610
31.0400,0.586
31.0800,0.593
31.1200,0.573
31.1600,0.577
31.2000,0.600
31.2400,0.580
31.2800,0.583
31.3200,0.573
31.3600,0.545
31.4000,0.581
31.4400,0.563
31.4800,0.595
31.5200,0.539
31.5600,0.611
31.6000,0.603
31.6400,0.587
31.6800,0.598
31.7200,0.588
31.7600,0.563
31.8000,0.566
31.8400,0.596
31.8800,0.564
31.9200,0.573
31.9600,0.580
32.0000,0.529
32.0400,0.584
32.0800,0.543
32.1200,0.569
32.1600,0.571
32.2000,0.555
32.2400,0.571
32.2800,0.570
32.3200,0.574
32.3600,0.592
32.4000,0.560
32.4400,0.551
32.4800,0.541
32.5200,0.544
32.5600,0.528
32.6000,0.560
32.6400,0.544
32.6800,0.552
32.7200,0.551
32.7600,0.544
32.8000,0.552
32.8400,0.533
32.8800,0.543
32.9200,0.580
32.9600,0.518
33.0000,0.542
33.0400,0.516
33.0800,0.537
33.1200,0.532
33.1600,0.548
33.2000,0.548
33.2400,0.523
33.2800,0.561
33.3200,0.573
33.3600,0.583
33.4000,0.565
33.4400,0.561
33.4800,0.542
33.5200,0.574
33.5600,0.557
33.6000,0.531
33.6400,0.549
33.6800,0.516
33.7200,0.542
33.7600,0.517
33.8000,0.516
33.8400,0.516
33.8800,0.520
33.9200,0.538
33.9600,0.516
34.0000,0.499
34.0400,0.523
34.0800,0.470
34.1200,0.521
34.1600,0.540
34.2000,0.497
34.2400,0.516
34.2800,0.522
34.3200,0.535
34.3600,0.522
34.4000,0.501
34.4400,0.522
34.4800,0.508
34.5200,0.516
34.5600,0.497
34.6000,0.528
34.6400,0.522
34.6800,0.530
34.7200,0.515
34.7600,0.507
34.8000,0.514
34.8400,0.488
34.8800,0.487
34.9200,0.511
34.9600,0.531
35.0000,0.533
35.0400,0.510
35.0800,0.508
35.1200,0.508
35.1600,0.492
35.2000,0.451
35.2400,0.472
35.2800,0.499
35.3200,0.482
35.3600,0.463
35.4000,0.515
35.4400,0.509
35.4800,0.495
35.5200,0.476
35.5600,0.475
35.6000,0.469
35.6400,0.499
35.6800,0.495
35.7200,0.487
35.7600,0.465
35.8000,0.492
35.8400,0.471
35.8800,0.501
35.9200,0.498
35.9600,0.486
36.0000,0.542
36.0400,0.464
36.0800,0.482
36.1200,0.491
36.1600,0.493
36.2000,0.463
36.2400,0.507
36.2800,0.536
36.3200,0.481
36.3600,0.488
36.4000,0.496
36.4400,0.532
36.4800,0.504
36.5200,0.497
36.5600,0.498
36.6000,0.532
36.6400,0.512
36.6800,0.512
36.7200,0.460
36.7600,0.501
36.8000,0.530
36.8400,0.512
36.8800,0.547
36.9200,0.514
36.9600,0.535
37.0000,0.549
37.0400,0.508
37.0800,0.529
37.1200,0.540
37.1600,0.531
37.2000,0.531
37.2400,0.547
37.2800,0.510
37.3200,0.565
37.3600,0.569
37.4000,0.582
37.4400,0.548
37.4800,0.578
37.5200,0.626
37.5600,0.616
37.6000,0.663
37.6400,0.681
37.6800,0.696
37.7200,0.719
37.7600,0.788
37.8000,0.863
37.8400,0.946
37.8800,1.055
37.9200,1.216
37.9600,1.425
38.0000,1.750
38.0400,2.325
38.0800,3.430
38.1200,5.680
38.1600,9.668
38.2000,14.551
38.2400,17.716
38.2800,18.039
38.3200,15.689
38.3600,12.237
38.4000,8.384
38.4400,5.281
38.4800,3.220
38.5200,2.201
38.5600,1.740
38.6000,1.479
38.6400,1.231
38.6800,1.052
38.7200,0.926
38.7600,0.878
38.8000,0.794
38.8400,0.782
38.8800,0.697
38.9200,0.685
38.9600,0.654
39.0000,0.619
39.0400,0.638
39.0800,0.630
39.1200,0.611
39.1600,0.582
39.2000,0.572
39.2400,0.522
39.2800,0.586
39.3200,0.518
39.3600,0.500
39.4000,0.527
39.4400,0.488
39.4800,0.480
39.5200,0.461
39.5600,0.516
39.6000,0.479
39.6400,0.488
39.6800,0.452
39.7200,0.460
39.7600,0.476
39.8000,0.474
39.8400,0.459
39.8800,0.425
39.9200,0.443
39.9600,0.437
40.0000,0.446
40.0400,0.435
40.0800,0.454
40.1200,0.430
40.1600,0.437
40.2000,0.414
40.2400,0.419
40.2800,0.425
40.3200,0.424
40.3600,0.396
40.4000,0.398
40.4400,0.419
40.4800,0.412
40.5200,0.433
40.5600,0.434
40.6000,0.424
40.6400,0.400
40.6800,0.424
40.7200,0.386
40.7600,0.393
40.8000,0.433
40.8400,0.413
40.8800,0.403
40.9200,0.403
40.9600,0.401
41.0000,0.393
41.0400,0.417
41.0800,0.403
41.1200,0.411
41.1600,0.385
41.2000,0.372
41.2400,0.411
41.2800,0.399
41.3200,0.419
41.3600,0.379
41.4000,0.389
41.4400,0.379
41.4800,0.409
41.5200,0.434
41.5600,0.380
41.6000,0.391
41.6400,0.403
41.6800,0.410
41.7200,0.396
41.7600,0.418
41.8000,0.399
41.8400,0.368
41.8800,0.399
41.9200,0.379
41.9600,0.378
42.0000,0.345
42.0400,0.386
42.0800,0.359
42.1200,0.361
42.1600,0.397
42.2000,0.385
42.2400,0.388
42.2800,0.351
42.3200,0.374
42.3600,0.383
42.4000,0.391
42.4400,0.390
42.4800,0.379
42.5200,0.361
42.5600,0.373
42.6000,0.364
42.6400,0.374
42.6800,0.402
42.7200,0.380
42.7600,0.374
42.8000,0.414
42.8400,0.399
42.8800,0.379
42.9200,0.383
42.9600,0.352
43.0000,0.393
43.0400,0.381
43.0800,0.387
43.1200,0.406
43.1600,0.363
43.2000,0.376
43.2400,0.383
43.2800,0.383
43.3200,0.399
43.3600,0.391
43.4000,0.388
43.4400,0.406
43.4800,0.410
43.5200,0.452
43.5600,0.390
43.6000,0.417
43.6400,0.407
43.6800,0.433
43.7200,0.436
43.7600,0.429
43.8000,0.434
43.8400,0.453
43.8800,0.479
43.9200,0.493
43.9600,0.519
44.0000,0.521
44.0400,0.557
44.0800,0.623
44.1200,0.645
44.1600,0.711
44.2000,0.841
44.2400,0.908
44.2800,1.098
44.3200,1.311
44.3600,1.639
44.4000,2.145
44.4400,2.807
44.4800,3.554
44.5200,3.927
44.5600,4.170
44.6000,3.999
44.6400,3.537
44.6800,2.984
44.7200,2.273
44.7600,1.807
44.8000,1.395
44.8400,1.069
44.8800,0.908
44.9200,0.781
44.9600,0.667
45.0000,0.601
45.0400,0.567
45.0800,0.554
45.1200,0.477
45.1600,0.464
45.2000,0.475
45.2400,0.470
45.2800,0.433
45.3200,0.403
45.3600,0.396
45.4000,0.396
45.4400,0.386
45.4800,0.374
45.5200,0.375
45.5600,0.356
45.6000,0.351
45.6400,0.372
45.6800,0.342
45.7200,0.330
45.7600,0.349
45.8000,0.351
45.8400,0.325
45.8800,0.341
45.9200,0.320
45.9600,0.339
46.0000,0.321
46.0400,0.311
46.0800,0.323
46.1200,0.321
46.1600,0.314
46.2000,0.308
46.2400,0.330
46.2800,0.331
46.3200,0.299
46.3600,0.309
46.4000,0.307
46.4400,0.300
46.4800,0.314
46.5200,0.295
46.5600,0.331
46.6000,0.288
46.6400,0.281
46.6800,0.305
46.7200,0.312
46.7600,0.314
46.8000,0.309
46.8400,0.292
46.8800,0.305
46.9200,0.293
46.9600,0.316
47.0000,0.280
47.0400,0.297
47.0800,0.290
47.1200,0.308
47.1600,0.296
47.2000,0.282
47.2400,0.287
47.2800,0.286
47.3200,0.286
47.3600,0.280
47.4000,0.283
47.4400,0.264
47.4800,0.299
47.5200,0.296
47.5600,0.283
47.6000,0.289
47.6400,0.287
47.6800,0.293
47.7200,0.294
47.7600,0.272
47.8000,0.268
47.8400,0.290
47.8800,0.256
47.9200,0.287
47.9600,0.293
48.0000,0.278
48.0400,0.296
48.0800,0.282
48.1200,0.256
48.1600,0.280
48.2000,0.268
48.2400,0.279
48.2800,0.282
48.3200,0.280
48.3600,0.271
48.4000,0.281
48.4400,0.278
48.4800,0.259
48.5200,0.261
48.5600,0.280
48.6000,0.256
48.6400,0.279
48.6800,0.267
48.7200,0.254
48.7600,0.275
48.8000,0.274
48.8400,0.239
48.8800,0.271
48.9200,0.257
48.9600,0.262
49.0000,0.270
49.0400,0.247
49.0800,0.256
49.1200,0.271
49.1600,0.245
49.2000,0.255
49.2400,0.273
49.2800,0.271
49.3200,0.269
49.3600,0.271
49.4000,0.264
49.4400,0.259
49.4800,0.243
49.5200,0.259
49.5600,0.290
49.6000,0.263
49.6400,0.257
49.6800,0.271
49.7200,0.266
49.7600,0.250
49.8000,0.250
49.8400,0.247
49.8800,0.248
49.9200,0.227
49.9600,0.249
50.0000,0.231
50.0400,0.257
50.0800,0.255
50.1200,0.268
50.1600,0.251
50.2000,0.225
50.2400,0.262
50.2800,0.260
50.3200,0.272
50.3600,0.260
50.4000,0.269
50.4400,0.251
50.4800,0.247
50.5200,0.237
50.5600,0.255
50.6000,0.251
50.6400,0.240
50.6800,0.251
50.7200,0.248
50.7600,0.236
50.8000,0.254
50.8400,0.252
50.8800,0.240
50.9200,0.264
50.9600,0.243
51.0000,0.256
51.0400,0.240
51.0800,0.237
51.1200,0.250
51.1600,0.250
51.2000,0.240
51.2400,0.222
51.2800,0.241
51.3200,0.235
51.3600,0.236
51.4000,0.229
51.4400,0.240
51.4800,0.226
51.5200,0.243
51.5600,0.245
51.6000,0.244
51.6400,0.240
51.6800,0.240
51.7200,0.248
51.7600,0.239
51.8000,0.241
51.8400,0.235
51.8800,0.218
51.9200,0.262
51.9600,0.250
52.0000,0.237
52.0400,0.229
52.0800,0.237
52.1200,0.235
52.1600,0.243
52.2000,0.226
52.2400,0.228
52.2800,0.252
52.3200,0.245
52.3600,0.224
52.4000,0.248
52.4400,0.229
52.4800,0.210
52.5200,0.232
52.5600,0.238
52.6000,0.228
52.6400,0.229
52.6800,0.242
52.7200,0.253
52.7600,0.228
52.8000,0.223
52.8400,0.218
52.8800,0.228
52.9200,0.244
52.9600,0.241
53.0000,0.249
53.0400,0.240
53.0800,0.233
53.1200,0.229
53.1600,0.212
53.2000,0.245
53.2400,0.216
53.2800,0.206
53.3200,0.223
53.3600,0.232
53.4000,0.217
53.4400,0.239
53.4800,0.230
53.5200,0.239
53.5600,0.223
53.6000,0.245
53.6400,0.241
53.6800,0.208
53.7200,0.222
53.7600,0.245
53.8000,0.227
53.8400,0.215
53.8800,0.213
53.9200,0.213
53.9600,0.218
54.0000,0.210
54.0400,0.200
54.0800,0.228
54.1200,0.213
54.1600,0.207
54.2000,0.217
54.2400,0.220
54.2800,0.223
54.3200,0.231
54.3600,0.217
54.4000,0.206
54.4400,0.215
54.4800,0.223
54.5200,0.197
54.5600,0.206
54.6000,0.237
54.6400,0.209
54.6800,0.224
54.7200,0.210
54.7600,0.214
54.8000,0.228
54.8400,0.226
54.8800,0.221
54.9200,0.211
54.9600,0.205
55.0000,0.209
55.0400,0.208
55.0800,0.205
55.1200,0.210
55.1600,0.224
55.2000,0.219
55.2400,0.206
55.2800,0.212
55.3200,0.238
55.3600,0.217
55.4000,0.199
55.4400,0.206
55.4800,0.206
55.5200,0.206
55.5600,0.214
55.6000,0.194
55.6400,0.206
55.6800,0.206
55.7200,0.231
55.7600,0.227
55.8000,0.207
55.8400,0.200
55.8800,0.191
55.9200,0.226
55.9600,0.217
56.0000,0.209
56.0400,0.219
56.0800,0.217
56.1200,0.210
56.1600,0.203
56.2000,0.193
56.2400,0.220
56.2800,0.199
56.3200,0.210
56.3600,0.213
56.4000,0.213
56.4400,0.196
56.4800,0.194
56.5200,0.210
56.5600,0.203
56.6000,0.199
56.6400,0.195
56.6800,0.206
56.7200,0.207
56.7600,0.194
56.8000,0.201
56.8400,0.213
56.8800,0.200
56.9200,0.203
56.9600,0.213
57.0000,0.209
57.0400,0.205
57.0800,0.203
57.1200,0.193
57.1600,0.201
57.2000,0.218
57.2400,0.198
57.2800,0.187
57.3200,0.183
57.3600,0.209
57.4000,0.211
57.4400,0.201
57.4800,0.194
57.5200,0.214
57.5600,0.178
57.6000,0.196
57.6400,0.194
57.6800,0.177
57.7200,0.200
57.7600,0.197
57.8000,0.216
57.8400,0.221
57.8800,0.202
57.9200,0.184
57.9600,0.230
58.0000,0.185
58.0400,0.218
58.0800,0.204
58.1200,0.221
58.1600,0.207
58.2000,0.219
58.2400,0.185
58.2800,0.200
58.3200,0.183
58.3600,0.198
58.4000,0.203
58.4400,0.194
58.4800,0.195
58.5200,0.196
58.5600,0.203
58.6000,0.187
58.6400,0.213
58.6800,0.214
58.7200,0.194
58.7600,0.216
58.8000,0.215
58.8400,0.203
58.8800,0.211
58.9200,0.201
58.9600,0.196
59.0000,0.226
59.0400,0.211
59.0800,0.192
59.1200,0.200
59.1600,0.205
59.2000,0.200
59.2400,0.204
59.2800,0.193
59.3200,0.206
59.3600,0.219
59.4000,0.200
59.4400,0.213
59.4800,0.181
59.5200,0.187
59.5600,0.197
59.6000,0.222
59.6400,0.195
59.6800,0.187
59.7200,0.205
59.7600,0.186
59.8000,0.203
59.8400,0.203
59.8800,0.199
59.9200,0.212
59.9600,0.213
60.0000,0.192
60.0400,0.211
60.0800,0.205
60.1200,0.206
60.1600,0.201
60.2000,0.208
60.2400,0.209
60.2800,0.212
60.3200,0.207
60.3600,0.182
60.4000,0.199
60.4400,0.186
60.4800,0.189
60.5200,0.200
60.5600,0.181
60.6000,0.189
60.6400,0.202
60.6800,0.200
60.7200,0.186
60.7600,0.206
60.8000,0.189
60.8400,0.206
60.8800,0.202
60.9200,0.197
60.9600,0.206
61.0000,0.189
61.0400,0.210
61.0800,0.205
61.1200,0.196
61.1600,0.203
61.2000,0.199
61.2400,0.186
61.2800,0.179
61.3200,0.207
61.3600,0.205
61.4000,0.203
61.4400,0.194
61.4800,0.196
61.5200,0.222
61.5600,0.203
61.6000,0.226
61.6400,0.197
61.6800,0.219
61.7200,0.213
61.7600,0.202
61.8000,0.214
61.8400,0.232
61.8800,0.214
61.9200,0.218
61.9600,0.200
62.0000,0.231
62.0400,0.224
62.0800,0.185
62.1200,0.211
62.1600,0.195
62.2000,0.199
62.2400,0.198
62.2800,0.195
62.3200,0.200
62.3600,0.224
62.4000,0.228
62.4400,0.214
62.4800,0.208
62.5200,0.201
62.5600,0.229
62.6000,0.206
62.6400,0.226
62.6800,0.201
62.7200,0.212
62.7600,0.202
62.8000,0.204
62.8400,0.231
62.8800,0.206
62.9200,0.215
62.9600,0.227
63.0000,0.228
63.0400,0.228
63.0800,0.233
63.1200,0.220
63.1600,0.215
63.2000,0.224
63.2400,0.234
63.2800,0.234
63.3200,0.236
63.3600,0.240
63.4000,0.254
63.4400,0.246
63.4800,0.240
63.5200,0.245
63.5600,0.246
63.6000,0.240
63.6400,0.225
63.6800,0.257
63.7200,0.242
63.7600,0.241
63.8000,0.246
63.8400,0.272
63.8800,0.259
63.9200,0.258
63.9600,0.277
64.0000,0.276
64.0400,0.286
64.0800,0.288
64.1200,0.305
64.1600,0.293
64.2000,0.323
64.2400,0.349
64.2800,0.369
64.3200,0.390
64.3600,0.448
64.4000,0.479
64.4400,0.546
64.4800,0.656
64.5200,0.775
64.5600,0.991
64.6000,1.313
64.6400,1.828
64.6800,2.144
64.7200,2.401
64.7600,2.286
64.8000,2.065
64.8400,1.887
64.8800,1.729
64.9200,1.518
64.9600,1.252
65.0000,1.005
65.0400,0.767
65.0800,0.644
65.1200,0.542
65.1600,0.481
65.2000,0.449
65.2400,0.401
65.2800,0.392
65.3200,0.383
65.3600,0.365
65.4000,0.357
65.4400,0.346
65.4800,0.354
65.5200,0.333
65.5600,0.341
65.6000,0.322
65.6400,0.321
65.6800,0.312
65.7200,0.299
65.7600,0.331
65.8000,0.316
65.8400,0.315
65.8800,0.316
65.9200,0.321
65.9600,0.331
66.0000,0.322
66.0400,0.327
66.0800,0.329
66.1200,0.311
66.1600,0.329
66.2000,0.320
66.2400,0.320
66.2800,0.307
66.3200,0.304
66.3600,0.321
66.4000,0.318
66.4400,0.340
66.4800,0.356
66.5200,0.327
66.5600,0.349
66.6000,0.344
66.6400,0.373
66.6800,0.369
66.7200,0.335
66.7600,0.367
66.8000,0.360
66.8400,0.374
66.8800,0.372
66.9200,0.362
66.9600,0.378
67.0000,0.381
67.0400,0.405
67.0800,0.415
67.1200,0.408
67.1600,0.411
67.2000,0.396
67.2400,0.389
67.2800,0.422
67.3200,0.400
67.3600,0.449
67.4000,0.455
67.4400,0.453
67.4800,0.435
67.5200,0.452
67.5600,0.466
67.6000,0.485
67.6400,0.483
67.6800,0.477
67.7200,0.489
67.7600,0.499
67.8000,0.512
67.8400,0.547
67.8800,0.499
67.9200,0.517
67.9600,0.549
68.0000,0.581
68.0400,0.568
68.0800,0.564
68.1200,0.583
68.1600,0.594
68.2000,0.676
68.2400,0.640
68.2800,0.648
68.3200,0.678
68.3600,0.678
68.4000,0.707
68.4400,0.749
68.4800,0.769
68.5200,0.809
68.5600,0.811
68.6000,0.914
68.6400,1.051
68.6800,1.166
68.7200,1.419
68.7600,1.634
68.8000,1.880
68.8400,2.028
68.8800,2.215
68.9200,2.684
68.9600,3.984
69.0000,9.347
69.0400,35.238
69.0800,67.391
69.1200,81.530
69.1600,76.145
69.2000,47.360
69.2400,29.539
69.2800,39.604
69.3200,44.831
69.3600,39.922
69.4000,21.843
69.4400,6.605
69.4800,3.187
69.5200,2.229
69.5600,1.785
69.6000,1.536
69.6400,1.338
69.6800,1.236
69.7200,1.119
69.7600,1.050
69.8000,0.996
69.8400,0.974
69.8800,0.907
69.9200,0.860
69.9600,0.835
70.0000,0.808
70.0400,0.761
70.0800,0.753
70.1200,0.714
70.1600,0.741
70.2000,0.719
70.2400,0.659
70.2800,0.679
70.3200,0.632
70.3600,0.631
70.4000,0.627
70.4400,0.584
70.4800,0.606
70.5200,0.595
70.5600,0.566
70.6000,0.531
70.6400,0.537
70.6800,0.543
70.7200,0.507
70.7600,0.532
70.8000,0.491
70.8400,0.499
70.8800,0.478
70.9200,0.512
70.9600,0.482
71.0000,0.449
71.0400,0.485
71.0800,0.475
71.1200,0.434
71.1600,0.421
71.2000,0.435
71.2400,0.413
71.2800,0.442
71.3200,0.397
71.3600,0.405
71.4000,0.410
71.4400,0.392
71.4800,0.369
71.5200,0.374
71.5600,0.354
71.6000,0.371
71.6400,0.336
71.6800,0.357
71.7200,0.358
71.7600,0.333
71.8000,0.317
71.8400,0.317
71.8800,0.322
71.9200,0.312
71.9600,0.313
72.0000,0.324
72.0400,0.298
72.0800,0.301
72.1200,0.310
72.1600,0.324
72.2000,0.292
72.2400,0.290
72.2800,0.299
72.3200,0.303
72.3600,0.289
72.4000,0.273
72.4400,0.303
72.4800,0.269
72.5200,0.271
72.5600,0.274
72.6000,0.265
72.6400,0.255
72.6800,0.243
72.7200,0.247
72.7600,0.259
72.8000,0.248
72.8400,0.252
72.8800,0.234
72.9200,0.246
72.9600,0.243
73.0000,0.246
73.0400,0.242
73.0800,0.237
73.1200,0.258
73.1600,0.251
73.2000,0.253
73.2400,0.247
73.2800,0.231
73.3200,0.246
73.3600,0.235
73.4000,0.234
73.4400,0.230
73.4800,0.239
73.5200,0.229
73.5600,0.216
73.6000,0.222
73.6400,0.242
73.6800,0.209
73.7200,0.212
73.7600,0.208
73.8000,0.235
73.8400,0.233
73.8800,0.222
73.9200,0.218
73.9600,0.212
74.0000,0.206
74.0400,0.223
74.0800,0.195
74.1200,0.208
74.1600,0.198
74.2000,0.219
74.2400,0.199
74.2800,0.204
74.3200,0.196
74.3600,0.205
74.4000,0.216
74.4400,0.193
74.4800,0.190
74.5200,0.197
74.5600,0.199
74.6000,0.180
74.6400,0.209
74.6800,0.202
74.7200,0.208
74.7600,0.193
74.8000,0.202
74.8400,0.194
74.8800,0.190
74.9200,0.202
74.9600,0.191
75.0000,0.196
75.0400,0.173
75.0800,0.175
75.1200,0.188
75.1600,0.195
75.2000,0.198
75.2400,0.192
75.2800,0.188
75.3200,0.189
75.3600,0.208
75.4000,0.185
75.4400,0.189
75.4800,0.185
75.5200,0.191
75.5600,0.207
75.6000,0.167
75.6400,0.189
75.6800,0.163
75.7200,0.189
75.7600,0.181
75.8000,0.193
75.8400,0.189
75.8800,0.180
75.9200,0.198
75.9600,0.211
76.0000,0.175
76.0400,0.171
76.0800,0.182
76.1200,0.180
76.1600,0.192
76.2000,0.192
76.2400,0.190
76.2800,0.202
76.3200,0.189
76.3600,0.177
76.4000,0.176
76.4400,0.184
76.4800,0.202
76.5200,0.195
76.5600,0.182
76.6000,0.180
76.6400,0.206
76.6800,0.181
76.7200,0.191
76.7600,0.203
76.8000,0.208
76.8400,0.197
76.8800,0.187
76.9200,0.188
76.9600,0.198
77.0000,0.221
77.0400,0.218
77.0800,0.209
77.1200,0.261
77.1600,0.240
77.2000,0.220
77.2400,0.249
77.2800,0.257
77.3200,0.296
77.3600,0.317
77.4000,0.305
77.4400,0.369
77.4800,0.416
77.5200,0.492
77.5600,0.569
77.6000,0.698
77.6400,0.940
77.6800,1.174
77.7200,1.469
77.7600,1.643
77.8000,1.738
77.8400,1.753
77.8800,1.613
77.9200,1.513
77.9600,1.354
78.0000,1.227
78.0400,1.164
78.0800,1.047
78.1200,0.829
78.1600,0.682
78.2000,0.530
78.2400,0.464
78.2800,0.358
78.3200,0.366
78.3600,0.267
78.4000,0.266
78.4400,0.254
78.4800,0.228
78.5200,0.216
78.5600,0.221
78.6000,0.212
78.6400,0.207
78.6800,0.210
78.7200,0.209
78.7600,0.210
78.8000,0.201
78.8400,0.183
78.8800,0.199
78.9200,0.165
78.9600,0.174
79.0000,0.177
79.0400,0.180
79.0800,0.167
79.1200,0.171
79.1600,0.170
79.2000,0.187
79.2400,0.189
79.2800,0.167
79.3200,0.152
79.3600,0.171
79.4000,0.162
79.4400,0.159
79.4800,0.155
79.5200,0.161
79.5600,0.162
79.6000,0.171
79.6400,0.141
79.6800,0.159
79.7200,0.167
79.7600,0.163
79.8000,0.146
79.8400,0.168
79.8800,0.157
79.9200,0.159
79.9600,0.174
80.0000,0.169
