theta,intensity
5.0000,6.648
5.0400,6.562
5.0800,6.378
5.1200,6.405
5.1600,6.190
5.2000,6.162
5.2400,6.041
5.2800,5.909
5.3200,5.783
5.3600,5.707
5.4000,5.627
5.4400,5.668
5.4800,5.360
5.5200,5.449
5.5600,5.392
5.6000,5.280
5.6400,5.274
5.6800,5.192
5.7200,4.908
5.7600,5.156
5.8000,4.765
5.8400,4.974
5.8800,4.878
5.9200,4.696
5.9600,4.599
6.0000,4.564
6.0400,4.595
6.0800,4.459
6.1200,4.406
6.1600,4.431
6.2000,4.392
6.2400,4.355
6.2800,4.468
6.3200,4.304
6.3600,4.297
6.4000,4.331
6.4400,4.373
6.4800,4.422
6.5200,4.326
6.5600,4.296
6.6000,4.271
6.6400,4.292
6.6800,4.336
6.7200,4.321
6.7600,4.199
6.8000,4.267
6.8400,4.269
6.8800,4.190
6.9200,4.241
6.9600,4.217
7.0000,4.109
7.0400,4.168
7.0800,4.252
7.1200,4.069
7.1600,4.029
7.2000,4.251
7.2400,4.126
7.2800,4.159
7.3200,4.112
7.3600,4.090
7.4000,4.149
7.4400,4.106
7.4800,4.052
7.5200,4.102
7.5600,4.076
7.6000,4.014
7.6400,4.229
7.6800,4.071
7.7200,4.032
7.7600,4.018
7.8000,4.129
7.8400,4.056
7.8800,4.070
7.9200,4.120
7.9600,3.984
8.0000,4.113
8.0400,3.997
8.0800,4.044
8.1200,3.987
8.1600,4.043
8.2000,4.092
8.2400,4.060
8.2800,3.984
8.3200,3.982
8.3600,3.892
8.4000,4.057
8.4400,3.982
8.4800,4.209
8.5200,4.025
8.5600,4.017
8.6000,4.029
8.6400,3.854
8.6800,3.890
8.7200,3.890
8.7600,3.863
8.8000,3.947
8.8400,3.972
8.8800,3.930
8.9200,3.878
8.9600,3.902
9.0000,3.931
9.0400,3.941
9.0800,3.886
9.1200,3.934
9.1600,3.846
9.2000,3.867
9.2400,3.877
9.2800,3.985
9.3200,3.852
9.3600,3.848
9.4000,3.804
9.4400,3.755
9.4800,3.852
9.5200,3.818
9.5600,3.757
9.6000,3.792
9.6400,3.852
9.6800,3.839
9.7200,3.696
9.7600,3.734
9.8000,3.734
9.8400,3.797
9.8800,3.909
9.9200,3.821
9.9600,3.858
10.0000,3.863
10.0400,3.843
10.0800,3.840
10.1200,3.685
10.1600,3.727
10.2000,3.832
10.2400,3.776
10.2800,3.711
10.3200,3.723
10.3600,3.752
10.4000,3.729
10.4400,3.783
10.4800,3.632
10.5200,3.719
10.5600,3.699
10.6000,3.753
10.6400,3.749
10.6800,3.717
10.7200,3.632
10.7600,3.740
10.8000,3.689
10.8400,3.739
10.8800,3.599
10.9200,3.736
10.9600,3.697
11.0000,3.638
11.0400,3.737
11.0800,3.701
11.1200,3.613
11.1600,3.692
11.2000,3.554
11.2400,3.656
11.2800,3.699
11.3200,3.699
11.3600,3.642
11.4000,3.665
11.4400,3.648
11.4800,3.606
11.5200,3.656
11.5600,3.557
11.6000,3.646
11.6400,3.490
11.6800,3.567
11.7200,3.527
11.7600,3.576
11.8000,3.597
11.8400,3.675
11.8800,3.635
11.9200,3.505
11.9600,3.553
12.0000,3.638
12.0400,3.606
12.0800,3.646
12.1200,3.533
12.1600,3.511
12.2000,3.559
12.2400,3.541
12.2800,3.550
12.3200,3.541
12.3600,3.528
12.4000,3.556
12.4400,3.509
12.4800,3.600
12.5200,3.561
12.5600,3.532
12.6000,3.444
12.6400,3.563
12.6800,3.505
12.7200,3.451
12.7600,3.477
12.8000,3.456
12.8400,3.587
12.8800,3.443
12.9200,3.454
12.9600,3.530
13.0000,3.582
13.0400,3.446
13.0800,3.493
13.1200,3.485
13.1600,3.418
13.2000,3.464
13.2400,3.434
13.2800,3.435
13.3200,3.462
13.3600,3.418
13.4000,3.400
13.4400,3.437
13.4800,3.390
13.5200,3.372
13.5600,3.371
13.6000,3.369
13.6400,3.386
13.6800,3.398
13.7200,3.376
13.7600,3.389
13.8000,3.412
13.8400,3.493
13.8800,3.310
13.9200,3.371
13.9600,3.402
14.0000,3.303
14.0400,3.341
14.0800,3.318
14.1200,3.354
14.1600,3.367
14.2000,3.326
14.2400,3.345
14.2800,3.401
14.3200,3.416
14.3600,3.278
14.4000,3.304
14.4400,3.359
14.4800,3.390
14.5200,3.233
14.5600,3.171
14.6000,3.182
14.6400,3.315
14.6800,3.316
14.7200,3.249
14.7600,3.267
14.8000,3.225
14.8400,3.305
14.8800,3.360
14.9200,3.185
14.9600,3.216
15.0000,3.261
15.0400,3.147
15.0800,3.285
15.1200,3.179
15.1600,3.329
15.2000,3.253
15.2400,3.284
15.2800,3.273
15.3200,3.296
15.3600,3.211
15.4000,3.323
15.4400,3.207
15.4800,3.281
15.5200,3.192
15.5600,3.203
15.6000,3.158
15.6400,3.172
15.6800,3.306
15.7200,3.224
15.7600,3.139
15.8000,3.093
15.8400,3.220
15.8800,3.228
15.9200,3.128
15.9600,3.067
16.0000,3.032
16.0400,3.192
16.0800,3.117
16.1200,3.124
16.1600,3.185
16.2000,3.123
16.2400,3.206
16.2800,3.126
16.3200,3.171
16.3600,3.202
16.4000,3.147
16.4400,3.151
16.4800,3.106
16.5200,3.041
16.5600,3.107
16.6000,3.122
16.6400,3.200
16.6800,3.065
16.7200,3.040
16.7600,3.164
16.8000,3.068
16.8400,3.037
16.8800,3.019
16.9200,3.039
16.9600,3.091
17.0000,3.067
17.0400,3.068
17.0800,3.073
17.1200,2.942
17.1600,2.997
17.2000,3.066
17.2400,3.017
17.2800,3.009
17.3200,3.139
17.3600,3.009
17.4000,2.967
17.4400,3.006
17.4800,3.033
17.5200,2.944
17.5600,2.992
17.6000,3.027
17.6400,3.046
17.6800,3.097
17.7200,2.953
17.7600,2.894
17.8000,3.126
17.8400,2.958
17.8800,3.028
17.9200,3.048
17.9600,2.926
18.0000,2.959
18.0400,2.929
18.0800,3.119
18.1200,2.881
18.1600,2.891
18.2000,2.975
18.2400,2.937
18.2800,2.883
18.3200,2.996
18.3600,2.907
18.4000,3.022
18.4400,2.916
18.4800,2.898
18.5200,2.990
18.5600,3.058
18.6000,2.929
18.6400,2.915
18.6800,2.903
18.7200,2.919
18.7600,2.965
18.8000,2.941
18.8400,2.839
18.8800,2.819
18.9200,2.929
18.9600,2.782
19.0000,2.850
19.0400,2.915
19.0800,2.941
19.1200,2.857
19.1600,2.817
19.2000,2.790
19.2400,2.835
19.2800,2.780
19.3200,2.829
19.3600,2.876
19.4000,2.856
19.4400,2.932
19.4800,2.804
19.5200,2.813
19.5600,2.803
19.6000,2.802
19.6400,2.800
19.6800,2.827
19.7200,2.776
19.7600,2.795
19.8000,2.755
19.8400,2.914
19.8800,2.859
19.9200,2.838
19.9600,2.797
20.0000,2.823
20.0400,2.815
20.0800,2.774
20.1200,2.837
20.1600,2.806
20.2000,2.782
20.2400,2.803
20.2800,2.803
20.3200,2.808
20.3600,2.729
20.4000,2.843
20.4400,2.781
20.4800,2.756
20.5200,2.804
20.5600,2.757
20.6000,2.728
20.6400,2.786
20.6800,2.855
20.7200,2.782
20.7600,2.847
20.8000,2.800
20.8400,2.721
20.8800,2.746
20.9200,2.841
20.9600,2.816
21.0000,2.859
21.0400,2.791
21.0800,2.796
21.1200,2.825
21.1600,2.870
21.2000,2.837
21.2400,2.752
21.2800,2.863
21.3200,2.896
21.3600,2.899
21.4000,2.893
21.4400,2.822
21.4800,2.889
21.5200,2.851
21.5600,2.858
21.6000,2.758
21.6400,2.765
21.6800,2.827
21.7200,2.875
21.7600,2.781
21.8000,2.738
21.8400,2.779
21.8800,2.732
21.9200,2.795
21.9600,2.646
22.0000,2.706
22.0400,2.662
22.0800,2.717
22.1200,2.704
22.1600,2.670
22.2000,2.617
22.2400,2.679
22.2800,2.647
22.3200,2.724
22.3600,2.707
22.4000,2.671
22.4400,2.580
22.4800,2.598
22.5200,2.670
22.5600,2.686
22.6000,2.616
22.6400,2.582
22.6800,2.650
22.7200,2.489
22.7600,2.548
22.8000,2.561
22.8400,2.505
22.8800,2.468
22.9200,2.520
22.9600,2.576
23.0000,2.493
23.0400,2.549
23.0800,2.520
23.1200,2.444
23.1600,2.551
23.2000,2.494
23.2400,2.461
23.2800,2.507
23.3200,2.508
23.3600,2.474
23.4000,2.488
23.4400,2.552
23.4800,2.564
23.5200,2.490
23.5600,2.479
23.6000,2.478
23.6400,2.454
23.6800,2.374
23.7200,2.390
23.7600,2.488
23.8000,2.414
23.8400,2.390
23.8800,2.439
23.9200,2.459
23.9600,2.497
24.0000,2.457
24.0400,2.372
24.0800,2.365
24.1200,2.502
24.1600,2.384
24.2000,2.391
24.2400,2.465
24.2800,2.378
24.3200,2.356
24.3600,2.396
24.4000,2.423
24.4400,2.377
24.4800,2.418
24.5200,2.399
24.5600,2.424
24.6000,2.481
24.6400,2.372
24.6800,2.342
24.7200,2.390
24.7600,2.319
24.8000,2.395
24.8400,2.326
24.8800,2.354
24.9200,2.343
24.9600,2.371
25.0000,2.397
25.0400,2.297
25.0800,2.324
25.1200,2.260
25.1600,2.333
25.2000,2.320
25.2400,2.288
25.2800,2.340
25.3200,2.318
25.3600,2.355
25.4000,2.311
25.4400,2.325
25.4800,2.237
25.5200,2.264
25.5600,2.278
25.6000,2.207
25.6400,2.365
25.6800,2.297
25.7200,2.261
25.7600,2.220
25.8000,2.282
25.8400,2.286
25.8800,2.256
25.9200,2.203
25.9600,2.290
26.0000,2.212
26.0400,2.238
26.0800,2.245
26.1200,2.210
26.1600,2.280
26.2000,2.156
26.2400,2.160
26.2800,2.177
26.3200,2.227
26.3600,2.243
26.4000,2.224
26.4400,2.222
26.4800,2.240
26.5200,2.227
26.5600,2.219
26.6000,2.282
26.6400,2.139
26.6800,2.194
26.7200,2.267
26.7600,2.201
26.8000,2.189
26.8400,2.260
26.8800,2.189
26.9200,2.130
26.9600,2.213
27.0000,2.218
27.0400,2.185
27.0800,2.094
27.1200,2.237
27.1600,2.224
27.2000,2.195
27.2400,2.131
27.2800,2.193
27.3200,2.170
27.3600,2.215
27.4000,2.136
27.4400,2.177
27.4800,2.174
27.5200,2.141
27.5600,2.267
27.6000,2.142
27.6400,2.153
27.6800,2.167
27.7200,2.194
27.7600,2.202
27.8000,2.156
27.8400,2.177
27.8800,2.088
27.9200,2.163
27.9600,2.187
28.0000,2.069
28.0400,2.175
28.0800,2.149
28.1200,2.078
28.1600,2.107
28.2000,2.053
28.2400,2.167
28.2800,2.053
28.3200,2.091
28.3600,2.084
28.4000,2.026
28.4400,2.165
28.4800,2.128
28.5200,2.023
28.5600,2.021
28.6000,2.012
28.6400,2.041
28.6800,2.131
28.7200,2.058
28.7600,2.046
28.8000,2.089
28.8400,1.975
28.8800,2.015
28.9200,2.060
28.9600,2.123
29.0000,2.092
29.0400,2.163
29.0800,2.140
29.1200,2.084
29.1600,2.150
29.2000,2.093
29.2400,2.059
29.2800,1.996
29.3200,2.060
29.3600,2.152
29.4000,2.094
29.4400,2.130
29.4800,2.169
29.5200,2.098
29.5600,2.183
29.6000,2.118
29.6400,2.153
29.6800,2.171
29.7200,2.230
29.7600,2.217
29.8000,2.280
29.8400,2.304
29.8800,2.308
29.9200,2.394
29.9600,2.377
30.0000,2.468
30.0400,2.477
30.0800,2.518
30.1200,2.650
30.1600,2.640
30.2000,2.741
30.2400,2.734
30.2800,2.904
30.3200,2.853
30.3600,2.963
30.4000,3.149
30.4400,3.125
30.4800,3.279
30.5200,3.248
30.5600,3.327
30.6000,3.342
30.6400,3.363
30.6800,3.240
30.7200,3.193
30.7600,3.000
30.8000,2.950
30.8400,2.916
30.8800,2.855
30.9200,2.691
30.9600,2.575
31.0000,2.613
31.0400,2.499
31.0800,2.499
31.1200,2.397
31.1600,2.341
31.2000,2.266
31.2400,2.309
31.2800,2.162
31.3200,2.157
31.3600,2.188
31.4000,2.080
31.4400,2.069
31.4800,2.074
31.5200,2.058
31.5600,2.015
31.6000,1.978
31.6400,1.907
31.6800,1.951
31.7200,2.013
31.7600,1.933
31.8000,1.999
31.8400,1.916
31.8800,1.928
31.9200,1.922
31.9600,1.862
32.0000,1.900
32.0400,1.859
32.0800,1.832
32.1200,1.777
32.1600,1.792
32.2000,1.864
32.2400,1.882
32.2800,1.798
32.3200,1.738
32.3600,1.863
32.4000,1.816
32.4400,1.821
32.4800,1.843
32.5200,1.811
32.5600,1.839
32.6000,1.741
32.6400,1.855
32.6800,1.887
32.7200,1.816
32.7600,1.846
32.8000,1.767
32.8400,1.830
32.8800,1.789
32.9200,1.718
32.9600,1.800
33.0000,1.773
33.0400,1.802
33.0800,1.811
33.1200,1.890
33.1600,1.811
33.2000,1.779
33.2400,1.751
33.2800,1.731
33.3200,1.714
33.3600,1.729
33.4000,1.810
33.4400,1.794
33.4800,1.749
33.5200,1.746
33.5600,1.815
33.6000,1.766
33.6400,1.720
33.6800,1.713
33.7200,1.741
33.7600,1.740
33.8000,1.667
33.8400,1.740
33.8800,1.786
33.9200,1.685
33.9600,1.823
34.0000,1.719
34.0400,1.733
34.0800,1.807
34.1200,1.723
34.1600,1.722
34.2000,1.727
34.2400,1.756
34.2800,1.803
34.3200,1.750
34.3600,1.745
34.4000,1.681
34.4400,1.800
34.4800,1.762
34.5200,1.769
34.5600,1.816
34.6000,1.768
34.6400,1.720
34.6800,1.790
34.7200,1.759
34.7600,1.692
34.8000,1.886
34.8400,1.834
34.8800,1.861
34.9200,1.841
34.9600,1.886
35.0000,1.876
35.0400,1.973
35.0800,1.947
35.1200,2.045
35.1600,1.978
35.2000,2.072
35.2400,2.072
35.2800,2.120
35.3200,2.039
35.3600,2.132
35.4000,2.205
35.4400,2.314
35.4800,2.238
35.5200,2.298
35.5600,2.415
35.6000,2.434
35.6400,2.614
35.6800,2.673
35.7200,2.851
35.7600,2.844
35.8000,2.828
35.8400,2.660
35.8800,2.740
35.9200,2.636
35.9600,2.599
36.0000,2.616
36.0400,2.498
36.0800,2.567
36.1200,2.428
36.1600,2.458
36.2000,2.399
36.2400,2.318
36.2800,2.303
36.3200,2.330
36.3600,2.358
36.4000,2.275
36.4400,2.189
36.4800,2.175
36.5200,2.285
36.5600,2.272
36.6000,2.248
36.6400,2.316
36.6800,2.267
36.7200,2.234
36.7600,2.218
36.8000,2.253
36.8400,2.281
36.8800,2.316
36.9200,2.328
36.9600,2.249
37.0000,2.351
37.0400,2.462
37.0800,2.458
37.1200,2.582
37.1600,2.633
37.2000,2.699
37.2400,2.817
37.2800,2.889
37.3200,2.993
37.3600,3.189
37.4000,3.560
37.4400,3.851
37.4800,4.149
37.5200,4.787
37.5600,5.568
37.6000,6.373
37.6400,7.077
37.6800,7.728
37.7200,8.207
37.7600,9.033
37.8000,9.595
37.8400,10.106
37.8800,10.492
37.9200,10.553
37.9600,10.035
38.0000,9.466
38.0400,8.739
38.0800,7.809
38.1200,7.154
38.1600,6.258
38.2000,5.642
38.2400,5.125
38.2800,4.553
38.3200,4.251
38.3600,4.015
38.4000,3.829
38.4400,3.505
38.4800,3.247
38.5200,3.263
38.5600,3.079
38.6000,2.923
38.6400,2.783
38.6800,2.771
38.7200,2.722
38.7600,2.703
38.8000,2.663
38.8400,2.546
38.8800,2.578
38.9200,2.554
38.9600,2.548
39.0000,2.527
39.0400,2.684
39.0800,2.724
39.1200,2.628
39.1600,2.609
39.2000,2.588
39.2400,2.570
39.2800,2.613
39.3200,2.524
39.3600,2.623
39.4000,2.636
39.4400,2.594
39.4800,2.590
39.5200,2.525
39.5600,2.647
39.6000,2.477
39.6400,2.602
39.6800,2.560
39.7200,2.571
39.7600,2.543
39.8000,2.546
39.8400,2.661
39.8800,2.501
39.9200,2.606
39.9600,2.551
40.0000,2.583
40.0400,2.531
40.0800,2.550
40.1200,2.611
40.1600,2.640
40.2000,2.663
40.2400,2.575
40.2800,2.631
40.3200,2.699
40.3600,2.649
40.4000,2.821
40.4400,2.744
40.4800,2.644
40.5200,2.659
40.5600,2.601
40.6000,2.639
40.6400,2.535
40.6800,2.612
40.7200,2.473
40.7600,2.392
40.8000,2.458
40.8400,2.386
40.8800,2.463
40.9200,2.451
40.9600,2.337
41.0000,2.310
41.0400,2.334
41.0800,2.267
41.1200,2.297
41.1600,2.209
41.2000,2.091
41.2400,2.247
41.2800,2.158
41.3200,2.069
41.3600,2.125
41.4000,2.085
41.4400,2.064
41.4800,2.090
41.5200,2.067
41.5600,1.971
41.6000,1.999
41.6400,1.977
41.6800,1.923
41.7200,1.889
41.7600,1.916
41.8000,1.893
41.8400,1.846
41.8800,1.863
41.9200,1.803
41.9600,1.762
42.0000,1.822
42.0400,1.733
42.0800,1.724
42.1200,1.756
42.1600,1.746
42.2000,1.709
42.2400,1.673
42.2800,1.629
42.3200,1.626
42.3600,1.565
42.4000,1.617
42.4400,1.664
42.4800,1.657
42.5200,1.686
42.5600,1.687
42.6000,1.655
42.6400,1.637
42.6800,1.657
42.7200,1.654
42.7600,1.616
42.8000,1.611
42.8400,1.642
42.8800,1.624
42.9200,1.690
42.9600,1.636
43.0000,1.634
43.0400,1.758
43.0800,1.689
43.1200,1.721
43.1600,1.699
43.2000,1.772
43.2400,1.769
43.2800,1.835
43.3200,1.881
43.3600,1.850
43.4000,1.957
43.4400,2.003
43.4800,2.025
43.5200,2.018
43.5600,2.093
43.6000,2.065
43.6400,2.050
43.6800,2.056
43.7200,2.121
43.7600,2.172
43.8000,2.078
43.8400,2.206
43.8800,2.203
43.9200,2.304
43.9600,2.277
44.0000,2.434
44.0400,2.323
44.0800,2.354
44.1200,2.349
44.1600,2.369
44.2000,2.511
44.2400,2.439
44.2800,2.359
44.3200,2.334
44.3600,2.296
44.4000,2.347
44.4400,2.194
44.4800,2.112
44.5200,2.061
44.5600,1.934
44.6000,1.912
44.6400,1.904
44.6800,1.791
44.7200,1.769
44.7600,1.693
44.8000,1.644
44.8400,1.607
44.8800,1.606
44.9200,1.527
44.9600,1.495
45.0000,1.459
45.0400,1.432
45.0800,1.400
45.1200,1.392
45.1600,1.343
45.2000,1.364
45.2400,1.387
45.2800,1.293
45.3200,1.276
45.3600,1.306
45.4000,1.279
45.4400,1.268
45.4800,1.258
45.5200,1.205
45.5600,1.249
45.6000,1.241
45.6400,1.261
45.6800,1.224
45.7200,1.208
45.7600,1.219
45.8000,1.249
45.8400,1.221
45.8800,1.143
45.9200,1.156
45.9600,1.192
46.0000,1.158
46.0400,1.190
46.0800,1.124
46.1200,1.093
46.1600,1.078
46.2000,1.136
46.2400,1.063
46.2800,1.055
46.3200,1.055
46.3600,1.043
46.4000,1.115
46.4400,1.107
46.4800,1.081
46.5200,1.074
46.5600,1.025
46.6000,1.043
46.6400,1.044
46.6800,1.075
46.7200,1.069
46.7600,1.072
46.8000,1.022
46.8400,1.030
46.8800,1.007
46.9200,1.048
46.9600,1.000
47.0000,1.057
47.0400,0.987
47.0800,0.989
47.1200,1.009
47.1600,0.987
47.2000,1.061
47.2400,1.040
47.2800,1.034
47.3200,1.035
47.3600,0.974
47.4000,0.973
47.4400,1.022
47.4800,1.000
47.5200,0.965
47.5600,0.948
47.6000,0.976
47.6400,0.961
47.6800,0.922
47.7200,0.943
47.7600,0.977
47.8000,0.978
47.8400,0.954
47.8800,0.943
47.9200,0.952
47.9600,1.004
48.0000,0.958
48.0400,1.044
48.0800,0.999
48.1200,0.949
48.1600,0.953
48.2000,0.944
48.2400,0.978
48.2800,0.970
48.3200,0.895
48.3600,0.941
48.4000,0.930
48.4400,0.989
48.4800,1.041
48.5200,0.982
48.5600,0.910
48.6000,1.032
48.6400,0.913
48.6800,0.983
48.7200,1.019
48.7600,0.987
48.8000,0.967
48.8400,0.973
48.8800,0.958
48.9200,0.945
48.9600,0.945
49.0000,0.937
49.0400,0.954
49.0800,0.917
49.1200,0.978
49.1600,0.991
49.2000,0.895
49.2400,0.958
49.2800,0.966
49.3200,0.971
49.3600,0.999
49.4000,0.969
49.4400,0.914
49.4800,0.918
49.5200,0.993
49.5600,0.961
49.6000,0.953
49.6400,0.976
49.6800,1.034
49.7200,0.967
49.7600,0.996
49.8000,0.980
49.8400,0.943
49.8800,0.943
49.9200,0.986
49.9600,1.014
50.0000,0.967
50.0400,0.987
50.0800,0.979
50.1200,1.018
50.1600,0.981
50.2000,0.950
50.2400,0.976
50.2800,0.994
50.3200,0.950
50.3600,1.029
50.4000,1.005
50.4400,1.006
50.4800,1.019
50.5200,1.017
50.5600,1.039
50.6000,1.073
50.6400,1.091
50.6800,1.044
50.7200,1.049
50.7600,1.116
50.8000,1.147
50.8400,1.185
50.8800,1.147
50.9200,1.219
50.9600,1.210
51.0000,1.178
51.0400,1.177
51.0800,1.182
51.1200,1.122
51.1600,1.150
51.2000,1.060
51.2400,1.066
51.2800,1.110
51.3200,1.108
51.3600,1.084
51.4000,1.029
51.4400,1.037
51.4800,1.003
51.5200,1.004
51.5600,0.969
51.6000,0.955
51.6400,0.931
51.6800,0.934
51.7200,0.955
51.7600,0.926
51.8000,0.922
51.8400,0.883
51.8800,0.884
51.9200,0.906
51.9600,0.942
52.0000,0.840
52.0400,0.854
52.0800,0.852
52.1200,0.836
52.1600,0.822
52.2000,0.856
52.2400,0.890
52.2800,0.829
52.3200,0.892
52.3600,0.856
52.4000,0.866
52.4400,0.858
52.4800,0.842
52.5200,0.865
52.5600,0.831
52.6000,0.847
52.6400,0.847
52.6800,0.844
52.7200,0.819
52.7600,0.838
52.8000,0.867
52.8400,0.805
52.8800,0.851
52.9200,0.851
52.9600,0.805
53.0000,0.797
53.0400,0.834
53.0800,0.837
53.1200,0.792
53.1600,0.790
53.2000,0.836
53.2400,0.772
53.2800,0.760
53.3200,0.790
53.3600,0.790
53.4000,0.779
53.4400,0.822
53.4800,0.840
53.5200,0.789
53.5600,0.778
53.6000,0.722
53.6400,0.798
53.6800,0.752
53.7200,0.780
53.7600,0.761
53.8000,0.758
53.8400,0.764
53.8800,0.716
53.9200,0.759
53.9600,0.764
54.0000,0.763
54.0400,0.777
54.0800,0.811
54.1200,0.758
54.1600,0.749
54.2000,0.752
54.2400,0.756
54.2800,0.748
54.3200,0.764
54.3600,0.749
54.4000,0.762
54.4400,0.814
54.4800,0.792
54.5200,0.774
54.5600,0.740
54.6000,0.797
54.6400,0.838
54.6800,0.750
54.7200,0.740
54.7600,0.768
54.8000,0.718
54.8400,0.786
54.8800,0.759
54.9200,0.740
54.9600,0.725
55.0000,0.779
55.0400,0.749
55.0800,0.765
55.1200,0.724
55.1600,0.725
55.2000,0.747
55.2400,0.746
55.2800,0.783
55.3200,0.735
55.3600,0.765
55.4000,0.772
55.4400,0.733
55.4800,0.770
55.5200,0.792
55.5600,0.774
55.6000,0.703
55.6400,0.775
55.6800,0.783
55.7200,0.773
55.7600,0.711
55.8000,0.748
55.8400,0.750
55.8800,0.784
55.9200,0.780
55.9600,0.737
56.0000,0.754
56.0400,0.728
56.0800,0.746
56.1200,0.803
56.1600,0.768
56.2000,0.747
56.2400,0.744
56.2800,0.751
56.3200,0.778
56.3600,0.712
56.4000,0.716
56.4400,0.735
56.4800,0.736
56.5200,0.764
56.5600,0.764
56.6000,0.742
56.6400,0.737
56.6800,0.710
56.7200,0.699
56.7600,0.678
56.8000,0.682
56.8400,0.666
56.8800,0.686
56.9200,0.726
56.9600,0.714
57.0000,0.734
57.0400,0.694
57.0800,0.730
57.1200,0.681
57.1600,0.691
57.2000,0.727
57.2400,0.717
57.2800,0.702
57.3200,0.719
57.3600,0.699
57.4000,0.724
57.4400,0.708
57.4800,0.688
57.5200,0.731
57.5600,0.690
57.6000,0.706
57.6400,0.670
57.6800,0.720
57.7200,0.708
57.7600,0.693
57.8000,0.704
57.8400,0.667
57.8800,0.675
57.9200,0.679
57.9600,0.644
58.0000,0.681
58.0400,0.703
58.0800,0.720
58.1200,0.685
58.1600,0.703
58.2000,0.686
58.2400,0.652
58.2800,0.695
58.3200,0.668
58.3600,0.674
58.4000,0.634
58.4400,0.676
58.4800,0.690
58.5200,0.661
58.5600,0.661
58.6000,0.665
58.6400,0.697
58.6800,0.708
58.7200,0.731
58.7600,0.702
58.8000,0.685
58.8400,0.698
58.8800,0.701
58.9200,0.665
58.9600,0.702
59.0000,0.723
59.0400,0.711
59.0800,0.662
59.1200,0.685
59.1600,0.679
59.2000,0.674
59.2400,0.668
59.2800,0.703
59.3200,0.670
59.3600,0.703
59.4000,0.676
59.4400,0.714
59.4800,0.666
59.5200,0.663
59.5600,0.693
59.6000,0.715
59.6400,0.696
59.6800,0.710
59.7200,0.646
59.7600,0.675
59.8000,0.688
59.8400,0.665
59.8800,0.699
59.9200,0.719
59.9600,0.720
60.0000,0.723
60.0400,0.735
60.0800,0.754
60.1200,0.745
60.1600,0.718
60.2000,0.775
60.2400,0.725
60.2800,0.707
60.3200,0.761
60.3600,0.770
60.4000,0.771
60.4400,0.780
60.4800,0.781
60.5200,0.845
60.5600,0.830
60.6000,0.812
60.6400,0.838
60.6800,0.838
60.7200,0.790
60.7600,0.847
60.8000,0.805
60.8400,0.800
60.8800,0.767
60.9200,0.751
60.9600,0.767
61.0000,0.770
61.0400,0.766
61.0800,0.783
61.1200,0.759
61.1600,0.695
61.2000,0.671
61.2400,0.706
61.2800,0.703
61.3200,0.686
61.3600,0.683
61.4000,0.668
61.4400,0.682
61.4800,0.675
61.5200,0.665
61.5600,0.631
61.6000,0.727
61.6400,0.793
61.6800,0.719
61.7200,0.697
61.7600,0.669
61.8000,0.682
61.8400,0.667
61.8800,0.612
61.9200,0.675
61.9600,0.675
62.0000,0.688
62.0400,0.657
62.0800,0.669
62.1200,0.700
62.1600,0.700
62.2000,0.699
62.2400,0.706
62.2800,0.652
62.3200,0.634
62.3600,0.658
62.4000,0.663
62.4400,0.647
62.4800,0.637
62.5200,0.676
62.5600,0.659
62.6000,0.731
62.6400,0.696
62.6800,0.632
62.7200,0.666
62.7600,0.691
62.8000,0.756
62.8400,0.683
62.8800,0.690
62.9200,0.735
62.9600,0.685
63.0000,0.729
63.0400,0.686
63.0800,0.727
63.1200,0.741
63.1600,0.745
63.2000,0.735
63.2400,0.783
63.2800,0.749
63.3200,0.765
63.3600,0.804
63.4000,0.850
63.4400,0.839
63.4800,0.925
63.5200,0.914
63.5600,0.972
63.6000,1.007
63.6400,1.028
63.6800,1.062
63.7200,1.133
63.7600,1.253
63.8000,1.345
63.8400,1.421
63.8800,1.563
63.9200,1.641
63.9600,1.763
64.0000,1.784
64.0400,1.827
64.0800,1.993
64.1200,2.023
64.1600,1.969
64.2000,1.894
64.2400,1.840
64.2800,1.741
64.3200,1.741
64.3600,1.591
64.4000,1.503
64.4400,1.452
64.4800,1.414
64.5200,1.273
64.5600,1.245
64.6000,1.114
64.6400,1.144
64.6800,1.053
64.7200,1.029
64.7600,1.067
64.8000,0.952
64.8400,0.945
64.8800,0.941
64.9200,0.903
64.9600,0.898
65.0000,0.921
65.0400,0.855
65.0800,0.880
65.1200,0.835
65.1600,0.792
65.2000,0.789
65.2400,0.809
65.2800,0.802
65.3200,0.746
65.3600,0.760
65.4000,0.737
65.4400,0.766
65.4800,0.744
65.5200,0.742
65.5600,0.723
65.6000,0.726
65.6400,0.776
65.6800,0.765
65.7200,0.744
65.7600,0.707
65.8000,0.758
65.8400,0.726
65.8800,0.732
65.9200,0.737
65.9600,0.730
66.0000,0.756
66.0400,0.771
66.0800,0.728
66.1200,0.808
66.1600,0.768
66.2000,0.776
66.2400,0.740
66.2800,0.764
66.3200,0.818
66.3600,0.818
66.4000,0.824
66.4400,0.788
66.4800,0.814
66.5200,0.870
66.5600,0.820
66.6000,0.792
66.6400,0.840
66.6800,0.852
66.7200,0.838
66.7600,0.871
66.8000,0.870
66.8400,0.891
66.8800,0.831
66.9200,0.903
66.9600,0.909
67.0000,0.951
67.0400,0.979
67.0800,0.996
67.1200,0.967
67.1600,0.966
67.2000,0.998
67.2400,1.020
67.2800,1.006
67.3200,1.042
67.3600,1.030
67.4000,1.056
67.4400,1.068
67.4800,0.998
67.5200,1.096
67.5600,1.097
67.6000,1.103
67.6400,1.165
67.6800,1.227
67.7200,1.194
67.7600,1.206
67.8000,1.322
67.8400,1.280
67.8800,1.312
67.9200,1.308
67.9600,1.369
68.0000,1.384
68.0400,1.424
68.0800,1.476
68.1200,1.524
68.1600,1.527
68.2000,1.547
68.2400,1.659
68.2800,1.730
68.3200,1.739
68.3600,1.846
68.4000,1.839
68.4400,1.949
68.4800,2.038
68.5200,2.208
68.5600,2.312
68.6000,2.532
68.6400,2.663
68.6800,3.137
68.7200,3.774
68.7600,4.808
68.8000,5.604
68.8400,5.733
68.8800,5.949
68.9200,7.061
68.9600,9.301
69.0000,14.811
69.0400,31.199
69.0800,140.154
69.1200,350.917
69.1600,272.278
69.2000,77.791
69.2400,36.864
69.2800,87.848
69.3200,180.882
69.3600,133.353
69.4000,39.229
69.4400,14.206
69.4800,8.554
69.5200,6.346
69.5600,5.180
69.6000,4.316
69.6400,3.736
69.6800,3.470
69.7200,3.077
69.7600,2.819
69.8000,2.569
69.8400,2.407
69.8800,2.287
69.9200,2.191
69.9600,2.183
70.0000,2.029
70.0400,2.045
70.0800,1.872
70.1200,1.895
70.1600,1.735
70.2000,1.635
70.2400,1.668
70.2800,1.614
70.3200,1.549
70.3600,1.506
70.4000,1.439
70.4400,1.364
70.4800,1.359
70.5200,1.390
70.5600,1.346
70.6000,1.297
70.6400,1.272
70.6800,1.281
70.7200,1.203
70.7600,1.189
70.8000,1.154
70.8400,1.106
70.8800,1.111
70.9200,1.100
70.9600,1.047
71.0000,1.020
71.0400,0.979
71.0800,1.011
71.1200,1.007
71.1600,1.020
71.2000,0.962
71.2400,0.922
71.2800,0.958
71.3200,0.947
71.3600,0.922
71.4000,0.880
71.4400,0.886
71.4800,0.869
71.5200,0.827
71.5600,0.773
71.6000,0.841
71.6400,0.811
71.6800,0.775
71.7200,0.794
71.7600,0.768
71.8000,0.677
71.8400,0.755
71.8800,0.691
71.9200,0.738
71.9600,0.720
72.0000,0.725
72.0400,0.659
72.0800,0.669
72.1200,0.732
72.1600,0.643
72.2000,0.691
72.2400,0.655
72.2800,0.681
72.3200,0.600
72.3600,0.623
72.4000,0.653
72.4400,0.600
72.4800,0.641
72.5200,0.637
72.5600,0.585
72.6000,0.538
72.6400,0.623
72.6800,0.590
72.7200,0.566
72.7600,0.581
72.8000,0.601
72.8400,0.570
72.8800,0.542
72.9200,0.566
72.9600,0.551
73.0000,0.575
73.0400,0.550
73.0800,0.584
73.1200,0.544
73.1600,0.572
73.2000,0.518
73.2400,0.533
73.2800,0.575
73.3200,0.559
73.3600,0.554
73.4000,0.542
73.4400,0.559
73.4800,0.538
73.5200,0.541
73.5600,0.523
73.6000,0.526
73.6400,0.512
73.6800,0.509
73.7200,0.530
73.7600,0.528
73.8000,0.528
73.8400,0.533
73.8800,0.485
73.9200,0.522
73.9600,0.501
74.0000,0.480
74.0400,0.514
74.0800,0.502
74.1200,0.532
74.1600,0.498
74.2000,0.478
74.2400,0.477
74.2800,0.504
74.3200,0.527
74.3600,0.519
74.4000,0.457
74.4400,0.509
74.4800,0.476
74.5200,0.523
74.5600,0.544
74.6000,0.492
74.6400,0.471
74.6800,0.487
74.7200,0.502
74.7600,0.508
74.8000,0.479
74.8400,0.506
74.8800,0.511
74.9200,0.486
74.9600,0.497
75.0000,0.538
75.0400,0.530
75.0800,0.524
75.1200,0.510
75.1600,0.509
75.2000,0.519
75.2400,0.528
75.2800,0.508
75.3200,0.521
75.3600,0.507
75.4000,0.508
75.4400,0.556
75.4800,0.564
75.5200,0.535
75.5600,0.608
75.6000,0.569
75.6400,0.604
75.6800,0.586
75.7200,0.577
75.7600,0.591
75.8000,0.599
75.8400,0.630
75.8800,0.665
75.9200,0.640
75.9600,0.660
76.0000,0.658
76.0400,0.672
76.0800,0.707
76.1200,0.693
76.1600,0.730
76.2000,0.774
76.2400,0.761
76.2800,0.743
76.3200,0.845
76.3600,0.902
76.4000,0.847
76.4400,0.890
76.4800,0.898
76.5200,0.995
76.5600,1.055
76.6000,1.125
76.6400,1.081
76.6800,1.179
76.7200,1.197
76.7600,1.241
76.8000,1.234
76.8400,1.317
76.8800,1.298
76.9200,1.304
76.9600,1.310
77.0000,1.329
77.0400,1.229
77.0800,1.284
77.1200,1.256
77.1600,1.204
77.2000,1.180
77.2400,1.151
77.2800,1.109
77.3200,1.087
77.3600,1.109
77.4000,1.044
77.4400,1.030
77.4800,0.908
77.5200,0.918
77.5600,0.869
77.6000,0.832
77.6400,0.838
77.6800,0.822
77.7200,0.789
77.7600,0.732
77.8000,0.726
77.8400,0.696
77.8800,0.725
77.9200,0.676
77.9600,0.684
78.0000,0.663
78.0400,0.647
78.0800,0.620
78.1200,0.598
78.1600,0.574
78.2000,0.575
78.2400,0.625
78.2800,0.602
78.3200,0.559
78.3600,0.563
78.4000,0.584
78.4400,0.553
78.4800,0.497
78.5200,0.555
78.5600,0.529
78.6000,0.556
78.6400,0.545
78.6800,0.504
78.7200,0.559
78.7600,0.560
78.8000,0.510
78.8400,0.532
78.8800,0.508
78.9200,0.516
78.9600,0.544
79.0000,0.554
79.0400,0.543
79.0800,0.503
79.1200,0.508
79.1600,0.492
79.2000,0.497
79.2400,0.502
79.2800,0.471
79.3200,0.526
79.3600,0.470
79.4000,0.482
79.4400,0.459
79.4800,0.483
79.5200,0.474
79.5600,0.469
79.6000,0.456
79.6400,0.454
79.6800,0.435
79.7200,0.468
79.7600,0.439
79.8000,0.434
79.8400,0.429
79.8800,0.421
79.9200,0.429
79.9600,0.423
80.0000,0.435
