theta,intensity
5.0000,4.871
5.0400,4.919
5.0800,4.783
5.1200,4.809
5.1600,4.836
5.2000,4.799
5.2400,4.783
5.2800,4.798
5.3200,4.824
5.3600,4.768
5.4000,4.704
5.4400,4.708
5.4800,4.733
5.5200,4.687
5.5600,4.513
5.6000,4.607
5.6400,4.594
5.6800,4.627
5.7200,4.614
5.7600,4.473
5.8000,4.536
5.8400,4.598
5.8800,4.545
5.9200,4.504
5.9600,4.357
6.0000,4.373
6.0400,4.354
6.0800,4.359
6.1200,4.216
6.1600,4.256
6.2000,4.209
6.2400,4.185
6.2800,4.189
6.3200,4.117
6.3600,4.065
6.4000,4.172
6.4400,4.240
6.4800,4.145
6.5200,4.135
6.5600,4.113
6.6000,4.060
6.6400,3.934
6.6800,3.982
6.7200,4.272
6.7600,4.049
6.8000,4.190
6.8400,4.027
6.8800,4.068
6.9200,4.011
6.9600,4.079
7.0000,4.117
7.0400,4.076
7.0800,4.099
7.1200,4.029
7.1600,3.956
7.2000,3.959
7.2400,3.994
7.2800,4.016
7.3200,3.968
7.3600,4.038
7.4000,4.041
7.4400,3.993
7.4800,3.813
7.5200,3.920
7.5600,3.952
7.6000,4.021
7.6400,3.949
7.6800,3.950
7.7200,3.933
7.7600,4.078
7.8000,3.956
7.8400,3.900
7.8800,3.845
7.9200,3.906
7.9600,3.951
8.0000,3.909
8.0400,3.898
8.0800,3.914
8.1200,3.917
8.1600,3.981
8.2000,3.870
8.2400,3.902
8.2800,3.831
8.3200,3.726
8.3600,3.808
8.4000,3.840
8.4400,3.846
8.4800,3.851
8.5200,3.771
8.5600,3.857
8.6000,3.956
8.6400,3.856
8.6800,3.763
8.7200,3.812
8.7600,3.713
8.8000,3.740
8.8400,3.866
8.8800,3.735
8.9200,3.791
8.9600,3.753
9.0000,3.875
9.0400,3.852
9.0800,3.818
9.1200,3.733
9.1600,3.777
9.2000,3.773
9.2400,3.695
9.2800,3.733
9.3200,3.687
9.3600,3.753
9.4000,3.866
9.4400,3.759
9.4800,3.845
9.5200,3.767
9.5600,3.786
9.6000,3.871
9.6400,3.815
9.6800,3.724
9.7200,3.717
9.7600,3.695
9.8000,3.808
9.8400,3.763
9.8800,3.710
9.9200,3.718
9.9600,3.821
10.0000,3.759
10.0400,3.795
10.0800,3.718
10.1200,3.638
10.1600,3.779
10.2000,3.604
10.2400,3.681
10.2800,3.676
10.3200,3.727
10.3600,3.642
10.4000,3.757
10.4400,3.639
10.4800,3.795
10.5200,3.714
10.5600,3.691
10.6000,3.745
10.6400,3.648
10.6800,3.545
10.7200,3.543
10.7600,3.583
10.8000,3.553
10.8400,3.656
10.8800,3.667
10.9200,3.538
10.9600,3.514
11.0000,3.515
11.0400,3.543
11.0800,3.581
11.1200,3.519
11.1600,3.643
11.2000,3.613
11.2400,3.660
11.2800,3.579
11.3200,3.585
11.3600,3.501
11.4000,3.444
11.4400,3.481
11.4800,3.567
11.5200,3.667
11.5600,3.574
11.6000,3.496
11.6400,3.388
11.6800,3.412
11.7200,3.503
11.7600,3.491
11.8000,3.438
11.8400,3.428
11.8800,3.507
11.9200,3.515
11.9600,3.442
12.0000,3.417
12.0400,3.435
12.0800,3.441
12.1200,3.406
12.1600,3.462
12.2000,3.461
12.2400,3.496
12.2800,3.483
12.3200,3.434
12.3600,3.488
12.4000,3.385
12.4400,3.523
12.4800,3.593
12.5200,3.436
12.5600,3.399
12.6000,3.474
12.6400,3.463
12.6800,3.474
12.7200,3.447
12.7600,3.448
12.8000,3.408
12.8400,3.407
12.8800,3.469
12.9200,3.415
12.9600,3.565
13.0000,3.423
13.0400,3.433
13.0800,3.391
13.1200,3.457
13.1600,3.408
13.2000,3.360
13.2400,3.393
13.2800,3.375
13.3200,3.301
13.3600,3.310
13.4000,3.373
13.4400,3.395
13.4800,3.328
13.5200,3.376
13.5600,3.451
13.6000,3.298
13.6400,3.347
13.6800,3.403
13.7200,3.355
13.7600,3.379
13.8000,3.407
13.8400,3.413
13.8800,3.383
13.9200,3.345
13.9600,3.244
14.0000,3.307
14.0400,3.260
14.0800,3.366
14.1200,3.369
14.1600,3.378
14.2000,3.288
14.2400,3.263
14.2800,3.301
14.3200,3.285
14.3600,3.253
14.4000,3.260
14.4400,3.363
14.4800,3.333
14.5200,3.267
14.5600,3.331
14.6000,3.275
14.6400,3.172
14.6800,3.250
14.7200,3.238
14.7600,3.254
14.8000,3.187
14.8400,3.251
14.8800,3.384
14.9200,3.200
14.9600,3.267
15.0000,3.274
15.0400,3.390
15.0800,3.183
15.1200,3.303
15.1600,3.235
15.2000,3.197
15.2400,3.154
15.2800,3.187
15.3200,3.249
15.3600,3.146
15.4000,3.133
15.4400,3.116
15.4800,3.172
15.5200,3.165
15.5600,3.168
15.6000,3.081
15.6400,3.151
15.6800,3.251
15.7200,3.159
15.7600,3.225
15.8000,3.141
15.8400,3.149
15.8800,3.141
15.9200,3.113
15.9600,3.088
16.0000,3.139
16.0400,3.160
16.0800,3.066
16.1200,3.087
16.1600,3.168
16.2000,3.097
16.2400,3.122
16.2800,3.126
16.3200,3.105
16.3600,3.207
16.4000,3.088
16.4400,3.068
16.4800,3.077
16.5200,3.081
16.5600,3.019
16.6000,2.973
16.6400,2.981
16.6800,3.151
16.7200,3.087
16.7600,3.118
16.8000,3.105
16.8400,3.053
16.8800,2.994
16.9200,3.089
16.9600,3.055
17.0000,3.022
17.0400,3.020
17.0800,3.063
17.1200,3.059
17.1600,3.035
17.2000,2.941
17.2400,3.023
17.2800,2.961
17.3200,3.021
17.3600,3.030
17.4000,3.012
17.4400,2.991
17.4800,3.082
17.5200,2.983
17.5600,2.994
17.6000,3.044
17.6400,3.027
17.6800,3.022
17.7200,3.043
17.7600,2.968
17.8000,2.903
17.8400,2.838
17.8800,2.883
17.9200,2.990
17.9600,2.944
18.0000,2.982
18.0400,2.992
18.0800,3.021
18.1200,2.858
18.1600,2.930
18.2000,2.914
18.2400,2.913
18.2800,2.964
18.3200,2.960
18.3600,2.912
18.4000,2.911
18.4400,2.868
18.4800,2.930
18.5200,2.834
18.5600,2.779
18.6000,2.910
18.6400,2.957
18.6800,2.866
18.7200,2.916
18.7600,2.914
18.8000,2.875
18.8400,2.945
18.8800,2.930
18.9200,2.825
18.9600,2.900
19.0000,2.906
19.0400,2.861
19.0800,2.832
19.1200,2.806
19.1600,2.857
19.2000,2.811
19.2400,2.860
19.2800,2.780
19.3200,2.753
19.3600,2.781
19.4000,2.920
19.4400,2.876
19.4800,2.897
19.5200,2.806
19.5600,2.778
19.6000,2.750
19.6400,2.808
19.6800,2.825
19.7200,2.779
19.7600,2.840
19.8000,2.864
19.8400,2.739
19.8800,2.743
19.9200,2.823
19.9600,2.761
20.0000,2.735
20.0400,2.614
20.0800,2.720
20.1200,2.712
20.1600,2.847
20.2000,2.755
20.2400,2.697
20.2800,2.677
20.3200,2.763
20.3600,2.774
20.4000,2.838
20.4400,2.733
20.4800,2.717
20.5200,2.726
20.5600,2.700
20.6000,2.731
20.6400,2.619
20.6800,2.674
20.7200,2.767
20.7600,2.648
20.8000,2.636
20.8400,2.793
20.8800,2.772
20.9200,2.682
20.9600,2.668
21.0000,2.684
21.0400,2.765
21.0800,2.597
21.1200,2.641
21.1600,2.665
21.2000,2.665
21.2400,2.702
21.2800,2.711
21.3200,2.605
21.3600,2.667
21.4000,2.641
21.4400,2.598
21.4800,2.713
21.5200,2.664
21.5600,2.751
21.6000,2.647
21.6400,2.612
21.6800,2.626
21.7200,2.553
21.7600,2.557
21.8000,2.622
21.8400,2.661
21.8800,2.631
21.9200,2.717
21.9600,2.591
22.0000,2.598
22.0400,2.531
22.0800,2.547
22.1200,2.579
22.1600,2.459
22.2000,2.478
22.2400,2.554
22.2800,2.484
22.3200,2.546
22.3600,2.492
22.4000,2.622
22.4400,2.480
22.4800,2.498
22.5200,2.466
22.5600,2.474
22.6000,2.625
22.6400,2.547
22.6800,2.551
22.7200,2.530
22.7600,2.570
22.8000,2.426
22.8400,2.478
22.8800,2.521
22.9200,2.548
22.9600,2.472
23.0000,2.464
23.0400,2.460
23.0800,2.334
23.1200,2.393
23.1600,2.501
23.2000,2.402
23.2400,2.486
23.2800,2.434
23.3200,2.559
23.3600,2.533
23.4000,2.470
23.4400,2.486
23.4800,2.553
23.5200,2.449
23.5600,2.401
23.6000,2.397
23.6400,2.397
23.6800,2.506
23.7200,2.371
23.7600,2.378
23.8000,2.322
23.8400,2.462
23.8800,2.296
23.9200,2.425
23.9600,2.389
24.0000,2.440
24.0400,2.390
24.0800,2.488
24.1200,2.509
24.1600,2.412
24.2000,2.401
24.2400,2.371
24.2800,2.407
24.3200,2.410
24.3600,2.415
24.4000,2.328
24.4400,2.384
24.4800,2.342
24.5200,2.418
24.5600,2.306
24.6000,2.374
24.6400,2.314
24.6800,2.446
24.7200,2.325
24.7600,2.343
24.8000,2.430
24.8400,2.391
24.8800,2.318
24.9200,2.271
24.9600,2.445
25.0000,2.420
25.0400,2.287
25.0800,2.325
25.1200,2.289
25.1600,2.306
25.2000,2.290
25.2400,2.320
25.2800,2.325
25.3200,2.244
25.3600,2.276
25.4000,2.238
25.4400,2.329
25.4800,2.411
25.5200,2.321
25.5600,2.291
25.6000,2.188
25.6400,2.301
25.6800,2.329
25.7200,2.193
25.7600,2.134
25.8000,2.107
25.8400,2.217
25.8800,2.273
25.9200,2.211
25.9600,2.171
26.0000,2.255
26.0400,2.216
26.0800,2.231
26.1200,2.221
26.1600,2.241
26.2000,2.213
26.2400,2.222
26.2800,2.249
26.3200,2.212
26.3600,2.207
26.4000,2.161
26.4400,2.057
26.4800,2.236
26.5200,2.282
26.5600,2.144
26.6000,2.168
26.6400,2.131
26.6800,2.097
26.7200,2.202
26.7600,2.192
26.8000,2.120
26.8400,2.144
26.8800,2.242
26.9200,2.206
26.9600,2.159
27.0000,2.150
27.0400,2.117
27.0800,2.155
27.1200,2.164
27.1600,2.138
27.2000,2.128
27.2400,2.203
27.2800,2.113
27.3200,2.074
27.3600,2.138
27.4000,2.185
27.4400,2.131
27.4800,2.140
27.5200,2.196
27.5600,2.051
27.6000,2.186
27.6400,2.214
27.6800,2.192
27.7200,2.095
27.7600,2.091
27.8000,2.062
27.8400,2.178
27.8800,2.090
27.9200,2.115
27.9600,2.123
28.0000,2.042
28.0400,1.998
28.0800,2.049
28.1200,2.117
28.1600,2.065
28.2000,2.113
28.2400,2.092
28.2800,2.033
28.3200,1.985
28.3600,2.109
28.4000,2.057
28.4400,2.128
28.4800,2.028
28.5200,2.170
28.5600,2.229
28.6000,2.173
28.6400,2.235
28.6800,2.226
28.7200,2.073
28.7600,2.144
28.8000,2.151
28.8400,2.048
28.8800,2.062
28.9200,2.032
28.9600,2.109
29.0000,2.032
29.0400,2.053
29.0800,1.985
29.1200,1.937
29.1600,1.970
29.2000,1.990
29.2400,2.015
29.2800,1.883
29.3200,1.926
29.3600,1.949
29.4000,1.979
29.4400,2.073
29.4800,1.926
29.5200,1.989
29.5600,1.976
29.6000,1.922
29.6400,1.978
29.6800,1.876
29.7200,1.951
29.7600,1.900
29.8000,1.951
29.8400,1.904
29.8800,1.973
29.9200,1.919
29.9600,1.992
30.0000,1.972
30.0400,1.887
30.0800,1.976
30.1200,1.896
30.1600,1.916
30.2000,1.888
30.2400,1.883
30.2800,1.957
30.3200,1.902
30.3600,1.845
30.4000,1.893
30.4400,1.853
30.4800,1.835
30.5200,1.922
30.5600,1.909
30.6000,1.844
30.6400,1.801
30.6800,1.864
30.7200,1.868
30.7600,1.831
30.8000,1.829
30.8400,1.922
30.8800,1.826
30.9200,1.872
30.9600,1.822
31.0000,1.765
31.0400,1.795
31.0800,1.812
31.1200,1.831
31.1600,1.778
31.2000,1.807
31.2400,1.837
31.2800,1.715
31.3200,1.870
31.3600,1.860
31.4000,1.847
31.4400,1.786
31.4800,1.740
31.5200,1.813
31.5600,1.799
31.6000,1.796
31.6400,1.854
31.6800,1.889
31.7200,1.803
31.7600,1.777
31.8000,1.746
31.8400,1.821
31.8800,1.864
31.9200,1.770
31.9600,1.776
32.0000,1.820
32.0400,1.797
32.0800,1.800
32.1200,1.758
32.1600,1.773
32.2000,1.751
32.2400,1.727
32.2800,1.801
32.3200,1.783
32.3600,1.771
32.4000,1.746
32.4400,1.862
32.4800,1.733
32.5200,1.695
32.5600,1.688
32.6000,1.642
32.6400,1.618
32.6800,1.720
32.7200,1.753
32.7600,1.683
32.8000,1.719
32.8400,1.706
32.8800,1.742
32.9200,1.739
32.9600,1.766
33.0000,1.756
33.0400,1.678
33.0800,1.751
33.1200,1.715
33.1600,1.658
33.2000,1.682
33.2400,1.642
33.2800,1.663
33.3200,1.666
33.3600,1.748
33.4000,1.677
33.4400,1.678
33.4800,1.673
33.5200,1.658
33.5600,1.650
33.6000,1.653
33.6400,1.748
33.6800,1.658
33.7200,1.627
33.7600,1.544
33.8000,1.642
33.8400,1.636
33.8800,1.719
33.9200,1.699
33.9600,1.662
34.0000,1.668
34.0400,1.676
34.0800,1.751
34.1200,1.634
34.1600,1.706
34.2000,1.635
34.2400,1.630
34.2800,1.589
34.3200,1.597
34.3600,1.729
34.4000,1.602
34.4400,1.694
34.4800,1.669
34.5200,1.642
34.5600,1.631
34.6000,1.589
34.6400,1.652
34.6800,1.532
34.7200,1.620
34.7600,1.757
34.8000,1.609
34.8400,1.675
34.8800,1.613
34.9200,1.630
34.9600,1.630
35.0000,1.633
35.0400,1.618
35.0800,1.671
35.1200,1.614
35.1600,1.549
35.2000,1.519
35.2400,1.555
35.2800,1.624
35.3200,1.679
35.3600,1.588
35.4000,1.619
35.4400,1.592
35.4800,1.572
35.5200,1.620
35.5600,1.605
35.6000,1.603
35.6400,1.531
35.6800,1.551
35.7200,1.589
35.7600,1.569
35.8000,1.601
35.8400,1.589
35.8800,1.692
35.9200,1.668
35.9600,1.708
36.0000,1.680
36.0400,1.680
36.0800,1.701
36.1200,1.777
36.1600,1.654
36.2000,1.635
36.2400,1.691
36.2800,1.685
36.3200,1.678
36.3600,1.632
36.4000,1.669
36.4400,1.554
36.4800,1.679
36.5200,1.649
36.5600,1.620
36.6000,1.654
36.6400,1.616
36.6800,1.698
36.7200,1.586
36.7600,1.562
36.8000,1.698
36.8400,1.754
36.8800,1.670
36.9200,1.661
36.9600,1.634
37.0000,1.676
37.0400,1.798
37.0800,1.694
37.1200,1.730
37.1600,1.848
37.2000,1.770
37.2400,1.824
37.2800,1.832
37.3200,1.963
37.3600,1.849
37.4000,1.850
37.4400,2.016
37.4800,1.979
37.5200,2.092
37.5600,2.170
37.6000,2.294
37.6400,2.360
37.6800,2.457
37.7200,2.609
37.7600,2.792
37.8000,3.031
37.8400,3.212
37.8800,3.678
37.9200,4.244
37.9600,4.905
38.0000,5.975
38.0400,7.553
38.0800,9.856
38.1200,14.309
38.1600,20.497
38.2000,28.270
38.2400,32.381
38.2800,30.848
38.3200,26.851
38.3600,21.297
38.4000,15.363
38.4400,10.714
38.4800,7.986
38.5200,6.229
38.5600,5.153
38.6000,4.393
38.6400,3.686
38.6800,3.421
38.7200,3.048
38.7600,2.840
38.8000,2.658
38.8400,2.485
38.8800,2.386
38.9200,2.300
38.9600,2.153
39.0000,2.048
39.0400,1.988
39.0800,1.953
39.1200,1.885
39.1600,1.944
39.2000,1.875
39.2400,1.773
39.2800,1.753
39.3200,1.692
39.3600,1.726
39.4000,1.706
39.4400,1.680
39.4800,1.544
39.5200,1.631
39.5600,1.604
39.6000,1.572
39.6400,1.611
39.6800,1.531
39.7200,1.582
39.7600,1.527
39.8000,1.587
39.8400,1.502
39.8800,1.430
39.9200,1.462
39.9600,1.494
40.0000,1.476
40.0400,1.494
40.0800,1.461
40.1200,1.473
40.1600,1.423
40.2000,1.405
40.2400,1.441
40.2800,1.428
40.3200,1.368
40.3600,1.451
40.4000,1.461
40.4400,1.418
40.4800,1.427
40.5200,1.403
40.5600,1.373
40.6000,1.342
40.6400,1.399
40.6800,1.395
40.7200,1.402
40.7600,1.429
40.8000,1.376
40.8400,1.399
40.8800,1.370
40.9200,1.331
40.9600,1.372
41.0000,1.407
41.0400,1.435
41.0800,1.320
41.1200,1.361
41.1600,1.351
41.2000,1.397
41.2400,1.321
41.2800,1.321
41.3200,1.305
41.3600,1.417
41.4000,1.310
41.4400,1.367
41.4800,1.297
41.5200,1.264
41.5600,1.295
41.6000,1.333
41.6400,1.392
41.6800,1.270
41.7200,1.274
41.7600,1.274
41.8000,1.297
41.8400,1.297
41.8800,1.327
41.9200,1.254
41.9600,1.248
42.0000,1.328
42.0400,1.301
42.0800,1.305
42.1200,1.285
42.1600,1.322
42.2000,1.268
42.2400,1.272
42.2800,1.292
42.3200,1.248
42.3600,1.278
42.4000,1.259
42.4400,1.318
42.4800,1.288
42.5200,1.323
42.5600,1.301
42.6000,1.240
42.6400,1.321
42.6800,1.338
42.7200,1.335
42.7600,1.249
42.8000,1.202
42.8400,1.254
42.8800,1.304
42.9200,1.298
42.9600,1.310
43.0000,1.252
43.0400,1.345
43.0800,1.279
43.1200,1.429
43.1600,1.398
43.2000,1.415
43.2400,1.325
43.2800,1.363
43.3200,1.375
43.3600,1.421
43.4000,1.361
43.4400,1.357
43.4800,1.410
43.5200,1.473
43.5600,1.444
43.6000,1.530
43.6400,1.513
43.6800,1.517
43.7200,1.624
43.7600,1.709
43.8000,1.690
43.8400,1.715
43.8800,1.864
43.9200,1.914
43.9600,2.000
44.0000,2.100
44.0400,2.214
44.0800,2.327
44.1200,2.605
44.1600,2.825
44.2000,3.266
44.2400,3.693
44.2800,4.367
44.3200,5.011
44.3600,5.914
44.4000,6.994
44.4400,7.910
44.4800,8.213
44.5200,8.024
44.5600,7.530
44.6000,6.928
44.6400,5.846
44.6800,5.058
44.7200,4.118
44.7600,3.556
44.8000,2.979
44.8400,2.758
44.8800,2.406
44.9200,2.233
44.9600,2.064
45.0000,1.936
45.0400,1.795
45.0800,1.635
45.1200,1.619
45.1600,1.501
45.2000,1.425
45.2400,1.439
45.2800,1.355
45.3200,1.347
45.3600,1.298
45.4000,1.273
45.4400,1.312
45.4800,1.275
45.5200,1.228
45.5600,1.156
45.6000,1.156
45.6400,1.203
45.6800,1.205
45.7200,1.145
45.7600,1.150
45.8000,1.111
45.8400,1.139
45.8800,1.093
45.9200,1.046
45.9600,1.041
46.0000,1.061
46.0400,1.050
46.0800,1.101
46.1200,1.032
46.1600,1.034
46.2000,1.066
46.2400,1.039
46.2800,1.052
46.3200,1.026
46.3600,1.010
46.4000,0.944
46.4400,0.980
46.4800,1.023
46.5200,1.022
46.5600,1.011
46.6000,1.021
46.6400,0.999
46.6800,1.001
46.7200,0.997
46.7600,0.998
46.8000,0.994
46.8400,0.984
46.8800,0.985
46.9200,0.991
46.9600,1.043
47.0000,1.046
47.0400,0.957
47.0800,0.994
47.1200,0.906
47.1600,1.049
47.2000,0.988
47.2400,1.010
47.2800,0.933
47.3200,0.970
47.3600,0.983
47.4000,0.940
47.4400,1.012
47.4800,0.949
47.5200,0.978
47.5600,1.047
47.6000,1.007
47.6400,0.952
47.6800,1.029
47.7200,0.958
47.7600,1.009
47.8000,0.939
47.8400,0.954
47.8800,0.934
47.9200,0.940
47.9600,0.953
48.0000,0.999
48.0400,0.912
48.0800,0.922
48.1200,0.883
48.1600,0.927
48.2000,0.910
48.2400,0.953
48.2800,0.896
48.3200,0.927
48.3600,0.850
48.4000,0.874
48.4400,0.914
48.4800,0.851
48.5200,0.860
48.5600,0.897
48.6000,0.866
48.6400,0.874
48.6800,0.989
48.7200,0.880
48.7600,0.920
48.8000,0.899
48.8400,0.882
48.8800,0.899
48.9200,0.868
48.9600,0.899
49.0000,0.846
49.0400,0.857
49.0800,0.899
49.1200,0.858
49.1600,0.860
49.2000,0.838
49.2400,0.847
49.2800,0.898
49.3200,0.806
49.3600,0.887
49.4000,0.914
49.4400,0.849
49.4800,0.864
49.5200,0.873
49.5600,0.892
49.6000,0.894
49.6400,0.846
49.6800,0.829
49.7200,0.832
49.7600,0.830
49.8000,0.809
49.8400,0.867
49.8800,0.825
49.9200,0.832
49.9600,0.842
50.0000,0.785
50.0400,0.803
50.0800,0.885
50.1200,0.821
50.1600,0.854
50.2000,0.848
50.2400,0.887
50.2800,0.861
50.3200,0.862
50.3600,0.814
50.4000,0.820
50.4400,0.855
50.4800,0.795
50.5200,0.848
50.5600,0.785
50.6000,0.812
50.6400,0.767
50.6800,0.857
50.7200,0.838
50.7600,0.796
50.8000,0.762
50.8400,0.816
50.8800,0.778
50.9200,0.761
50.9600,0.770
51.0000,0.775
51.0400,0.788
51.0800,0.779
51.1200,0.768
51.1600,0.742
51.2000,0.762
51.2400,0.856
51.2800,0.763
51.3200,0.777
51.3600,0.834
51.4000,0.792
51.4400,0.784
51.4800,0.777
51.5200,0.760
51.5600,0.783
51.6000,0.799
51.6400,0.788
51.6800,0.755
51.7200,0.753
51.7600,0.779
51.8000,0.757
51.8400,0.779
51.8800,0.809
51.9200,0.744
51.9600,0.762
52.0000,0.772
52.0400,0.719
52.0800,0.788
52.1200,0.741
52.1600,0.797
52.2000,0.799
52.2400,0.775
52.2800,0.730
52.3200,0.746
52.3600,0.786
52.4000,0.745
52.4400,0.711
52.4800,0.769
52.5200,0.733
52.5600,0.791
52.6000,0.746
52.6400,0.719
52.6800,0.749
52.7200,0.728
52.7600,0.753
52.8000,0.732
52.8400,0.757
52.8800,0.719
52.9200,0.746
52.9600,0.774
53.0000,0.774
53.0400,0.730
53.0800,0.741
53.1200,0.710
53.1600,0.673
53.2000,0.694
53.2400,0.738
53.2800,0.749
53.3200,0.680
53.3600,0.720
53.4000,0.723
53.4400,0.747
53.4800,0.701
53.5200,0.745
53.5600,0.787
53.6000,0.704
53.6400,0.718
53.6800,0.701
53.7200,0.732
53.7600,0.697
53.8000,0.680
53.8400,0.707
53.8800,0.771
53.9200,0.756
53.9600,0.704
54.0000,0.738
54.0400,0.729
54.0800,0.704
54.1200,0.694
54.1600,0.684
54.2000,0.690
54.2400,0.661
54.2800,0.655
54.3200,0.694
54.3600,0.709
54.4000,0.673
54.4400,0.723
54.4800,0.736
54.5200,0.702
54.5600,0.697
54.6000,0.725
54.6400,0.719
54.6800,0.649
54.7200,0.740
54.7600,0.707
54.8000,0.696
54.8400,0.710
54.8800,0.652
54.9200,0.718
54.9600,0.691
55.0000,0.727
55.0400,0.705
55.0800,0.684
55.1200,0.644
55.1600,0.679
55.2000,0.670
55.2400,0.627
55.2800,0.635
55.3200,0.676
55.3600,0.692
55.4000,0.616
55.4400,0.659
55.4800,0.782
55.5200,0.686
55.5600,0.665
55.6000,0.649
55.6400,0.651
55.6800,0.707
55.7200,0.662
55.7600,0.670
55.8000,0.671
55.8400,0.701
55.8800,0.724
55.9200,0.701
55.9600,0.699
56.0000,0.694
56.0400,0.672
56.0800,0.697
56.1200,0.710
56.1600,0.668
56.2000,0.717
56.2400,0.666
56.2800,0.679
56.3200,0.686
56.3600,0.708
56.4000,0.673
56.4400,0.690
56.4800,0.659
56.5200,0.673
56.5600,0.721
56.6000,0.681
56.6400,0.735
56.6800,0.699
56.7200,0.694
56.7600,0.721
56.8000,0.697
56.8400,0.694
56.8800,0.660
56.9200,0.670
56.9600,0.721
57.0000,0.628
57.0400,0.616
57.0800,0.625
57.1200,0.668
57.1600,0.702
57.2000,0.678
57.2400,0.688
57.2800,0.679
57.3200,0.594
57.3600,0.642
57.4000,0.634
57.4400,0.631
57.4800,0.655
57.5200,0.655
57.5600,0.673
57.6000,0.665
57.6400,0.652
57.6800,0.655
57.7200,0.645
57.7600,0.628
57.8000,0.658
57.8400,0.648
57.8800,0.627
57.9200,0.606
57.9600,0.635
58.0000,0.642
58.0400,0.657
58.0800,0.654
58.1200,0.636
58.1600,0.613
58.2000,0.629
58.2400,0.608
58.2800,0.641
58.3200,0.668
58.3600,0.673
58.4000,0.659
58.4400,0.654
58.4800,0.605
58.5200,0.643
58.5600,0.600
58.6000,0.631
58.6400,0.608
58.6800,0.640
58.7200,0.645
58.7600,0.627
58.8000,0.644
58.8400,0.636
58.8800,0.625
58.9200,0.586
58.9600,0.667
59.0000,0.597
59.0400,0.622
59.0800,0.597
59.1200,0.630
59.1600,0.635
59.2000,0.596
59.2400,0.589
59.2800,0.691
59.3200,0.631
59.3600,0.600
59.4000,0.617
59.4400,0.550
59.4800,0.591
59.5200,0.633
59.5600,0.606
59.6000,0.599
59.6400,0.592
59.6800,0.647
59.7200,0.614
59.7600,0.616
59.8000,0.628
59.8400,0.548
59.8800,0.605
59.9200,0.578
59.9600,0.579
60.0000,0.602
60.0400,0.588
60.0800,0.583
60.1200,0.621
60.1600,0.574
60.2000,0.636
60.2400,0.607
60.2800,0.601
60.3200,0.598
60.3600,0.569
60.4000,0.550
60.4400,0.588
60.4800,0.616
60.5200,0.594
60.5600,0.551
60.6000,0.593
60.6400,0.633
60.6800,0.599
60.7200,0.600
60.7600,0.599
60.8000,0.622
60.8400,0.576
60.8800,0.628
60.9200,0.543
60.9600,0.589
61.0000,0.565
61.0400,0.615
61.0800,0.572
61.1200,0.563
61.1600,0.571
61.2000,0.598
61.2400,0.605
61.2800,0.570
61.3200,0.580
61.3600,0.603
61.4000,0.613
61.4400,0.586
61.4800,0.589
61.5200,0.612
61.5600,0.553
61.6000,0.603
61.6400,0.578
61.6800,0.687
61.7200,0.711
61.7600,0.640
61.8000,0.584
61.8400,0.610
61.8800,0.642
61.9200,0.546
61.9600,0.514
62.0000,0.566
62.0400,0.577
62.0800,0.592
62.1200,0.577
62.1600,0.564
62.2000,0.582
62.2400,0.575
62.2800,0.600
62.3200,0.603
62.3600,0.566
62.4000,0.587
62.4400,0.587
62.4800,0.528
62.5200,0.570
62.5600,0.576
62.6000,0.580
62.6400,0.581
62.6800,0.598
62.7200,0.640
62.7600,0.584
62.8000,0.627
62.8400,0.625
62.8800,0.634
62.9200,0.556
62.9600,0.579
63.0000,0.588
63.0400,0.586
63.0800,0.616
63.1200,0.612
63.1600,0.599
63.2000,0.619
63.2400,0.622
63.2800,0.625
63.3200,0.574
63.3600,0.622
63.4000,0.675
63.4400,0.621
63.4800,0.693
63.5200,0.616
63.5600,0.672
63.6000,0.660
63.6400,0.629
63.6800,0.657
63.7200,0.644
63.7600,0.731
63.8000,0.727
63.8400,0.721
63.8800,0.703
63.9200,0.767
63.9600,0.770
64.0000,0.822
64.0400,0.815
64.0800,0.851
64.1200,0.933
64.1600,0.947
64.2000,0.987
64.2400,1.032
64.2800,1.166
64.3200,1.260
64.3600,1.423
64.4000,1.620
64.4400,1.894
64.4800,2.284
64.5200,2.756
64.5600,3.330
64.6000,4.083
64.6400,4.488
64.6800,4.595
64.7200,4.239
64.7600,4.002
64.8000,3.636
64.8400,3.466
64.8800,2.946
64.9200,2.427
64.9600,2.034
65.0000,1.776
65.0400,1.589
65.0800,1.343
65.1200,1.255
65.1600,1.123
65.2000,1.047
65.2400,1.022
65.2800,0.905
65.3200,0.929
65.3600,0.862
65.4000,0.885
65.4400,0.859
65.4800,0.830
65.5200,0.804
65.5600,0.800
65.6000,0.739
65.6400,0.767
65.6800,0.812
65.7200,0.777
65.7600,0.788
65.8000,0.748
65.8400,0.756
65.8800,0.804
65.9200,0.656
65.9600,0.723
66.0000,0.767
66.0400,0.744
66.0800,0.708
66.1200,0.720
66.1600,0.746
66.2000,0.757
66.2400,0.785
66.2800,0.791
66.3200,0.732
66.3600,0.711
66.4000,0.715
66.4400,0.739
66.4800,0.803
66.5200,0.758
66.5600,0.781
66.6000,0.746
66.6400,0.789
66.6800,0.842
66.7200,0.791
66.7600,0.752
66.8000,0.799
66.8400,0.774
66.8800,0.822
66.9200,0.848
66.9600,0.847
67.0000,0.859
67.0400,0.869
67.0800,0.865
67.1200,0.896
67.1600,0.880
67.2000,0.918
67.2400,0.870
67.2800,0.878
67.3200,0.940
67.3600,0.942
67.4000,1.013
67.4400,1.045
67.4800,0.984
67.5200,1.050
67.5600,1.046
67.6000,1.031
67.6400,1.088
67.6800,1.087
67.7200,1.170
67.7600,1.151
67.8000,1.173
67.8400,1.179
67.8800,1.244
67.9200,1.253
67.9600,1.292
68.0000,1.213
68.0400,1.268
68.0800,1.337
68.1200,1.346
68.1600,1.377
68.2000,1.393
68.2400,1.508
68.2800,1.474
68.3200,1.515
68.3600,1.489
68.4000,1.714
68.4400,1.686
68.4800,1.790
68.5200,1.877
68.5600,1.978
68.6000,2.048
68.6400,2.293
68.6800,2.461
68.7200,2.828
68.7600,3.523
68.8000,4.566
68.8400,5.240
68.8800,5.517
68.9200,5.570
68.9600,6.692
69.0000,8.787
69.0400,14.486
69.0800,31.202
69.1200,131.532
69.1600,336.952
69.2000,277.186
69.2400,82.731
69.2800,37.360
69.3200,83.783
69.3600,175.932
69.4000,136.146
69.4400,40.576
69.4800,14.058
69.5200,8.205
69.5600,5.983
69.6000,4.816
69.6400,3.926
69.6800,3.418
69.7200,3.136
69.7600,2.763
69.8000,2.552
69.8400,2.371
69.8800,2.204
69.9200,2.100
69.9600,1.922
70.0000,1.929
70.0400,1.881
70.0800,1.885
70.1200,1.785
70.1600,1.656
70.2000,1.630
70.2400,1.589
70.2800,1.531
70.3200,1.505
70.3600,1.389
70.4000,1.405
70.4400,1.310
70.4800,1.262
70.5200,1.260
70.5600,1.216
70.6000,1.220
70.6400,1.177
70.6800,1.090
70.7200,1.091
70.7600,1.102
70.8000,1.049
70.8400,1.064
70.8800,1.051
70.9200,1.027
70.9600,0.954
71.0000,0.941
71.0400,0.951
71.0800,0.939
71.1200,0.896
71.1600,0.865
71.2000,0.877
71.2400,0.783
71.2800,0.856
71.3200,0.821
71.3600,0.846
71.4000,0.829
71.4400,0.807
71.4800,0.763
71.5200,0.701
71.5600,0.758
71.6000,0.747
71.6400,0.710
71.6800,0.736
71.7200,0.715
71.7600,0.643
71.8000,0.652
71.8400,0.644
71.8800,0.717
71.9200,0.657
71.9600,0.636
72.0000,0.630
72.0400,0.613
72.0800,0.623
72.1200,0.630
72.1600,0.593
72.2000,0.575
72.2400,0.571
72.2800,0.547
72.3200,0.589
72.3600,0.561
72.4000,0.559
72.4400,0.574
72.4800,0.592
72.5200,0.572
72.5600,0.561
72.6000,0.532
72.6400,0.590
72.6800,0.525
72.7200,0.493
72.7600,0.539
72.8000,0.542
72.8400,0.553
72.8800,0.466
72.9200,0.528
72.9600,0.483
73.0000,0.481
73.0400,0.467
73.0800,0.485
73.1200,0.535
73.1600,0.498
73.2000,0.498
73.2400,0.467
73.2800,0.449
73.3200,0.488
73.3600,0.458
73.4000,0.447
73.4400,0.484
73.4800,0.455
73.5200,0.473
73.5600,0.437
73.6000,0.447
73.6400,0.436
73.6800,0.456
73.7200,0.462
73.7600,0.462
73.8000,0.424
73.8400,0.433
73.8800,0.450
73.9200,0.486
73.9600,0.454
74.0000,0.425
74.0400,0.468
74.0800,0.434
74.1200,0.460
74.1600,0.388
74.2000,0.419
74.2400,0.408
74.2800,0.403
74.3200,0.416
74.3600,0.460
74.4000,0.418
74.4400,0.446
74.4800,0.406
74.5200,0.434
74.5600,0.378
74.6000,0.410
74.6400,0.416
74.6800,0.429
74.7200,0.399
74.7600,0.417
74.8000,0.416
74.8400,0.396
74.8800,0.434
74.9200,0.425
74.9600,0.438
75.0000,0.409
75.0400,0.429
75.0800,0.422
75.1200,0.411
75.1600,0.404
75.2000,0.395
75.2400,0.411
75.2800,0.424
75.3200,0.388
75.3600,0.404
75.4000,0.435
75.4400,0.410
75.4800,0.402
75.5200,0.453
75.5600,0.405
75.6000,0.417
75.6400,0.438
75.6800,0.452
75.7200,0.428
75.7600,0.400
75.8000,0.445
75.8400,0.442
75.8800,0.401
75.9200,0.431
75.9600,0.450
76.0000,0.417
76.0400,0.426
76.0800,0.433
76.1200,0.425
76.1600,0.394
76.2000,0.438
76.2400,0.451
76.2800,0.443
76.3200,0.425
76.3600,0.421
76.4000,0.448
76.4400,0.503
76.4800,0.459
76.5200,0.448
76.5600,0.478
76.6000,0.493
76.6400,0.490
76.6800,0.502
76.7200,0.484
76.7600,0.493
76.8000,0.530
76.8400,0.528
76.8800,0.548
76.9200,0.566
76.9600,0.518
77.0000,0.575
77.0400,0.655
77.0800,0.671
77.1200,0.706
77.1600,0.779
77.2000,0.801
77.2400,0.861
77.2800,0.960
77.3200,1.045
77.3600,1.163
77.4000,1.445
77.4400,1.656
77.4800,2.007
77.5200,2.337
77.5600,2.839
77.6000,3.142
77.6400,3.522
77.6800,3.720
77.7200,3.453
77.7600,3.334
77.8000,3.072
77.8400,3.039
77.8800,2.786
77.9200,2.509
77.9600,2.224
78.0000,1.870
78.0400,1.582
78.0800,1.330
78.1200,1.093
78.1600,1.061
78.2000,0.868
78.2400,0.826
78.2800,0.798
78.3200,0.722
78.3600,0.652
78.4000,0.607
78.4400,0.593
78.4800,0.579
78.5200,0.528
78.5600,0.544
78.6000,0.510
78.6400,0.513
78.6800,0.473
78.7200,0.466
78.7600,0.433
78.8000,0.466
78.8400,0.421
78.8800,0.431
78.9200,0.419
78.9600,0.459
79.0000,0.394
79.0400,0.405
79.0800,0.437
79.1200,0.393
79.1600,0.390
79.2000,0.376
79.2400,0.431
79.2800,0.447
79.3200,0.366
79.3600,0.406
79.4000,0.376
79.4400,0.437
79.4800,0.367
79.5200,0.397
79.5600,0.381
79.6000,0.385
79.6400,0.364
79.6800,0.377
79.7200,0.393
79.7600,0.349
79.8000,0.379
79.8400,0.370
79.8800,0.356
79.9200,0.379
79.9600,0.338
80.0000,0.383
