theta,intensity
5.0000,3.603
5.0400,3.557
5.0800,3.557
5.1200,3.532
5.1600,3.424
5.2000,3.469
5.2400,3.324
5.2800,3.335
5.3200,3.173
5.3600,3.202
5.4000,3.148
5.4400,3.019
5.4800,2.971
5.5200,2.990
5.5600,2.958
5.6000,2.911
5.6400,2.977
5.6800,2.809
5.7200,2.680
5.7600,2.801
5.8000,2.732
5.8400,2.632
5.8800,2.621
5.9200,2.593
5.9600,2.558
6.0000,2.568
6.0400,2.410
6.0800,2.422
6.1200,2.431
6.1600,2.349
6.2000,2.266
6.2400,2.230
6.2800,2.157
6.3200,2.160
6.3600,2.131
6.4000,2.027
6.4400,2.028
6.4800,1.959
6.5200,1.897
6.5600,1.833
6.6000,1.834
6.6400,1.801
6.6800,1.799
6.7200,1.770
6.7600,1.742
6.8000,1.718
6.8400,1.644
6.8800,1.621
6.9200,1.500
6.9600,1.539
7.0000,1.548
7.0400,1.463
7.0800,1.500
7.1200,1.482
7.1600,1.453
7.2000,1.534
7.2400,1.505
7.2800,1.426
7.3200,1.445
7.3600,1.452
7.4000,1.428
7.4400,1.426
7.4800,1.460
7.5200,1.417
7.5600,1.459
7.6000,1.369
7.6400,1.443
7.6800,1.398
7.7200,1.413
7.7600,1.376
7.8000,1.423
7.8400,1.391
7.8800,1.410
7.9200,1.371
7.9600,1.401
8.0000,1.388
8.0400,1.381
8.0800,1.429
8.1200,1.390
8.1600,1.433
8.2000,1.393
8.2400,1.393
8.2800,1.362
8.3200,1.376
8.3600,1.353
8.4000,1.388
8.4400,1.398
8.4800,1.334
8.5200,1.372
8.5600,1.402
8.6000,1.323
8.6400,1.373
8.6800,1.333
8.7200,1.328
8.7600,1.345
8.8000,1.385
8.8400,1.386
8.8800,1.334
8.9200,1.323
8.9600,1.345
9.0000,1.420
9.0400,1.352
9.0800,1.330
9.1200,1.350
9.1600,1.330
9.2000,1.345
9.2400,1.331
9.2800,1.343
9.3200,1.342
9.3600,1.343
9.4000,1.348
9.4400,1.322
9.4800,1.327
9.5200,1.398
9.5600,1.346
9.6000,1.322
9.6400,1.341
9.6800,1.322
9.7200,1.337
9.7600,1.282
9.8000,1.256
9.8400,1.307
9.8800,1.362
9.9200,1.285
9.9600,1.269
10.0000,1.296
10.0400,1.341
10.0800,1.287
10.1200,1.301
10.1600,1.295
10.2000,1.314
10.2400,1.295
10.2800,1.328
10.3200,1.265
10.3600,1.269
10.4000,1.294
10.4400,1.223
10.4800,1.300
10.5200,1.254
10.5600,1.264
10.6000,1.281
10.6400,1.292
10.6800,1.333
10.7200,1.271
10.7600,1.234
10.8000,1.248
10.8400,1.262
10.8800,1.299
10.9200,1.262
10.9600,1.286
11.0000,1.300
11.0400,1.263
11.0800,1.221
11.1200,1.232
11.1600,1.298
11.2000,1.222
11.2400,1.244
11.2800,1.281
11.3200,1.260
11.3600,1.202
11.4000,1.258
11.4400,1.217
11.4800,1.218
11.5200,1.243
11.5600,1.204
11.6000,1.269
11.6400,1.214
11.6800,1.231
11.7200,1.252
11.7600,1.236
11.8000,1.261
11.8400,1.227
11.8800,1.216
11.9200,1.216
11.9600,1.219
12.0000,1.185
12.0400,1.184
12.0800,1.212
12.1200,1.275
12.1600,1.225
12.2000,1.219
12.2400,1.264
12.2800,1.181
12.3200,1.239
12.3600,1.242
12.4000,1.231
12.4400,1.249
12.4800,1.258
12.5200,1.147
12.5600,1.187
12.6000,1.226
12.6400,1.188
12.6800,1.200
12.7200,1.198
12.7600,1.197
12.8000,1.185
12.8400,1.197
12.8800,1.183
12.9200,1.194
12.9600,1.212
13.0000,1.199
13.0400,1.226
13.0800,1.187
13.1200,1.229
13.1600,1.225
13.2000,1.174
13.2400,1.177
13.2800,1.229
13.3200,1.190
13.3600,1.161
13.4000,1.162
13.4400,1.132
13.4800,1.183
13.5200,1.167
13.5600,1.191
13.6000,1.158
13.6400,1.125
13.6800,1.161
13.7200,1.215
13.7600,1.129
13.8000,1.161
13.8400,1.178
13.8800,1.143
13.9200,1.180
13.9600,1.178
14.0000,1.170
14.0400,1.145
14.0800,1.156
14.1200,1.159
14.1600,1.185
14.2000,1.183
14.2400,1.145
14.2800,1.156
14.3200,1.187
14.3600,1.150
14.4000,1.114
14.4400,1.186
14.4800,1.162
14.5200,1.162
14.5600,1.155
14.6000,1.181
14.6400,1.160
14.6800,1.182
14.7200,1.120
14.7600,1.153
14.8000,1.177
14.8400,1.113
14.8800,1.155
14.9200,1.141
14.9600,1.088
15.0000,1.117
15.0400,1.100
15.0800,1.123
15.1200,1.120
15.1600,1.138
15.2000,1.129
15.2400,1.096
15.2800,1.120
15.3200,1.163
15.3600,1.096
15.4000,1.142
15.4400,1.107
15.4800,1.103
15.5200,1.121
15.5600,1.128
15.6000,1.080
15.6400,1.072
15.6800,1.086
15.7200,1.125
15.7600,1.127
15.8000,1.114
15.8400,1.145
15.8800,1.131
15.9200,1.091
15.9600,1.070
16.0000,1.100
16.0400,1.061
16.0800,1.073
16.1200,1.094
16.1600,1.095
16.2000,1.089
16.2400,1.034
16.2800,1.072
16.3200,1.082
16.3600,1.064
16.4000,1.079
16.4400,1.059
16.4800,1.071
16.5200,1.068
16.5600,1.068
16.6000,1.106
16.6400,1.075
16.6800,1.017
16.7200,1.029
16.7600,1.031
16.8000,1.025
16.8400,1.104
16.8800,1.054
16.9200,1.041
16.9600,1.072
17.0000,1.045
17.0400,1.043
17.0800,1.061
17.1200,1.049
17.1600,1.111
17.2000,1.042
17.2400,1.082
17.2800,1.037
17.3200,1.027
17.3600,1.007
17.4000,1.024
17.4400,1.056
17.4800,1.031
17.5200,1.061
17.5600,1.065
17.6000,1.013
17.6400,1.056
17.6800,1.042
17.7200,1.030
17.7600,1.046
17.8000,1.009
17.8400,1.040
17.8800,1.017
17.9200,1.028
17.9600,0.968
18.0000,1.006
18.0400,0.986
18.0800,1.027
18.1200,1.070
18.1600,1.040
18.2000,1.046
18.2400,0.957
18.2800,1.020
18.3200,1.031
18.3600,1.041
18.4000,0.965
18.4400,0.933
18.4800,1.024
18.5200,1.007
18.5600,1.006
18.6000,1.003
18.6400,0.992
18.6800,0.991
18.7200,1.001
18.7600,1.022
18.8000,1.041
18.8400,1.021
18.8800,1.003
18.9200,0.979
18.9600,1.030
19.0000,1.023
19.0400,0.980
19.0800,1.004
19.1200,0.974
19.1600,1.005
19.2000,0.993
19.2400,0.986
19.2800,0.933
19.3200,0.944
19.3600,0.975
19.4000,0.959
19.4400,0.959
19.4800,0.976
19.5200,0.951
19.5600,0.980
19.6000,0.959
19.6400,0.982
19.6800,1.002
19.7200,0.993
19.7600,0.947
19.8000,0.935
19.8400,0.954
19.8800,0.925
19.9200,0.957
19.9600,0.971
20.0000,0.989
20.0400,0.955
20.0800,0.925
20.1200,0.930
20.1600,0.947
20.2000,0.972
20.2400,0.922
20.2800,0.959
20.3200,0.895
20.3600,0.876
20.4000,0.962
20.4400,0.967
20.4800,0.954
20.5200,0.945
20.5600,0.914
20.6000,0.904
20.6400,0.942
20.6800,0.931
20.7200,0.911
20.7600,0.912
20.8000,0.942
20.8400,0.950
20.8800,0.890
20.9200,0.885
20.9600,0.941
21.0000,0.903
21.0400,0.890
21.0800,0.892
21.1200,0.896
21.1600,0.898
21.2000,0.927
21.2400,0.903
21.2800,0.893
21.3200,0.913
21.3600,0.899
21.4000,0.875
21.4400,0.881
21.4800,0.893
21.5200,0.882
21.5600,0.887
21.6000,0.893
21.6400,0.952
21.6800,0.902
21.7200,0.868
21.7600,0.884
21.8000,0.894
21.8400,0.866
21.8800,0.876
21.9200,0.871
21.9600,0.918
22.0000,0.928
22.0400,0.942
22.0800,0.891
22.1200,0.906
22.1600,0.873
22.2000,0.838
22.2400,0.876
22.2800,0.878
22.3200,0.837
22.3600,0.887
22.4000,0.909
22.4400,0.849
22.4800,0.855
22.5200,0.865
22.5600,0.854
22.6000,0.862
22.6400,0.846
22.6800,0.863
22.7200,0.867
22.7600,0.861
22.8000,0.871
22.8400,0.862
22.8800,0.876
22.9200,0.857
22.9600,0.813
23.0000,0.870
23.0400,0.854
23.0800,0.842
23.1200,0.838
23.1600,0.835
23.2000,0.861
23.2400,0.853
23.2800,0.824
23.3200,0.802
23.3600,0.858
23.4000,0.825
23.4400,0.836
23.4800,0.820
23.5200,0.838
23.5600,0.821
23.6000,0.857
23.6400,0.847
23.6800,0.862
23.7200,0.813
23.7600,0.807
23.8000,0.840
23.8400,0.847
23.8800,0.848
23.9200,0.832
23.9600,0.795
24.0000,0.799
24.0400,0.808
24.0800,0.823
24.1200,0.809
24.1600,0.827
24.2000,0.828
24.2400,0.819
24.2800,0.846
24.3200,0.789
24.3600,0.811
24.4000,0.822
24.4400,0.788
24.4800,0.800
24.5200,0.760
24.5600,0.785
24.6000,0.795
24.6400,0.801
24.6800,0.737
24.7200,0.774
24.7600,0.771
24.8000,0.781
24.8400,0.786
24.8800,0.795
24.9200,0.747
24.9600,0.771
25.0000,0.788
25.0400,0.796
25.0800,0.797
25.1200,0.786
25.1600,0.787
25.2000,0.744
25.2400,0.784
25.2800,0.748
25.3200,0.754
25.3600,0.798
25.4000,0.790
25.4400,0.699
25.4800,0.786
25.5200,0.721
25.5600,0.731
25.6000,0.758
25.6400,0.731
25.6800,0.754
25.7200,0.741
25.7600,0.706
25.8000,0.736
25.8400,0.741
25.8800,0.770
25.9200,0.756
25.9600,0.752
26.0000,0.720
26.0400,0.734
26.0800,0.725
26.1200,0.786
26.1600,0.720
26.2000,0.725
26.2400,0.727
26.2800,0.727
26.3200,0.722
26.3600,0.693
26.4000,0.742
26.4400,0.737
26.4800,0.741
26.5200,0.721
26.5600,0.722
26.6000,0.700
26.6400,0.697
26.6800,0.741
26.7200,0.748
26.7600,0.711
26.8000,0.754
26.8400,0.689
26.8800,0.653
26.9200,0.669
26.9600,0.697
27.0000,0.706
27.0400,0.711
27.0800,0.705
27.1200,0.694
27.1600,0.705
27.2000,0.741
27.2400,0.732
27.2800,0.664
27.3200,0.707
27.3600,0.680
27.4000,0.683
27.4400,0.704
27.4800,0.741
27.5200,0.693
27.5600,0.678
27.6000,0.675
27.6400,0.721
27.6800,0.708
27.7200,0.725
27.7600,0.657
27.8000,0.712
27.8400,0.677
27.8800,0.681
27.9200,0.698
27.9600,0.678
28.0000,0.699
28.0400,0.659
28.0800,0.678
28.1200,0.675
28.1600,0.685
28.2000,0.645
28.2400,0.648
28.2800,0.643
28.3200,0.683
28.3600,0.675
28.4000,0.676
28.4400,0.668
28.4800,0.654
28.5200,0.707
28.5600,0.658
28.6000,0.668
28.6400,0.631
28.6800,0.624
28.7200,0.662
28.7600,0.689
28.8000,0.644
28.8400,0.640
28.8800,0.655
28.9200,0.665
28.9600,0.662
29.0000,0.682
29.0400,0.668
29.0800,0.650
29.1200,0.626
29.1600,0.635
29.2000,0.669
29.2400,0.636
29.2800,0.635
29.3200,0.648
29.3600,0.615
29.4000,0.621
29.4400,0.622
29.4800,0.625
29.5200,0.643
29.5600,0.651
29.6000,0.636
29.6400,0.600
29.6800,0.631
29.7200,0.659
29.7600,0.603
29.8000,0.659
29.8400,0.624
29.8800,0.613
29.9200,0.617
29.9600,0.625
30.0000,0.625
30.0400,0.616
30.0800,0.601
30.1200,0.592
30.1600,0.570
30.2000,0.616
30.2400,0.626
30.2800,0.618
30.3200,0.592
30.3600,0.612
30.4000,0.587
30.4400,0.603
30.4800,0.610
30.5200,0.611
30.5600,0.613
30.6000,0.582
30.6400,0.580
30.6800,0.569
30.7200,0.579
30.7600,0.593
30.8000,0.617
30.8400,0.588
30.8800,0.586
30.9200,0.583
30.9600,0.578
31.0000,0.613
31.0400,0.557
31.0800,0.577
31.1200,0.589
31.1600,0.584
31.2000,0.609
31.2400,0.593
31.2800,0.587
31.3200,0.581
31.3600,0.590
31.4000,0.577
31.4400,0.574
31.4800,0.583
31.5200,0.597
31.5600,0.563
31.6000,0.558
31.6400,0.563
31.6800,0.569
31.7200,0.564
31.7600,0.552
31.8000,0.525
31.8400,0.573
31.8800,0.579
31.9200,0.545
31.9600,0.567
32.0000,0.546
32.0400,0.564
32.0800,0.576
32.1200,0.571
32.1600,0.556
32.2000,0.552
32.2400,0.582
32.2800,0.521
32.3200,0.509
32.3600,0.552
32.4000,0.572
32.4400,0.536
32.4800,0.569
32.5200,0.577
32.5600,0.579
32.6000,0.557
32.6400,0.567
32.6800,0.541
32.7200,0.539
32.7600,0.515
32.8000,0.571
32.8400,0.568
32.8800,0.569
32.9200,0.522
32.9600,0.581
33.0000,0.517
33.0400,0.536
33.0800,0.544
33.1200,0.563
33.1600,0.554
33.2000,0.556
33.2400,0.551
33.2800,0.498
33.3200,0.530
33.3600,0.522
33.4000,0.526
33.4400,0.526
33.4800,0.530
33.5200,0.532
33.5600,0.543
33.6000,0.513
33.6400,0.555
33.6800,0.519
33.7200,0.544
33.7600,0.521
33.8000,0.534
33.8400,0.528
33.8800,0.516
33.9200,0.551
33.9600,0.522
34.0000,0.508
34.0400,0.508
34.0800,0.502
34.1200,0.533
34.1600,0.521
34.2000,0.504
34.2400,0.495
34.2800,0.512
34.3200,0.535
34.3600,0.480
34.4000,0.512
34.4400,0.505
34.4800,0.506
34.5200,0.493
34.5600,0.468
34.6000,0.519
34.6400,0.525
34.6800,0.499
34.7200,0.503
34.7600,0.474
34.8000,0.512
34.8400,0.501
34.8800,0.507
34.9200,0.490
34.9600,0.518
35.0000,0.538
35.0400,0.505
35.0800,0.506
35.1200,0.501
35.1600,0.476
35.2000,0.501
35.2400,0.486
35.2800,0.476
35.3200,0.488
35.3600,0.497
35.4000,0.520
35.4400,0.473
35.4800,0.495
35.5200,0.478
35.5600,0.487
35.6000,0.505
35.6400,0.485
35.6800,0.487
35.7200,0.478
35.7600,0.509
35.8000,0.490
35.8400,0.473
35.8800,0.512
35.9200,0.485
35.9600,0.523
36.0000,0.491
36.0400,0.478
36.0800,0.447
36.1200,0.502
36.1600,0.467
36.2000,0.469
36.2400,0.489
36.2800,0.506
36.3200,0.496
36.3600,0.527
36.4000,0.522
36.4400,0.515
36.4800,0.478
36.5200,0.453
36.5600,0.460
36.6000,0.498
36.6400,0.513
36.6800,0.502
36.7200,0.513
36.7600,0.501
36.8000,0.499
36.8400,0.471
36.8800,0.483
36.9200,0.493
36.9600,0.487
37.0000,0.474
37.0400,0.505
37.0800,0.509
37.1200,0.495
37.1600,0.505
37.2000,0.507
37.2400,0.525
37.2800,0.546
37.3200,0.539
37.3600,0.506
37.4000,0.587
37.4400,0.527
37.4800,0.571
37.5200,0.600
37.5600,0.608
37.6000,0.630
37.6400,0.669
37.6800,0.702
37.7200,0.677
37.7600,0.738
37.8000,0.815
37.8400,0.895
37.8800,1.068
37.9200,1.209
37.9600,1.466
38.0000,1.923
38.0400,2.789
38.0800,4.465
38.1200,7.739
38.1600,12.264
38.2000,15.444
38.2400,15.946
38.2800,13.910
38.3200,10.843
38.3600,7.491
38.4000,4.570
38.4400,2.820
38.4800,1.920
38.5200,1.470
38.5600,1.200
38.6000,1.018
38.6400,0.949
38.6800,0.866
38.7200,0.781
38.7600,0.765
38.8000,0.701
38.8400,0.688
38.8800,0.618
38.9200,0.585
38.9600,0.587
39.0000,0.594
39.0400,0.580
39.0800,0.551
39.1200,0.543
39.1600,0.554
39.2000,0.507
39.2400,0.490
39.2800,0.465
39.3200,0.502
39.3600,0.498
39.4000,0.463
39.4400,0.484
39.4800,0.463
39.5200,0.455
39.5600,0.438
39.6000,0.478
39.6400,0.463
39.6800,0.478
39.7200,0.423
39.7600,0.444
39.8000,0.438
39.8400,0.447
39.8800,0.425
39.9200,0.443
39.9600,0.448
40.0000,0.432
40.0400,0.443
40.0800,0.421
40.1200,0.464
40.1600,0.403
40.2000,0.412
40.2400,0.406
40.2800,0.409
40.3200,0.402
40.3600,0.412
40.4000,0.421
40.4400,0.387
40.4800,0.365
40.5200,0.397
40.5600,0.412
40.6000,0.394
40.6400,0.417
40.6800,0.443
40.7200,0.393
40.7600,0.366
40.8000,0.396
40.8400,0.388
40.8800,0.379
40.9200,0.396
40.9600,0.387
41.0000,0.402
41.0400,0.397
41.0800,0.406
41.1200,0.366
41.1600,0.387
41.2000,0.387
41.2400,0.393
41.2800,0.393
41.3200,0.354
41.3600,0.373
41.4000,0.389
41.4400,0.385
41.4800,0.404
41.5200,0.378
41.5600,0.352
41.6000,0.380
41.6400,0.393
41.6800,0.379
41.7200,0.371
41.7600,0.350
41.8000,0.390
41.8400,0.382
41.8800,0.364
41.9200,0.385
41.9600,0.367
42.0000,0.379
42.0400,0.380
42.0800,0.373
42.1200,0.378
42.1600,0.385
42.2000,0.390
42.2400,0.377
42.2800,0.368
42.3200,0.391
42.3600,0.364
42.4000,0.395
42.4400,0.370
42.4800,0.364
42.5200,0.348
42.5600,0.367
42.6000,0.376
42.6400,0.379
42.6800,0.383
42.7200,0.366
42.7600,0.377
42.8000,0.389
42.8400,0.359
42.8800,0.380
42.9200,0.365
42.9600,0.357
43.0000,0.366
43.0400,0.357
43.0800,0.379
43.1200,0.405
43.1600,0.389
43.2000,0.348
43.2400,0.377
43.2800,0.329
43.3200,0.363
43.3600,0.375
43.4000,0.368
43.4400,0.386
43.4800,0.399
43.5200,0.416
43.5600,0.411
43.6000,0.428
43.6400,0.392
43.6800,0.386
43.7200,0.388
43.7600,0.422
43.8000,0.451
43.8400,0.462
43.8800,0.466
43.9200,0.471
43.9600,0.533
44.0000,0.517
44.0400,0.554
44.0800,0.596
44.1200,0.646
44.1600,0.723
44.2000,0.808
44.2400,0.945
44.2800,1.164
44.3200,1.532
44.3600,1.959
44.4000,2.652
44.4400,3.283
44.4800,3.671
44.5200,3.742
44.5600,3.606
44.6000,3.067
44.6400,2.591
44.6800,1.838
44.7200,1.469
44.7600,1.116
44.8000,0.901
44.8400,0.722
44.8800,0.670
44.9200,0.596
44.9600,0.535
45.0000,0.491
45.0400,0.482
45.0800,0.482
45.1200,0.439
45.1600,0.442
45.2000,0.423
45.2400,0.418
45.2800,0.399
45.3200,0.391
45.3600,0.366
45.4000,0.365
45.4400,0.373
45.4800,0.361
45.5200,0.361
45.5600,0.341
45.6000,0.351
45.6400,0.346
45.6800,0.377
45.7200,0.343
45.7600,0.337
45.8000,0.329
45.8400,0.321
45.8800,0.347
45.9200,0.310
45.9600,0.321
46.0000,0.321
46.0400,0.294
46.0800,0.314
46.1200,0.332
46.1600,0.312
46.2000,0.329
46.2400,0.300
46.2800,0.303
46.3200,0.293
46.3600,0.270
46.4000,0.319
46.4400,0.294
46.4800,0.288
46.5200,0.298
46.5600,0.288
46.6000,0.311
46.6400,0.300
46.6800,0.288
46.7200,0.290
46.7600,0.297
46.8000,0.305
46.8400,0.279
46.8800,0.301
46.9200,0.307
46.9600,0.294
47.0000,0.304
47.0400,0.305
47.0800,0.319
47.1200,0.298
47.1600,0.285
47.2000,0.299
47.2400,0.296
47.2800,0.289
47.3200,0.288
47.3600,0.284
47.4000,0.266
47.4400,0.291
47.4800,0.283
47.5200,0.294
47.5600,0.263
47.6000,0.284
47.6400,0.271
47.6800,0.283
47.7200,0.287
47.7600,0.268
47.8000,0.280
47.8400,0.281
47.8800,0.279
47.9200,0.273
47.9600,0.279
48.0000,0.286
48.0400,0.266
48.0800,0.284
48.1200,0.266
48.1600,0.271
48.2000,0.276
48.2400,0.297
48.2800,0.293
48.3200,0.259
48.3600,0.271
48.4000,0.281
48.4400,0.266
48.4800,0.278
48.5200,0.285
48.5600,0.273
48.6000,0.262
48.6400,0.267
48.6800,0.262
48.7200,0.284
48.7600,0.262
48.8000,0.257
48.8400,0.265
48.8800,0.264
48.9200,0.273
48.9600,0.276
49.0000,0.270
49.0400,0.265
49.0800,0.244
49.1200,0.281
49.1600,0.266
49.2000,0.284
49.2400,0.265
49.2800,0.274
49.3200,0.260
49.3600,0.249
49.4000,0.243
49.4400,0.254
49.4800,0.258
49.5200,0.262
49.5600,0.266
49.6000,0.259
49.6400,0.252
49.6800,0.259
49.7200,0.251
49.7600,0.242
49.8000,0.248
49.8400,0.264
49.8800,0.263
49.9200,0.248
49.9600,0.261
50.0000,0.247
50.0400,0.240
50.0800,0.245
50.1200,0.264
50.1600,0.265
50.2000,0.253
50.2400,0.254
50.2800,0.238
50.3200,0.251
50.3600,0.221
50.4000,0.240
50.4400,0.258
50.4800,0.251
50.5200,0.253
50.5600,0.248
50.6000,0.242
50.6400,0.261
50.6800,0.245
50.7200,0.248
50.7600,0.241
50.8000,0.247
50.8400,0.229
50.8800,0.255
50.9200,0.248
50.9600,0.252
51.0000,0.245
51.0400,0.240
51.0800,0.267
51.1200,0.252
51.1600,0.257
51.2000,0.271
51.2400,0.248
51.2800,0.235
51.3200,0.261
51.3600,0.215
51.4000,0.250
51.4400,0.238
51.4800,0.239
51.5200,0.238
51.5600,0.254
51.6000,0.251
51.6400,0.225
51.6800,0.224
51.7200,0.235
51.7600,0.218
51.8000,0.228
51.8400,0.227
51.8800,0.238
51.9200,0.218
51.9600,0.218
52.0000,0.223
52.0400,0.218
52.0800,0.216
52.1200,0.233
52.1600,0.231
52.2000,0.253
52.2400,0.241
52.2800,0.227
52.3200,0.222
52.3600,0.209
52.4000,0.240
52.4400,0.242
52.4800,0.244
52.5200,0.239
52.5600,0.237
52.6000,0.247
52.6400,0.256
52.6800,0.239
52.7200,0.229
52.7600,0.230
52.8000,0.257
52.8400,0.249
52.8800,0.239
52.9200,0.208
52.9600,0.211
53.0000,0.236
53.0400,0.223
53.0800,0.216
53.1200,0.229
53.1600,0.205
53.2000,0.222
53.2400,0.207
53.2800,0.205
53.3200,0.220
53.3600,0.225
53.4000,0.216
53.4400,0.207
53.4800,0.232
53.5200,0.244
53.5600,0.237
53.6000,0.230
53.6400,0.234
53.6800,0.230
53.7200,0.214
53.7600,0.216
53.8000,0.213
53.8400,0.220
53.8800,0.220
53.9200,0.220
53.9600,0.235
54.0000,0.216
54.0400,0.221
54.0800,0.199
54.1200,0.207
54.1600,0.228
54.2000,0.220
54.2400,0.236
54.2800,0.225
54.3200,0.214
54.3600,0.219
54.4000,0.230
54.4400,0.233
54.4800,0.235
54.5200,0.209
54.5600,0.215
54.6000,0.219
54.6400,0.225
54.6800,0.211
54.7200,0.218
54.7600,0.211
54.8000,0.219
54.8400,0.203
54.8800,0.226
54.9200,0.225
54.9600,0.226
55.0000,0.217
55.0400,0.208
55.0800,0.205
55.1200,0.203
55.1600,0.205
55.2000,0.225
55.2400,0.222
55.2800,0.211
55.3200,0.219
55.3600,0.194
55.4000,0.206
55.4400,0.219
55.4800,0.217
55.5200,0.229
55.5600,0.221
55.6000,0.194
55.6400,0.243
55.6800,0.207
55.7200,0.197
55.7600,0.216
55.8000,0.186
55.8400,0.208
55.8800,0.211
55.9200,0.202
55.9600,0.203
56.0000,0.220
56.0400,0.184
56.0800,0.206
56.1200,0.219
56.1600,0.222
56.2000,0.217
56.2400,0.200
56.2800,0.206
56.3200,0.219
56.3600,0.213
56.4000,0.194
56.4400,0.221
56.4800,0.185
56.5200,0.197
56.5600,0.226
56.6000,0.204
56.6400,0.205
56.6800,0.186
56.7200,0.208
56.7600,0.216
56.8000,0.197
56.8400,0.210
56.8800,0.218
56.9200,0.202
56.9600,0.226
57.0000,0.203
57.0400,0.203
57.0800,0.182
57.1200,0.207
57.1600,0.203
57.2000,0.188
57.2400,0.184
57.2800,0.208
57.3200,0.192
57.3600,0.206
57.4000,0.205
57.4400,0.223
57.4800,0.211
57.5200,0.221
57.5600,0.222
57.6000,0.193
57.6400,0.204
57.6800,0.190
57.7200,0.203
57.7600,0.176
57.8000,0.190
57.8400,0.199
57.8800,0.197
57.9200,0.213
57.9600,0.198
58.0000,0.195
58.0400,0.194
58.0800,0.191
58.1200,0.196
58.1600,0.202
58.2000,0.195
58.2400,0.200
58.2800,0.202
58.3200,0.196
58.3600,0.192
58.4000,0.193
58.4400,0.199
58.4800,0.188
58.5200,0.206
58.5600,0.178
58.6000,0.196
58.6400,0.189
58.6800,0.216
58.7200,0.199
58.7600,0.186
58.8000,0.192
58.8400,0.191
58.8800,0.200
58.9200,0.216
58.9600,0.204
59.0000,0.202
59.0400,0.191
59.0800,0.199
59.1200,0.204
59.1600,0.200
59.2000,0.219
59.2400,0.197
59.2800,0.192
59.3200,0.189
59.3600,0.194
59.4000,0.205
59.4400,0.192
59.4800,0.188
59.5200,0.197
59.5600,0.212
59.6000,0.205
59.6400,0.199
59.6800,0.193
59.7200,0.190
59.7600,0.203
59.8000,0.186
59.8400,0.189
59.8800,0.196
59.9200,0.205
59.9600,0.191
60.0000,0.173
60.0400,0.210
60.0800,0.219
60.1200,0.213
60.1600,0.206
60.2000,0.198
60.2400,0.198
60.2800,0.170
60.3200,0.200
60.3600,0.189
60.4000,0.198
60.4400,0.204
60.4800,0.184
60.5200,0.199
60.5600,0.182
60.6000,0.192
60.6400,0.210
60.6800,0.210
60.7200,0.202
60.7600,0.202
60.8000,0.194
60.8400,0.198
60.8800,0.189
60.9200,0.191
60.9600,0.156
61.0000,0.201
61.0400,0.197
61.0800,0.200
61.1200,0.192
61.1600,0.205
61.2000,0.174
61.2400,0.202
61.2800,0.175
61.3200,0.181
61.3600,0.210
61.4000,0.208
61.4400,0.186
61.4800,0.205
61.5200,0.198
61.5600,0.214
61.6000,0.200
61.6400,0.209
61.6800,0.202
61.7200,0.227
61.7600,0.207
61.8000,0.192
61.8400,0.216
61.8800,0.194
61.9200,0.210
61.9600,0.199
62.0000,0.207
62.0400,0.191
62.0800,0.193
62.1200,0.194
62.1600,0.198
62.2000,0.206
62.2400,0.222
62.2800,0.195
62.3200,0.231
62.3600,0.201
62.4000,0.217
62.4400,0.220
62.4800,0.177
62.5200,0.208
62.5600,0.210
62.6000,0.211
62.6400,0.197
62.6800,0.201
62.7200,0.227
62.7600,0.198
62.8000,0.219
62.8400,0.220
62.8800,0.220
62.9200,0.187
62.9600,0.221
63.0000,0.213
63.0400,0.212
63.0800,0.224
63.1200,0.220
63.1600,0.231
63.2000,0.238
63.2400,0.230
63.2800,0.231
63.3200,0.222
63.3600,0.244
63.4000,0.247
63.4400,0.237
63.4800,0.220
63.5200,0.234
63.5600,0.216
63.6000,0.252
63.6400,0.250
63.6800,0.233
63.7200,0.235
63.7600,0.248
63.8000,0.257
63.8400,0.253
63.8800,0.267
63.9200,0.263
63.9600,0.281
64.0000,0.269
64.0400,0.265
64.0800,0.300
64.1200,0.277
64.1600,0.309
64.2000,0.314
64.2400,0.333
64.2800,0.387
64.3200,0.396
64.3600,0.442
64.4000,0.510
64.4400,0.565
64.4800,0.691
64.5200,0.972
64.5600,1.311
64.6000,1.690
64.6400,1.897
64.6800,2.048
64.7200,1.911
64.7600,1.720
64.8000,1.592
64.8400,1.455
64.8800,1.266
64.9200,1.013
64.9600,0.798
65.0000,0.616
65.0400,0.498
65.0800,0.435
65.1200,0.407
65.1600,0.381
65.2000,0.382
65.2400,0.358
65.2800,0.348
65.3200,0.334
65.3600,0.327
65.4000,0.313
65.4400,0.335
65.4800,0.333
65.5200,0.315
65.5600,0.291
65.6000,0.316
65.6400,0.290
65.6800,0.310
65.7200,0.299
65.7600,0.332
65.8000,0.325
65.8400,0.287
65.8800,0.316
65.9200,0.325
65.9600,0.324
66.0000,0.345
66.0400,0.305
66.0800,0.320
66.1200,0.303
66.1600,0.327
66.2000,0.322
66.2400,0.319
66.2800,0.296
66.3200,0.307
66.3600,0.325
66.4000,0.325
66.4400,0.311
66.4800,0.332
66.5200,0.310
66.5600,0.349
66.6000,0.357
66.6400,0.326
66.6800,0.361
66.7200,0.346
66.7600,0.337
66.8000,0.357
66.8400,0.361
66.8800,0.381
66.9200,0.388
66.9600,0.393
67.0000,0.378
67.0400,0.392
67.0800,0.386
67.1200,0.387
67.1600,0.413
67.2000,0.404
67.2400,0.400
67.2800,0.425
67.3200,0.432
67.3600,0.444
67.4000,0.466
67.4400,0.404
67.4800,0.454
67.5200,0.493
67.5600,0.481
67.6000,0.466
67.6400,0.460
67.6800,0.473
67.7200,0.475
67.7600,0.476
67.8000,0.507
67.8400,0.517
67.8800,0.547
67.9200,0.577
67.9600,0.561
68.0000,0.619
68.0400,0.572
68.0800,0.553
68.1200,0.603
68.1600,0.600
68.2000,0.597
68.2400,0.641
68.2800,0.654
68.3200,0.666
68.3600,0.740
68.4000,0.722
68.4400,0.763
68.4800,0.816
68.5200,0.816
68.5600,0.885
68.6000,0.929
68.6400,1.043
68.6800,1.286
68.7200,1.569
68.7600,1.830
68.8000,2.009
68.8400,2.017
68.8800,2.256
68.9200,2.944
68.9600,4.733
69.0000,14.689
69.0400,47.906
69.0800,74.917
69.1200,84.324
69.1600,71.795
69.2000,37.934
69.2400,32.667
69.2800,42.665
69.3200,45.779
69.3600,36.572
69.4000,15.756
69.4400,5.034
69.4800,2.786
69.5200,2.115
69.5600,1.685
69.6000,1.533
69.6400,1.358
69.6800,1.225
69.7200,1.173
69.7600,1.081
69.8000,1.023
69.8400,1.003
69.8800,0.886
69.9200,0.860
69.9600,0.853
70.0000,0.811
70.0400,0.834
70.0800,0.756
70.1200,0.714
70.1600,0.736
70.2000,0.635
70.2400,0.690
70.2800,0.688
70.3200,0.674
70.3600,0.651
70.4000,0.615
70.4400,0.605
70.4800,0.576
70.5200,0.579
70.5600,0.593
70.6000,0.549
70.6400,0.554
70.6800,0.507
70.7200,0.526
70.7600,0.528
70.8000,0.493
70.8400,0.522
70.8800,0.508
70.9200,0.474
70.9600,0.474
71.0000,0.463
71.0400,0.459
71.0800,0.439
71.1200,0.444
71.1600,0.403
71.2000,0.425
71.2400,0.424
71.2800,0.393
71.3200,0.415
71.3600,0.395
71.4000,0.383
71.4400,0.395
71.4800,0.360
71.5200,0.375
71.5600,0.373
71.6000,0.378
71.6400,0.357
71.6800,0.351
71.7200,0.350
71.7600,0.338
71.8000,0.363
71.8400,0.333
71.8800,0.332
71.9200,0.335
71.9600,0.312
72.0000,0.325
72.0400,0.335
72.0800,0.326
72.1200,0.314
72.1600,0.275
72.2000,0.293
72.2400,0.279
72.2800,0.284
72.3200,0.285
72.3600,0.289
72.4000,0.279
72.4400,0.301
72.4800,0.310
72.5200,0.267
72.5600,0.257
72.6000,0.256
72.6400,0.279
72.6800,0.259
72.7200,0.237
72.7600,0.246
72.8000,0.240
72.8400,0.251
72.8800,0.251
72.9200,0.261
72.9600,0.255
73.0000,0.231
73.0400,0.256
73.0800,0.237
73.1200,0.224
73.1600,0.232
73.2000,0.213
73.2400,0.228
73.2800,0.239
73.3200,0.244
73.3600,0.222
73.4000,0.235
73.4400,0.251
73.4800,0.220
73.5200,0.223
73.5600,0.242
73.6000,0.237
73.6400,0.204
73.6800,0.232
73.7200,0.214
73.7600,0.206
73.8000,0.216
73.8400,0.213
73.8800,0.229
73.9200,0.227
73.9600,0.229
74.0000,0.214
74.0400,0.201
74.0800,0.215
74.1200,0.206
74.1600,0.216
74.2000,0.209
74.2400,0.195
74.2800,0.215
74.3200,0.228
74.3600,0.199
74.4000,0.217
74.4400,0.199
74.4800,0.204
74.5200,0.193
74.5600,0.197
74.6000,0.201
74.6400,0.204
74.6800,0.184
74.7200,0.193
74.7600,0.204
74.8000,0.194
74.8400,0.208
74.8800,0.204
74.9200,0.189
74.9600,0.195
75.0000,0.199
75.0400,0.175
75.0800,0.193
75.1200,0.207
75.1600,0.191
75.2000,0.194
75.2400,0.182
75.2800,0.198
75.3200,0.191
75.3600,0.177
75.4000,0.193
75.4400,0.189
75.4800,0.185
75.5200,0.169
75.5600,0.180
75.6000,0.174
75.6400,0.174
75.6800,0.201
75.7200,0.209
75.7600,0.188
75.8000,0.176
75.8400,0.181
75.8800,0.194
75.9200,0.201
75.9600,0.178
76.0000,0.186
76.0400,0.175
76.0800,0.187
76.1200,0.177
76.1600,0.187
76.2000,0.173
76.2400,0.180
76.2800,0.181
76.3200,0.162
76.3600,0.188
76.4000,0.199
76.4400,0.185
76.4800,0.195
76.5200,0.195
76.5600,0.198
76.6000,0.193
76.6400,0.199
76.6800,0.194
76.7200,0.197
76.7600,0.214
76.8000,0.194
76.8400,0.183
76.8800,0.184
76.9200,0.172
76.9600,0.198
77.0000,0.196
77.0400,0.205
77.0800,0.213
77.1200,0.216
77.1600,0.208
77.2000,0.249
77.2400,0.240
77.2800,0.274
77.3200,0.271
77.3600,0.298
77.4000,0.328
77.4400,0.402
77.4800,0.433
77.5200,0.598
77.5600,0.717
77.6000,0.964
77.6400,1.264
77.6800,1.473
77.7200,1.560
77.7600,1.528
77.8000,1.410
77.8400,1.272
77.8800,1.197
77.9200,1.137
77.9600,1.028
78.0000,0.949
78.0400,0.784
78.0800,0.621
78.1200,0.497
78.1600,0.407
78.2000,0.334
78.2400,0.294
78.2800,0.249
78.3200,0.250
78.3600,0.241
78.4000,0.221
78.4400,0.219
78.4800,0.222
78.5200,0.199
78.5600,0.207
78.6000,0.184
78.6400,0.189
78.6800,0.191
78.7200,0.188
78.7600,0.161
78.8000,0.181
78.8400,0.164
78.8800,0.167
78.9200,0.181
78.9600,0.166
79.0000,0.169
79.0400,0.173
79.0800,0.173
79.1200,0.162
79.1600,0.171
79.2000,0.163
79.2400,0.160
79.2800,0.148
79.3200,0.164
79.3600,0.151
79.4000,0.149
79.4400,0.164
79.4800,0.143
79.5200,0.150
79.5600,0.161
79.6000,0.166
79.6400,0.137
79.6800,0.153
79.7200,0.147
79.7600,0.161
79.8000,0.170
79.8400,0.181
79.8800,0.157
79.9200,0.144
79.9600,0.179
80.0000,0.147
