theta,intensity
5.0000,8.064
5.0400,8.137
5.0800,7.901
5.1200,7.946
5.1600,7.839
5.2000,7.810
5.2400,7.857
5.2800,7.661
5.3200,7.707
5.3600,7.651
5.4000,7.682
5.4400,7.438
5.4800,7.629
5.5200,7.383
5.5600,7.310
5.6000,7.383
5.6400,7.261
5.6800,7.192
5.7200,7.017
5.7600,6.861
5.8000,6.816
5.8400,6.881
5.8800,6.799
5.9200,6.611
5.9600,6.468
6.0000,6.642
6.0400,6.214
6.0800,6.230
6.1200,6.207
6.1600,6.007
6.2000,5.974
6.2400,5.897
6.2800,5.730
6.3200,5.800
6.3600,5.602
6.4000,5.466
6.4400,5.305
6.4800,5.312
6.5200,5.193
6.5600,5.151
6.6000,4.966
6.6400,5.054
6.6800,4.920
6.7200,4.822
6.7600,4.799
6.8000,4.798
6.8400,4.714
6.8800,4.679
6.9200,4.614
6.9600,4.595
7.0000,4.663
7.0400,4.591
7.0800,4.423
7.1200,4.548
7.1600,4.470
7.2000,4.459
7.2400,4.330
7.2800,4.410
7.3200,4.307
7.3600,4.250
7.4000,4.231
7.4400,4.154
7.4800,4.192
7.5200,4.186
7.5600,4.108
7.6000,4.066
7.6400,4.126
7.6800,4.101
7.7200,4.123
7.7600,4.044
7.8000,4.025
7.8400,3.993
7.8800,4.055
7.9200,4.005
7.9600,4.119
8.0000,4.113
8.0400,3.990
8.0800,4.009
8.1200,4.008
8.1600,3.950
8.2000,3.984
8.2400,4.081
8.2800,4.013
8.3200,3.989
8.3600,4.004
8.4000,4.029
8.4400,4.005
8.4800,3.922
8.5200,4.024
8.5600,3.988
8.6000,3.833
8.6400,3.988
8.6800,3.919
8.7200,4.006
8.7600,3.905
8.8000,3.998
8.8400,3.856
8.8800,3.928
8.9200,3.999
8.9600,3.883
9.0000,3.884
9.0400,3.854
9.0800,3.880
9.1200,3.843
9.1600,3.918
9.2000,3.823
9.2400,3.939
9.2800,3.995
9.3200,3.873
9.3600,3.777
9.4000,3.904
9.4400,3.810
9.4800,3.940
9.5200,3.863
9.5600,3.777
9.6000,3.751
9.6400,3.839
9.6800,3.899
9.7200,3.818
9.7600,3.812
9.8000,3.792
9.8400,3.829
9.8800,3.837
9.9200,3.667
9.9600,3.817
10.0000,3.789
10.0400,3.761
10.0800,3.798
10.1200,3.689
10.1600,3.774
10.2000,3.847
10.2400,3.736
10.2800,3.723
10.3200,3.743
10.3600,3.613
10.4000,3.644
10.4400,3.739
10.4800,3.687
10.5200,3.771
10.5600,3.784
10.6000,3.655
10.6400,3.684
10.6800,3.801
10.7200,3.750
10.7600,3.686
10.8000,3.671
10.8400,3.588
10.8800,3.618
10.9200,3.662
10.9600,3.704
11.0000,3.663
11.0400,3.679
11.0800,3.626
11.1200,3.580
11.1600,3.606
11.2000,3.633
11.2400,3.687
11.2800,3.583
11.3200,3.554
11.3600,3.601
11.4000,3.567
11.4400,3.663
11.4800,3.679
11.5200,3.654
11.5600,3.702
11.6000,3.599
11.6400,3.442
11.6800,3.658
11.7200,3.645
11.7600,3.622
11.8000,3.575
11.8400,3.591
11.8800,3.542
11.9200,3.571
11.9600,3.665
12.0000,3.583
12.0400,3.578
12.0800,3.492
12.1200,3.414
12.1600,3.532
12.2000,3.497
12.2400,3.637
12.2800,3.579
12.3200,3.548
12.3600,3.500
12.4000,3.436
12.4400,3.400
12.4800,3.442
12.5200,3.471
12.5600,3.523
12.6000,3.601
12.6400,3.479
12.6800,3.355
12.7200,3.539
12.7600,3.427
12.8000,3.364
12.8400,3.580
12.8800,3.485
12.9200,3.382
12.9600,3.513
13.0000,3.477
13.0400,3.432
13.0800,3.455
13.1200,3.407
13.1600,3.410
13.2000,3.452
13.2400,3.374
13.2800,3.438
13.3200,3.387
13.3600,3.413
13.4000,3.504
13.4400,3.476
13.4800,3.346
13.5200,3.350
13.5600,3.452
13.6000,3.342
13.6400,3.404
13.6800,3.419
13.7200,3.337
13.7600,3.424
13.8000,3.410
13.8400,3.388
13.8800,3.380
13.9200,3.335
13.9600,3.243
14.0000,3.323
14.0400,3.298
14.0800,3.343
14.1200,3.329
14.1600,3.247
14.2000,3.324
14.2400,3.441
14.2800,3.403
14.3200,3.302
14.3600,3.351
14.4000,3.271
14.4400,3.350
14.4800,3.299
14.5200,3.294
14.5600,3.338
14.6000,3.198
14.6400,3.279
14.6800,3.245
14.7200,3.277
14.7600,3.235
14.8000,3.246
14.8400,3.253
14.8800,3.308
14.9200,3.232
14.9600,3.259
15.0000,3.295
15.0400,3.264
15.0800,3.254
15.1200,3.200
15.1600,3.194
15.2000,3.282
15.2400,3.186
15.2800,3.190
15.3200,3.227
15.3600,3.238
15.4000,3.262
15.4400,3.167
15.4800,3.251
15.5200,3.134
15.5600,3.131
15.6000,3.255
15.6400,3.223
15.6800,3.195
15.7200,3.173
15.7600,3.138
15.8000,3.112
15.8400,3.148
15.8800,3.162
15.9200,3.020
15.9600,3.135
16.0000,3.201
16.0400,3.076
16.0800,3.121
16.1200,3.198
16.1600,3.105
16.2000,3.124
16.2400,3.054
16.2800,3.092
16.3200,3.242
16.3600,3.103
16.4000,3.013
16.4400,3.107
16.4800,3.056
16.5200,3.166
16.5600,3.028
16.6000,3.036
16.6400,3.167
16.6800,3.107
16.7200,3.058
16.7600,2.981
16.8000,3.137
16.8400,3.027
16.8800,3.118
16.9200,3.080
16.9600,3.059
17.0000,2.995
17.0400,3.070
17.0800,3.089
17.1200,3.058
17.1600,3.023
17.2000,3.016
17.2400,2.937
17.2800,3.044
17.3200,3.013
17.3600,3.042
17.4000,3.075
17.4400,2.980
17.4800,3.024
17.5200,2.944
17.5600,3.040
17.6000,2.978
17.6400,2.986
17.6800,2.970
17.7200,2.946
17.7600,3.017
17.8000,3.012
17.8400,2.921
17.8800,2.967
17.9200,3.006
17.9600,2.980
18.0000,2.985
18.0400,2.890
18.0800,2.925
18.1200,2.953
18.1600,2.851
18.2000,2.916
18.2400,2.932
18.2800,2.857
18.3200,2.995
18.3600,2.936
18.4000,2.827
18.4400,2.962
18.4800,2.861
18.5200,2.872
18.5600,2.872
18.6000,2.907
18.6400,2.858
18.6800,2.818
18.7200,2.853
18.7600,2.829
18.8000,2.817
18.8400,2.888
18.8800,2.931
18.9200,3.033
18.9600,2.863
19.0000,2.788
19.0400,2.963
19.0800,2.804
19.1200,2.828
19.1600,2.851
19.2000,2.864
19.2400,2.840
19.2800,2.827
19.3200,2.752
19.3600,2.731
19.4000,2.918
19.4400,2.802
19.4800,2.801
19.5200,2.781
19.5600,2.793
19.6000,2.825
19.6400,2.751
19.6800,2.843
19.7200,2.835
19.7600,2.810
19.8000,2.697
19.8400,2.675
19.8800,2.782
19.9200,2.744
19.9600,2.816
20.0000,2.682
20.0400,2.719
20.0800,2.790
20.1200,2.831
20.1600,2.693
20.2000,2.765
20.2400,2.756
20.2800,2.697
20.3200,2.710
20.3600,2.759
20.4000,2.696
20.4400,2.803
20.4800,2.634
20.5200,2.677
20.5600,2.698
20.6000,2.674
20.6400,2.668
20.6800,2.713
20.7200,2.681
20.7600,2.759
20.8000,2.584
20.8400,2.632
20.8800,2.605
20.9200,2.715
20.9600,2.674
21.0000,2.638
21.0400,2.681
21.0800,2.696
21.1200,2.626
21.1600,2.594
21.2000,2.681
21.2400,2.694
21.2800,2.551
21.3200,2.665
21.3600,2.645
21.4000,2.640
21.4400,2.504
21.4800,2.606
21.5200,2.540
21.5600,2.691
21.6000,2.642
21.6400,2.550
21.6800,2.569
21.7200,2.587
21.7600,2.632
21.8000,2.648
21.8400,2.642
21.8800,2.565
21.9200,2.578
21.9600,2.646
22.0000,2.597
22.0400,2.585
22.0800,2.606
22.1200,2.502
22.1600,2.532
22.2000,2.510
22.2400,2.517
22.2800,2.444
22.3200,2.506
22.3600,2.469
22.4000,2.491
22.4400,2.595
22.4800,2.519
22.5200,2.501
22.5600,2.520
22.6000,2.579
22.6400,2.475
22.6800,2.523
22.7200,2.505
22.7600,2.541
22.8000,2.558
22.8400,2.404
22.8800,2.549
22.9200,2.544
22.9600,2.451
23.0000,2.451
23.0400,2.433
23.0800,2.341
23.1200,2.471
23.1600,2.471
23.2000,2.469
23.2400,2.434
23.2800,2.379
23.3200,2.401
23.3600,2.365
23.4000,2.486
23.4400,2.508
23.4800,2.462
23.5200,2.290
23.5600,2.458
23.6000,2.477
23.6400,2.450
23.6800,2.342
23.7200,2.369
23.7600,2.411
23.8000,2.401
23.8400,2.347
23.8800,2.358
23.9200,2.390
23.9600,2.349
24.0000,2.346
24.0400,2.426
24.0800,2.276
24.1200,2.377
24.1600,2.335
24.2000,2.347
24.2400,2.348
24.2800,2.386
24.3200,2.352
24.3600,2.380
24.4000,2.330
24.4400,2.302
24.4800,2.246
24.5200,2.344
24.5600,2.301
24.6000,2.303
24.6400,2.392
24.6800,2.378
24.7200,2.254
24.7600,2.352
24.8000,2.348
24.8400,2.265
24.8800,2.361
24.9200,2.264
24.9600,2.192
25.0000,2.243
25.0400,2.294
25.0800,2.218
25.1200,2.204
25.1600,2.304
25.2000,2.237
25.2400,2.274
25.2800,2.362
25.3200,2.211
25.3600,2.266
25.4000,2.242
25.4400,2.239
25.4800,2.254
25.5200,2.191
25.5600,2.211
25.6000,2.247
25.6400,2.128
25.6800,2.190
25.7200,2.303
25.7600,2.240
25.8000,2.205
25.8400,2.216
25.8800,2.166
25.9200,2.165
25.9600,2.220
26.0000,2.263
26.0400,2.165
26.0800,2.165
26.1200,2.214
26.1600,2.198
26.2000,2.215
26.2400,2.158
26.2800,2.191
26.3200,2.161
26.3600,2.234
26.4000,2.126
26.4400,2.238
26.4800,2.171
26.5200,2.159
26.5600,2.138
26.6000,2.145
26.6400,2.140
26.6800,2.142
26.7200,2.190
26.7600,2.086
26.8000,2.108
26.8400,2.149
26.8800,2.260
26.9200,2.174
26.9600,2.068
27.0000,2.105
27.0400,2.142
27.0800,2.093
27.1200,2.014
27.1600,2.125
27.2000,2.102
27.2400,2.119
27.2800,2.080
27.3200,2.109
27.3600,2.050
27.4000,2.024
27.4400,2.079
27.4800,2.110
27.5200,2.142
27.5600,2.168
27.6000,2.113
27.6400,2.056
27.6800,2.016
27.7200,2.013
27.7600,2.030
27.8000,1.973
27.8400,2.060
27.8800,1.985
27.9200,2.104
27.9600,1.976
28.0000,2.025
28.0400,1.983
28.0800,1.952
28.1200,2.032
28.1600,2.010
28.2000,2.024
28.2400,1.964
28.2800,1.983
28.3200,1.973
28.3600,1.980
28.4000,2.018
28.4400,2.014
28.4800,1.994
28.5200,1.977
28.5600,2.013
28.6000,1.952
28.6400,1.996
28.6800,2.009
28.7200,1.929
28.7600,1.925
28.8000,1.983
28.8400,1.970
28.8800,1.994
28.9200,1.992
28.9600,1.933
29.0000,1.917
29.0400,1.962
29.0800,1.934
29.1200,1.994
29.1600,1.901
29.2000,1.944
29.2400,1.941
29.2800,1.900
29.3200,1.936
29.3600,1.900
29.4000,1.880
29.4400,1.967
29.4800,1.907
29.5200,1.948
29.5600,1.969
29.6000,1.989
29.6400,1.905
29.6800,1.940
29.7200,1.945
29.7600,1.835
29.8000,1.922
29.8400,1.896
29.8800,1.889
29.9200,1.847
29.9600,1.898
30.0000,1.870
30.0400,1.963
30.0800,1.919
30.1200,1.888
30.1600,1.904
30.2000,1.918
30.2400,1.895
30.2800,1.848
30.3200,1.841
30.3600,1.839
30.4000,1.783
30.4400,1.798
30.4800,1.833
30.5200,1.895
30.5600,1.888
30.6000,1.925
30.6400,1.828
30.6800,1.797
30.7200,1.889
30.7600,1.794
30.8000,1.872
30.8400,1.859
30.8800,1.836
30.9200,1.861
30.9600,1.819
31.0000,1.854
31.0400,1.922
31.0800,1.978
31.1200,1.971
31.1600,1.914
31.2000,1.930
31.2400,1.907
31.2800,1.935
31.3200,1.889
31.3600,2.039
31.4000,2.003
31.4400,2.108
31.4800,2.203
31.5200,2.220
31.5600,2.293
31.6000,2.432
31.6400,2.557
31.6800,2.578
31.7200,2.759
31.7600,2.821
31.8000,2.810
31.8400,2.866
31.8800,2.700
31.9200,2.649
31.9600,2.599
32.0000,2.542
32.0400,2.366
32.0800,2.287
32.1200,2.253
32.1600,2.181
32.2000,2.095
32.2400,2.084
32.2800,1.986
32.3200,1.918
32.3600,1.990
32.4000,1.832
32.4400,1.872
32.4800,1.885
32.5200,1.799
32.5600,1.800
32.6000,1.818
32.6400,1.804
32.6800,1.843
32.7200,1.797
32.7600,1.738
32.8000,1.770
32.8400,1.816
32.8800,1.838
32.9200,1.726
32.9600,1.726
33.0000,1.740
33.0400,1.680
33.0800,1.744
33.1200,1.766
33.1600,1.743
33.2000,1.730
33.2400,1.653
33.2800,1.707
33.3200,1.774
33.3600,1.711
33.4000,1.737
33.4400,1.792
33.4800,1.688
33.5200,1.699
33.5600,1.779
33.6000,1.762
33.6400,1.676
33.6800,1.700
33.7200,1.703
33.7600,1.715
33.8000,1.778
33.8400,1.893
33.8800,1.854
33.9200,1.871
33.9600,1.867
34.0000,1.860
34.0400,1.916
34.0800,1.963
34.1200,2.100
34.1600,2.050
34.2000,2.078
34.2400,2.157
34.2800,2.142
34.3200,2.216
34.3600,2.258
34.4000,2.241
34.4400,2.149
34.4800,2.166
34.5200,2.156
34.5600,2.084
34.6000,2.038
34.6400,2.070
34.6800,2.008
34.7200,1.973
34.7600,1.874
34.8000,1.867
34.8400,1.830
34.8800,1.798
34.9200,1.766
34.9600,1.723
35.0000,1.754
35.0400,1.807
35.0800,1.727
35.1200,1.629
35.1600,1.707
35.2000,1.710
35.2400,1.652
35.2800,1.674
35.3200,1.718
35.3600,1.731
35.4000,1.830
35.4400,1.753
35.4800,1.744
35.5200,1.800
35.5600,1.805
35.6000,1.821
35.6400,1.895
35.6800,1.841
35.7200,1.914
35.7600,2.010
35.8000,2.088
35.8400,2.114
35.8800,2.250
35.9200,2.292
35.9600,2.477
36.0000,2.506
36.0400,2.556
36.0800,2.732
36.1200,2.856
36.1600,2.901
36.2000,2.845
36.2400,2.958
36.2800,2.905
36.3200,2.983
36.3600,2.820
36.4000,2.711
36.4400,2.545
36.4800,2.529
36.5200,2.367
36.5600,2.300
36.6000,2.211
36.6400,2.239
36.6800,2.032
36.7200,1.969
36.7600,1.850
36.8000,1.835
36.8400,1.717
36.8800,1.688
36.9200,1.647
36.9600,1.669
37.0000,1.592
37.0400,1.606
37.0800,1.616
37.1200,1.572
37.1600,1.484
37.2000,1.515
37.2400,1.520
37.2800,1.463
37.3200,1.595
37.3600,1.456
37.4000,1.466
37.4400,1.389
37.4800,1.497
37.5200,1.385
37.5600,1.474
37.6000,1.463
37.6400,1.421
37.6800,1.427
37.7200,1.431
37.7600,1.400
37.8000,1.317
37.8400,1.414
37.8800,1.346
37.9200,1.385
37.9600,1.327
38.0000,1.345
38.0400,1.384
38.0800,1.338
38.1200,1.428
38.1600,1.384
38.2000,1.363
38.2400,1.352
38.2800,1.364
38.3200,1.326
38.3600,1.331
38.4000,1.325
38.4400,1.316
38.4800,1.329
38.5200,1.317
38.5600,1.347
38.6000,1.320
38.6400,1.435
38.6800,1.419
38.7200,1.400
38.7600,1.375
38.8000,1.456
38.8400,1.440
38.8800,1.517
38.9200,1.605
38.9600,1.555
39.0000,1.505
39.0400,1.467
39.0800,1.390
39.1200,1.367
39.1600,1.358
39.2000,1.358
39.2400,1.327
39.2800,1.317
39.3200,1.364
39.3600,1.357
39.4000,1.312
39.4400,1.270
39.4800,1.221
39.5200,1.317
39.5600,1.273
39.6000,1.260
39.6400,1.261
39.6800,1.247
39.7200,1.274
39.7600,1.228
39.8000,1.240
39.8400,1.232
39.8800,1.219
39.9200,1.272
39.9600,1.240
40.0000,1.221
40.0400,1.165
40.0800,1.278
40.1200,1.192
40.1600,1.289
40.2000,1.238
40.2400,1.244
40.2800,1.213
40.3200,1.202
40.3600,1.173
40.4000,1.191
40.4400,1.223
40.4800,1.181
40.5200,1.232
40.5600,1.224
40.6000,1.239
40.6400,1.262
40.6800,1.179
40.7200,1.127
40.7600,1.226
40.8000,1.211
40.8400,1.184
40.8800,1.206
40.9200,1.163
40.9600,1.254
41.0000,1.210
41.0400,1.196
41.0800,1.151
41.1200,1.164
41.1600,1.209
41.2000,1.139
41.2400,1.146
41.2800,1.119
41.3200,1.130
41.3600,1.193
41.4000,1.158
41.4400,1.158
41.4800,1.087
41.5200,1.202
41.5600,1.158
41.6000,1.164
41.6400,1.124
41.6800,1.168
41.7200,1.109
41.7600,1.112
41.8000,1.156
41.8400,1.118
41.8800,1.176
41.9200,1.153
41.9600,1.116
42.0000,1.130
42.0400,1.187
42.0800,1.117
42.1200,1.157
42.1600,1.183
42.2000,1.117
42.2400,1.164
42.2800,1.123
42.3200,1.158
42.3600,1.136
42.4000,1.206
42.4400,1.172
42.4800,1.130
42.5200,1.155
42.5600,1.140
42.6000,1.189
42.6400,1.165
42.6800,1.191
42.7200,1.246
42.7600,1.251
42.8000,1.268
42.8400,1.252
42.8800,1.383
42.9200,1.480
42.9600,1.596
43.0000,1.707
43.0400,1.908
43.0800,1.917
43.1200,1.984
43.1600,1.995
43.2000,1.934
43.2400,1.816
43.2800,1.753
43.3200,1.484
43.3600,1.337
43.4000,1.302
43.4400,1.231
43.4800,1.139
43.5200,1.204
43.5600,1.126
43.6000,1.152
43.6400,1.128
43.6800,1.143
43.7200,1.080
43.7600,1.101
43.8000,1.022
43.8400,1.078
43.8800,1.071
43.9200,1.058
43.9600,0.987
44.0000,1.027
44.0400,0.997
44.0800,1.027
44.1200,0.985
44.1600,1.064
44.2000,1.018
44.2400,1.028
44.2800,1.002
44.3200,1.064
44.3600,0.990
44.4000,1.043
44.4400,0.972
44.4800,1.005
44.5200,1.045
44.5600,1.102
44.6000,1.017
44.6400,0.989
44.6800,1.020
44.7200,0.996
44.7600,0.993
44.8000,0.953
44.8400,1.025
44.8800,0.948
44.9200,0.946
44.9600,0.945
45.0000,0.948
45.0400,1.010
45.0800,1.025
45.1200,0.988
45.1600,0.988
45.2000,0.943
45.2400,0.990
45.2800,1.009
45.3200,0.967
45.3600,1.011
45.4000,0.986
45.4400,0.963
45.4800,0.972
45.5200,0.974
45.5600,0.916
45.6000,0.941
45.6400,1.008
45.6800,0.935
45.7200,0.920
45.7600,0.953
45.8000,0.987
45.8400,0.931
45.8800,0.916
45.9200,1.014
45.9600,0.974
46.0000,0.931
46.0400,0.952
46.0800,0.916
46.1200,0.966
46.1600,1.007
46.2000,0.977
46.2400,0.926
46.2800,0.921
46.3200,0.975
46.3600,1.031
46.4000,0.965
46.4400,0.928
46.4800,0.954
46.5200,0.966
46.5600,0.953
46.6000,0.921
46.6400,0.975
46.6800,1.054
46.7200,0.962
46.7600,0.995
46.8000,0.954
46.8400,0.989
46.8800,0.998
46.9200,1.023
46.9600,0.942
47.0000,1.004
47.0400,1.002
47.0800,0.951
47.1200,0.988
47.1600,1.003
47.2000,1.035
47.2400,1.033
47.2800,1.039
47.3200,1.000
47.3600,0.956
47.4000,1.039
47.4400,1.026
47.4800,1.042
47.5200,0.976
47.5600,1.019
47.6000,1.071
47.6400,1.001
47.6800,0.999
47.7200,1.017
47.7600,0.966
47.8000,1.072
47.8400,1.024
47.8800,0.987
47.9200,0.984
47.9600,1.004
48.0000,0.942
48.0400,0.985
48.0800,0.937
48.1200,0.949
48.1600,0.979
48.2000,0.918
48.2400,0.874
48.2800,0.965
48.3200,0.878
48.3600,0.914
48.4000,0.913
48.4400,0.895
48.4800,0.920
48.5200,0.925
48.5600,0.855
48.6000,0.869
48.6400,0.878
48.6800,0.853
48.7200,0.878
48.7600,0.854
48.8000,0.864
48.8400,0.875
48.8800,0.908
48.9200,0.870
48.9600,0.860
49.0000,0.855
49.0400,0.817
49.0800,0.809
49.1200,0.865
49.1600,0.883
49.2000,0.807
49.2400,0.805
49.2800,0.837
49.3200,0.820
49.3600,0.862
49.4000,0.835
49.4400,0.813
49.4800,0.818
49.5200,0.816
49.5600,0.878
49.6000,0.796
49.6400,0.849
49.6800,0.814
49.7200,0.842
49.7600,0.788
49.8000,0.847
49.8400,0.871
49.8800,0.781
49.9200,0.778
49.9600,0.845
50.0000,0.778
50.0400,0.774
50.0800,0.831
50.1200,0.799
50.1600,0.803
50.2000,0.754
50.2400,0.775
50.2800,0.773
50.3200,0.783
50.3600,0.762
50.4000,0.713
50.4400,0.849
50.4800,0.795
50.5200,0.813
50.5600,0.844
50.6000,0.866
50.6400,0.838
50.6800,0.767
50.7200,0.801
50.7600,0.805
50.8000,0.794
50.8400,0.793
50.8800,0.782
50.9200,0.848
50.9600,0.765
51.0000,0.765
51.0400,0.801
51.0800,0.741
51.1200,0.741
51.1600,0.731
51.2000,0.741
51.2400,0.773
51.2800,0.717
51.3200,0.777
51.3600,0.729
51.4000,0.715
51.4400,0.746
51.4800,0.791
51.5200,0.765
51.5600,0.794
51.6000,0.763
51.6400,0.732
51.6800,0.720
51.7200,0.757
51.7600,0.775
51.8000,0.735
51.8400,0.749
51.8800,0.732
51.9200,0.758
51.9600,0.769
52.0000,0.764
52.0400,0.721
52.0800,0.727
52.1200,0.732
52.1600,0.710
52.2000,0.760
52.2400,0.752
52.2800,0.752
52.3200,0.691
52.3600,0.706
52.4000,0.740
52.4400,0.762
52.4800,0.680
52.5200,0.722
52.5600,0.671
52.6000,0.723
52.6400,0.742
52.6800,0.757
52.7200,0.716
52.7600,0.739
52.8000,0.701
52.8400,0.757
52.8800,0.697
52.9200,0.715
52.9600,0.738
53.0000,0.710
53.0400,0.737
53.0800,0.720
53.1200,0.713
53.1600,0.701
53.2000,0.722
53.2400,0.762
53.2800,0.721
53.3200,0.705
53.3600,0.715
53.4000,0.703
53.4400,0.735
53.4800,0.705
53.5200,0.724
53.5600,0.755
53.6000,0.703
53.6400,0.659
53.6800,0.699
53.7200,0.706
53.7600,0.727
53.8000,0.693
53.8400,0.709
53.8800,0.772
53.9200,0.783
53.9600,0.775
54.0000,0.795
54.0400,0.810
54.0800,0.787
54.1200,0.781
54.1600,0.792
54.2000,0.786
54.2400,0.744
54.2800,0.826
54.3200,0.753
54.3600,0.746
54.4000,0.719
54.4400,0.744
54.4800,0.686
54.5200,0.712
54.5600,0.737
54.6000,0.706
54.6400,0.675
54.6800,0.666
54.7200,0.660
54.7600,0.670
54.8000,0.681
54.8400,0.707
54.8800,0.693
54.9200,0.672
54.9600,0.697
55.0000,0.689
55.0400,0.684
55.0800,0.652
55.1200,0.691
55.1600,0.680
55.2000,0.721
55.2400,0.681
55.2800,0.704
55.3200,0.656
55.3600,0.651
55.4000,0.665
55.4400,0.691
55.4800,0.705
55.5200,0.719
55.5600,0.665
55.6000,0.641
55.6400,0.666
55.6800,0.680
55.7200,0.734
55.7600,0.715
55.8000,0.701
55.8400,0.730
55.8800,0.682
55.9200,0.752
55.9600,0.731
56.0000,0.760
56.0400,0.767
56.0800,0.734
56.1200,0.758
56.1600,0.792
56.2000,0.736
56.2400,0.842
56.2800,0.877
56.3200,0.844
56.3600,0.885
56.4000,0.891
56.4400,0.917
56.4800,0.917
56.5200,1.004
56.5600,1.064
56.6000,1.025
56.6400,1.098
56.6800,1.048
56.7200,1.000
56.7600,1.016
56.8000,0.976
56.8400,0.991
56.8800,0.910
56.9200,0.923
56.9600,0.888
57.0000,0.827
57.0400,0.786
57.0800,0.791
57.1200,0.770
57.1600,0.799
57.2000,0.709
57.2400,0.722
57.2800,0.683
57.3200,0.702
57.3600,0.732
57.4000,0.712
57.4400,0.662
57.4800,0.704
57.5200,0.715
57.5600,0.660
57.6000,0.679
57.6400,0.701
57.6800,0.667
57.7200,0.688
57.7600,0.680
57.8000,0.624
57.8400,0.622
57.8800,0.674
57.9200,0.647
57.9600,0.650
58.0000,0.648
58.0400,0.646
58.0800,0.647
58.1200,0.667
58.1600,0.591
58.2000,0.677
58.2400,0.620
58.2800,0.630
58.3200,0.605
58.3600,0.638
58.4000,0.620
58.4400,0.577
58.4800,0.591
58.5200,0.668
58.5600,0.628
58.6000,0.619
58.6400,0.602
58.6800,0.636
58.7200,0.645
58.7600,0.619
58.8000,0.614
58.8400,0.617
58.8800,0.617
58.9200,0.577
58.9600,0.593
59.0000,0.680
59.0400,0.639
59.0800,0.618
59.1200,0.563
59.1600,0.613
59.2000,0.608
59.2400,0.588
59.2800,0.645
59.3200,0.617
59.3600,0.639
59.4000,0.619
59.4400,0.570
59.4800,0.634
59.5200,0.644
59.5600,0.603
59.6000,0.570
59.6400,0.566
59.6800,0.612
59.7200,0.628
59.7600,0.592
59.8000,0.625
59.8400,0.641
59.8800,0.606
59.9200,0.639
59.9600,0.607
60.0000,0.591
60.0400,0.626
60.0800,0.590
60.1200,0.586
60.1600,0.549
60.2000,0.571
60.2400,0.581
60.2800,0.601
60.3200,0.557
60.3600,0.633
60.4000,0.547
60.4400,0.612
60.4800,0.577
60.5200,0.594
60.5600,0.555
60.6000,0.591
60.6400,0.622
60.6800,0.559
60.7200,0.574
60.7600,0.618
60.8000,0.608
60.8400,0.587
60.8800,0.575
60.9200,0.595
60.9600,0.569
61.0000,0.597
61.0400,0.584
61.0800,0.568
61.1200,0.568
61.1600,0.529
61.2000,0.589
61.2400,0.552
61.2800,0.567
61.3200,0.557
61.3600,0.582
61.4000,0.567
61.4400,0.612
61.4800,0.582
61.5200,0.600
61.5600,0.628
61.6000,0.655
61.6400,0.717
61.6800,0.649
61.7200,0.644
61.7600,0.562
61.8000,0.584
61.8400,0.611
61.8800,0.597
61.9200,0.632
61.9600,0.604
62.0000,0.616
62.0400,0.651
62.0800,0.685
62.1200,0.626
62.1600,0.648
62.2000,0.687
62.2400,0.655
62.2800,0.666
62.3200,0.669
62.3600,0.709
62.4000,0.674
62.4400,0.700
62.4800,0.710
62.5200,0.726
62.5600,0.757
62.6000,0.669
62.6400,0.725
62.6800,0.736
62.7200,0.730
62.7600,0.737
62.8000,0.807
62.8400,0.791
62.8800,0.772
62.9200,0.797
62.9600,0.812
63.0000,0.769
63.0400,0.737
63.0800,0.742
63.1200,0.732
63.1600,0.720
63.2000,0.718
63.2400,0.664
63.2800,0.719
63.3200,0.667
63.3600,0.750
63.4000,0.645
63.4400,0.696
63.4800,0.638
63.5200,0.648
63.5600,0.612
63.6000,0.644
63.6400,0.621
63.6800,0.617
63.7200,0.598
63.7600,0.638
63.8000,0.573
63.8400,0.614
63.8800,0.585
63.9200,0.602
63.9600,0.589
64.0000,0.594
64.0400,0.612
64.0800,0.634
64.1200,0.603
64.1600,0.613
64.2000,0.638
64.2400,0.598
64.2800,0.600
64.3200,0.603
64.3600,0.609
64.4000,0.596
64.4400,0.613
64.4800,0.593
64.5200,0.619
64.5600,0.597
64.6000,0.585
64.6400,0.612
64.6800,0.599
64.7200,0.624
64.7600,0.652
64.8000,0.626
64.8400,0.605
64.8800,0.629
64.9200,0.634
64.9600,0.571
65.0000,0.660
65.0400,0.655
65.0800,0.662
65.1200,0.651
65.1600,0.663
65.2000,0.674
65.2400,0.649
65.2800,0.701
65.3200,0.651
65.3600,0.675
65.4000,0.673
65.4400,0.671
65.4800,0.692
65.5200,0.693
65.5600,0.719
65.6000,0.705
65.6400,0.681
65.6800,0.726
65.7200,0.777
65.7600,0.787
65.8000,0.754
65.8400,0.761
65.8800,0.783
65.9200,0.729
65.9600,0.772
66.0000,0.779
66.0400,0.788
66.0800,0.831
66.1200,0.846
66.1600,0.827
66.2000,0.871
66.2400,0.833
66.2800,0.910
66.3200,0.898
66.3600,0.936
66.4000,0.921
66.4400,0.915
66.4800,0.930
66.5200,0.916
66.5600,0.968
66.6000,0.979
66.6400,1.013
66.6800,1.039
66.7200,1.020
66.7600,1.056
66.8000,1.077
66.8400,1.118
66.8800,1.105
66.9200,1.143
66.9600,1.178
67.0000,1.145
67.0400,1.197
67.0800,1.201
67.1200,1.218
67.1600,1.218
67.2000,1.300
67.2400,1.283
67.2800,1.281
67.3200,1.327
67.3600,1.419
67.4000,1.398
67.4400,1.556
67.4800,1.482
67.5200,1.494
67.5600,1.543
67.6000,1.597
67.6400,1.639
67.6800,1.713
67.7200,1.770
67.7600,1.788
67.8000,1.852
67.8400,1.847
67.8800,1.898
67.9200,1.993
67.9600,2.067
68.0000,2.123
68.0400,2.172
68.0800,2.155
68.1200,2.315
68.1600,2.246
68.2000,2.386
68.2400,2.350
68.2800,2.478
68.3200,2.528
68.3600,2.633
68.4000,2.718
68.4400,2.801
68.4800,2.838
68.5200,3.118
68.5600,3.293
68.6000,3.602
68.6400,3.931
68.6800,4.911
68.7200,6.543
68.7600,8.118
68.8000,8.929
68.8400,8.922
68.8800,9.280
68.9200,11.261
68.9600,16.065
69.0000,28.496
69.0400,84.888
69.0800,405.637
69.1200,658.399
69.1600,322.523
69.2000,77.819
69.2400,71.579
69.2800,229.494
69.3200,333.678
69.3600,157.326
69.4000,37.807
69.4400,17.073
69.4800,11.334
69.5200,8.738
69.5600,7.298
69.6000,6.016
69.6400,5.404
69.6800,4.865
69.7200,4.447
69.7600,4.035
69.8000,3.766
69.8400,3.615
69.8800,3.296
69.9200,3.127
69.9600,2.878
70.0000,2.859
70.0400,2.806
70.0800,2.616
70.1200,2.628
70.1600,2.445
70.2000,2.361
70.2400,2.365
70.2800,2.254
70.3200,2.157
70.3600,2.074
70.4000,2.037
70.4400,1.918
70.4800,1.899
70.5200,1.893
70.5600,1.738
70.6000,1.729
70.6400,1.680
70.6800,1.647
70.7200,1.563
70.7600,1.546
70.8000,1.491
70.8400,1.511
70.8800,1.388
70.9200,1.330
70.9600,1.315
71.0000,1.280
71.0400,1.241
71.0800,1.217
71.1200,1.158
71.1600,1.199
71.2000,1.164
71.2400,1.121
71.2800,1.089
71.3200,1.013
71.3600,1.089
71.4000,0.979
71.4400,0.995
71.4800,0.948
71.5200,0.976
71.5600,0.918
71.6000,0.862
71.6400,0.928
71.6800,0.980
71.7200,0.874
71.7600,0.829
71.8000,0.829
71.8400,0.837
71.8800,0.774
71.9200,0.784
71.9600,0.741
72.0000,0.765
72.0400,0.701
72.0800,0.788
72.1200,0.729
72.1600,0.738
72.2000,0.734
72.2400,0.690
72.2800,0.711
72.3200,0.652
72.3600,0.666
72.4000,0.685
72.4400,0.621
72.4800,0.677
72.5200,0.639
72.5600,0.662
72.6000,0.608
72.6400,0.650
72.6800,0.609
72.7200,0.594
72.7600,0.568
72.8000,0.591
72.8400,0.594
72.8800,0.603
72.9200,0.562
72.9600,0.518
73.0000,0.480
73.0400,0.523
73.0800,0.566
73.1200,0.541
73.1600,0.522
73.2000,0.498
73.2400,0.484
73.2800,0.472
73.3200,0.508
73.3600,0.506
73.4000,0.529
73.4400,0.509
73.4800,0.481
73.5200,0.435
73.5600,0.471
73.6000,0.477
73.6400,0.492
73.6800,0.479
73.7200,0.473
73.7600,0.464
73.8000,0.439
73.8400,0.462
73.8800,0.419
73.9200,0.451
73.9600,0.434
74.0000,0.440
74.0400,0.447
74.0800,0.438
74.1200,0.436
74.1600,0.402
74.2000,0.464
74.2400,0.430
74.2800,0.422
74.3200,0.421
74.3600,0.427
74.4000,0.403
74.4400,0.472
74.4800,0.405
74.5200,0.419
74.5600,0.431
74.6000,0.415
74.6400,0.377
74.6800,0.397
74.7200,0.402
74.7600,0.403
74.8000,0.390
74.8400,0.399
74.8800,0.431
74.9200,0.419
74.9600,0.427
75.0000,0.393
75.0400,0.413
75.0800,0.405
75.1200,0.429
75.1600,0.384
75.2000,0.367
75.2400,0.379
75.2800,0.365
75.3200,0.401
75.3600,0.364
75.4000,0.385
75.4400,0.346
75.4800,0.368
75.5200,0.393
75.5600,0.385
75.6000,0.382
75.6400,0.382
75.6800,0.380
75.7200,0.389
75.7600,0.360
75.8000,0.376
75.8400,0.347
75.8800,0.371
75.9200,0.383
75.9600,0.381
76.0000,0.338
76.0400,0.352
76.0800,0.366
76.1200,0.347
76.1600,0.385
76.2000,0.326
76.2400,0.384
76.2800,0.360
76.3200,0.366
76.3600,0.362
76.4000,0.349
76.4400,0.366
76.4800,0.360
76.5200,0.344
76.5600,0.383
76.6000,0.391
76.6400,0.357
76.6800,0.366
76.7200,0.380
76.7600,0.366
76.8000,0.372
76.8400,0.367
76.8800,0.357
76.9200,0.347
76.9600,0.332
77.0000,0.330
77.0400,0.357
77.0800,0.360
77.1200,0.361
77.1600,0.369
77.2000,0.364
77.2400,0.365
77.2800,0.353
77.3200,0.351
77.3600,0.354
77.4000,0.319
77.4400,0.368
77.4800,0.334
77.5200,0.344
77.5600,0.390
77.6000,0.332
77.6400,0.353
77.6800,0.353
77.7200,0.336
77.7600,0.318
77.8000,0.320
77.8400,0.330
77.8800,0.336
77.9200,0.331
77.9600,0.307
78.0000,0.309
78.0400,0.333
78.0800,0.311
78.1200,0.295
78.1600,0.296
78.2000,0.316
78.2400,0.328
78.2800,0.321
78.3200,0.324
78.3600,0.326
78.4000,0.331
78.4400,0.330
78.4800,0.331
78.5200,0.307
78.5600,0.330
78.6000,0.310
78.6400,0.303
78.6800,0.317
78.7200,0.309
78.7600,0.314
78.8000,0.306
78.8400,0.263
78.8800,0.315
78.9200,0.286
78.9600,0.309
79.0000,0.300
79.0400,0.302
79.0800,0.325
79.1200,0.288
79.1600,0.292
79.2000,0.290
79.2400,0.325
79.2800,0.325
79.3200,0.302
79.3600,0.295
79.4000,0.286
79.4400,0.293
79.4800,0.321
79.5200,0.299
79.5600,0.294
79.6000,0.295
79.6400,0.291
79.6800,0.289
79.7200,0.301
79.7600,0.277
79.8000,0.307
79.8400,0.294
79.8800,0.301
79.9200,0.307
79.9600,0.278
80.0000,0.312
