theta,intensity
5.0000,7.476
5.0400,7.511
5.0800,7.398
5.1200,7.328
5.1600,7.314
5.2000,7.299
5.2400,7.112
5.2800,7.031
5.3200,7.053
5.3600,7.021
5.4000,6.956
5.4400,6.879
5.4800,6.853
5.5200,6.815
5.5600,6.617
5.6000,6.653
5.6400,6.560
5.6800,6.549
5.7200,6.488
5.7600,6.453
5.8000,6.156
5.8400,6.073
5.8800,6.075
5.9200,6.039
5.9600,5.948
6.0000,5.764
6.0400,5.680
6.0800,5.628
6.1200,5.574
6.1600,5.420
6.2000,5.268
6.2400,5.298
6.2800,5.219
6.3200,5.115
6.3600,5.000
6.4000,4.938
6.4400,4.914
6.4800,4.740
6.5200,4.572
6.5600,4.576
6.6000,4.579
6.6400,4.400
6.6800,4.409
6.7200,4.389
6.7600,4.417
6.8000,4.423
6.8400,4.323
6.8800,4.333
6.9200,4.257
6.9600,4.288
7.0000,4.163
7.0400,4.226
7.0800,4.242
7.1200,4.307
7.1600,4.224
7.2000,4.158
7.2400,4.186
7.2800,4.129
7.3200,4.189
7.3600,4.164
7.4000,4.135
7.4400,4.081
7.4800,4.050
7.5200,4.210
7.5600,3.986
7.6000,4.022
7.6400,4.056
7.6800,4.102
7.7200,4.089
7.7600,4.166
7.8000,3.990
7.8400,4.026
7.8800,4.009
7.9200,4.137
7.9600,4.116
8.0000,3.986
8.0400,4.007
8.0800,3.982
8.1200,4.051
8.1600,4.009
8.2000,3.997
8.2400,3.988
8.2800,3.944
8.3200,3.961
8.3600,3.949
8.4000,3.905
8.4400,3.932
8.4800,3.826
8.5200,3.859
8.5600,3.922
8.6000,3.956
8.6400,3.867
8.6800,3.909
8.7200,3.931
8.7600,3.919
8.8000,3.901
8.8400,3.912
8.8800,3.943
8.9200,3.936
8.9600,3.935
9.0000,3.930
9.0400,3.945
9.0800,3.935
9.1200,3.888
9.1600,4.002
9.2000,3.924
9.2400,3.868
9.2800,3.814
9.3200,3.860
9.3600,3.984
9.4000,3.870
9.4400,3.960
9.4800,3.826
9.5200,3.738
9.5600,3.797
9.6000,3.762
9.6400,3.776
9.6800,3.820
9.7200,3.755
9.7600,3.760
9.8000,3.829
9.8400,3.819
9.8800,3.757
9.9200,3.841
9.9600,3.740
10.0000,3.772
10.0400,3.819
10.0800,3.735
10.1200,3.824
10.1600,3.729
10.2000,3.798
10.2400,3.837
10.2800,3.726
10.3200,3.796
10.3600,3.736
10.4000,3.727
10.4400,3.636
10.4800,3.726
10.5200,3.686
10.5600,3.607
10.6000,3.692
10.6400,3.674
10.6800,3.777
10.7200,3.705
10.7600,3.673
10.8000,3.687
10.8400,3.695
10.8800,3.608
10.9200,3.643
10.9600,3.722
11.0000,3.577
11.0400,3.653
11.0800,3.706
11.1200,3.665
11.1600,3.716
11.2000,3.674
11.2400,3.604
11.2800,3.599
11.3200,3.668
11.3600,3.505
11.4000,3.640
11.4400,3.554
11.4800,3.594
11.5200,3.565
11.5600,3.550
11.6000,3.637
11.6400,3.659
11.6800,3.476
11.7200,3.478
11.7600,3.626
11.8000,3.604
11.8400,3.598
11.8800,3.526
11.9200,3.463
11.9600,3.599
12.0000,3.429
12.0400,3.471
12.0800,3.536
12.1200,3.467
12.1600,3.542
12.2000,3.508
12.2400,3.546
12.2800,3.453
12.3200,3.549
12.3600,3.579
12.4000,3.495
12.4400,3.476
12.4800,3.507
12.5200,3.478
12.5600,3.452
12.6000,3.526
12.6400,3.459
12.6800,3.457
12.7200,3.480
12.7600,3.496
12.8000,3.513
12.8400,3.393
12.8800,3.375
12.9200,3.400
12.9600,3.483
13.0000,3.440
13.0400,3.424
13.0800,3.406
13.1200,3.458
13.1600,3.453
13.2000,3.512
13.2400,3.354
13.2800,3.455
13.3200,3.476
13.3600,3.388
13.4000,3.478
13.4400,3.415
13.4800,3.382
13.5200,3.494
13.5600,3.358
13.6000,3.378
13.6400,3.195
13.6800,3.327
13.7200,3.390
13.7600,3.467
13.8000,3.314
13.8400,3.422
13.8800,3.424
13.9200,3.361
13.9600,3.416
14.0000,3.288
14.0400,3.355
14.0800,3.327
14.1200,3.284
14.1600,3.295
14.2000,3.252
14.2400,3.225
14.2800,3.380
14.3200,3.251
14.3600,3.358
14.4000,3.355
14.4400,3.197
14.4800,3.298
14.5200,3.178
14.5600,3.342
14.6000,3.159
14.6400,3.219
14.6800,3.200
14.7200,3.249
14.7600,3.256
14.8000,3.297
14.8400,3.196
14.8800,3.162
14.9200,3.237
14.9600,3.167
15.0000,3.215
15.0400,3.259
15.0800,3.307
15.1200,3.181
15.1600,3.219
15.2000,3.235
15.2400,3.251
15.2800,3.225
15.3200,3.134
15.3600,3.251
15.4000,3.240
15.4400,3.288
15.4800,3.205
15.5200,3.157
15.5600,3.094
15.6000,3.146
15.6400,3.230
15.6800,3.145
15.7200,3.161
15.7600,3.282
15.8000,3.094
15.8400,3.120
15.8800,3.107
15.9200,3.238
15.9600,3.204
16.0000,3.041
16.0400,3.027
16.0800,3.194
16.1200,3.234
16.1600,3.144
16.2000,3.108
16.2400,3.135
16.2800,3.078
16.3200,3.148
16.3600,3.123
16.4000,3.089
16.4400,3.082
16.4800,3.161
16.5200,3.057
16.5600,3.069
16.6000,3.118
16.6400,3.109
16.6800,3.128
16.7200,3.125
16.7600,3.112
16.8000,3.083
16.8400,3.106
16.8800,3.173
16.9200,3.067
16.9600,3.019
17.0000,2.989
17.0400,2.999
17.0800,2.994
17.1200,3.070
17.1600,2.970
17.2000,2.972
17.2400,2.993
17.2800,3.015
17.3200,2.995
17.3600,3.014
17.4000,3.065
17.4400,2.935
17.4800,2.976
17.5200,2.952
17.5600,3.015
17.6000,3.033
17.6400,3.025
17.6800,2.951
17.7200,2.940
17.7600,3.002
17.8000,2.908
17.8400,3.016
17.8800,3.002
17.9200,3.008
17.9600,3.039
18.0000,2.978
18.0400,2.919
18.0800,3.012
18.1200,2.878
18.1600,2.938
18.2000,2.871
18.2400,2.906
18.2800,2.923
18.3200,2.942
18.3600,2.945
18.4000,2.946
18.4400,2.917
18.4800,2.829
18.5200,2.945
18.5600,2.881
18.6000,2.748
18.6400,2.880
18.6800,2.854
18.7200,2.883
18.7600,2.938
18.8000,2.921
18.8400,2.851
18.8800,2.864
18.9200,2.874
18.9600,2.869
19.0000,2.818
19.0400,2.784
19.0800,2.862
19.1200,2.824
19.1600,2.834
19.2000,2.846
19.2400,2.754
19.2800,2.753
19.3200,2.887
19.3600,2.786
19.4000,2.678
19.4400,2.799
19.4800,2.755
19.5200,2.769
19.5600,2.759
19.6000,2.761
19.6400,2.804
19.6800,2.745
19.7200,2.754
19.7600,2.774
19.8000,2.698
19.8400,2.769
19.8800,2.744
19.9200,2.727
19.9600,2.730
20.0000,2.707
20.0400,2.636
20.0800,2.775
20.1200,2.754
20.1600,2.633
20.2000,2.662
20.2400,2.791
20.2800,2.712
20.3200,2.717
20.3600,2.714
20.4000,2.724
20.4400,2.760
20.4800,2.662
20.5200,2.620
20.5600,2.693
20.6000,2.732
20.6400,2.675
20.6800,2.692
20.7200,2.734
20.7600,2.694
20.8000,2.612
20.8400,2.750
20.8800,2.739
20.9200,2.533
20.9600,2.652
21.0000,2.615
21.0400,2.596
21.0800,2.657
21.1200,2.641
21.1600,2.686
21.2000,2.561
21.2400,2.611
21.2800,2.630
21.3200,2.569
21.3600,2.674
21.4000,2.566
21.4400,2.590
21.4800,2.678
21.5200,2.636
21.5600,2.610
21.6000,2.624
21.6400,2.541
21.6800,2.554
21.7200,2.460
21.7600,2.681
21.8000,2.577
21.8400,2.651
21.8800,2.599
21.9200,2.561
21.9600,2.527
22.0000,2.556
22.0400,2.547
22.0800,2.625
22.1200,2.517
22.1600,2.506
22.2000,2.495
22.2400,2.605
22.2800,2.550
22.3200,2.485
22.3600,2.496
22.4000,2.528
22.4400,2.542
22.4800,2.554
22.5200,2.561
22.5600,2.545
22.6000,2.532
22.6400,2.488
22.6800,2.467
22.7200,2.539
22.7600,2.485
22.8000,2.400
22.8400,2.453
22.8800,2.452
22.9200,2.359
22.9600,2.501
23.0000,2.387
23.0400,2.454
23.0800,2.443
23.1200,2.468
23.1600,2.408
23.2000,2.410
23.2400,2.457
23.2800,2.444
23.3200,2.387
23.3600,2.460
23.4000,2.467
23.4400,2.406
23.4800,2.444
23.5200,2.424
23.5600,2.443
23.6000,2.403
23.6400,2.451
23.6800,2.342
23.7200,2.410
23.7600,2.396
23.8000,2.387
23.8400,2.358
23.8800,2.341
23.9200,2.349
23.9600,2.394
24.0000,2.387
24.0400,2.425
24.0800,2.385
24.1200,2.331
24.1600,2.410
24.2000,2.343
24.2400,2.375
24.2800,2.341
24.3200,2.330
24.3600,2.373
24.4000,2.354
24.4400,2.339
24.4800,2.322
24.5200,2.338
24.5600,2.244
24.6000,2.274
24.6400,2.273
24.6800,2.259
24.7200,2.271
24.7600,2.232
24.8000,2.331
24.8400,2.369
24.8800,2.342
24.9200,2.235
24.9600,2.307
25.0000,2.320
25.0400,2.239
25.0800,2.270
25.1200,2.253
25.1600,2.240
25.2000,2.263
25.2400,2.196
25.2800,2.200
25.3200,2.294
25.3600,2.248
25.4000,2.279
25.4400,2.224
25.4800,2.143
25.5200,2.250
25.5600,2.210
25.6000,2.236
25.6400,2.175
25.6800,2.234
25.7200,2.187
25.7600,2.310
25.8000,2.202
25.8400,2.217
25.8800,2.158
25.9200,2.191
25.9600,2.148
26.0000,2.185
26.0400,2.167
26.0800,2.232
26.1200,2.197
26.1600,2.130
26.2000,2.188
26.2400,2.236
26.2800,2.110
26.3200,2.169
26.3600,2.148
26.4000,2.215
26.4400,2.143
26.4800,2.096
26.5200,2.133
26.5600,2.079
26.6000,2.082
26.6400,2.146
26.6800,2.111
26.7200,2.139
26.7600,2.127
26.8000,2.114
26.8400,2.047
26.8800,2.062
26.9200,2.161
26.9600,2.141
27.0000,2.065
27.0400,2.091
27.0800,2.063
27.1200,2.105
27.1600,2.083
27.2000,2.058
27.2400,2.041
27.2800,2.082
27.3200,2.062
27.3600,2.046
27.4000,2.015
27.4400,2.089
27.4800,2.092
27.5200,2.015
27.5600,2.037
27.6000,2.075
27.6400,1.969
27.6800,2.086
27.7200,2.020
27.7600,2.043
27.8000,2.044
27.8400,1.974
27.8800,2.021
27.9200,2.026
27.9600,2.074
28.0000,2.085
28.0400,2.036
28.0800,2.010
28.1200,1.963
28.1600,2.053
28.2000,1.991
28.2400,2.006
28.2800,2.050
28.3200,1.948
28.3600,2.031
28.4000,1.947
28.4400,1.983
28.4800,2.002
28.5200,1.982
28.5600,2.012
28.6000,2.009
28.6400,1.907
28.6800,1.922
28.7200,1.969
28.7600,1.946
28.8000,2.088
28.8400,2.002
28.8800,1.989
28.9200,1.936
28.9600,1.933
29.0000,1.947
29.0400,1.968
29.0800,1.945
29.1200,1.908
29.1600,1.886
29.2000,1.875
29.2400,1.971
29.2800,1.875
29.3200,1.930
29.3600,1.886
29.4000,1.846
29.4400,1.988
29.4800,1.894
29.5200,1.856
29.5600,1.875
29.6000,1.920
29.6400,1.874
29.6800,1.903
29.7200,1.918
29.7600,1.897
29.8000,1.810
29.8400,1.890
29.8800,1.933
29.9200,1.833
29.9600,1.826
30.0000,1.831
30.0400,1.880
30.0800,1.823
30.1200,1.840
30.1600,1.843
30.2000,1.890
30.2400,1.856
30.2800,1.913
30.3200,1.841
30.3600,1.820
30.4000,1.813
30.4400,1.843
30.4800,1.789
30.5200,1.801
30.5600,1.795
30.6000,1.849
30.6400,1.791
30.6800,1.792
30.7200,1.871
30.7600,1.812
30.8000,1.774
30.8400,1.816
30.8800,1.803
30.9200,1.777
30.9600,1.830
31.0000,1.717
31.0400,1.799
31.0800,1.766
31.1200,1.827
31.1600,1.799
31.2000,1.869
31.2400,1.829
31.2800,1.790
31.3200,1.773
31.3600,1.837
31.4000,1.819
31.4400,1.814
31.4800,1.756
31.5200,1.775
31.5600,1.759
31.6000,1.780
31.6400,1.732
31.6800,1.827
31.7200,1.772
31.7600,1.821
31.8000,1.784
31.8400,1.897
31.8800,1.782
31.9200,1.790
31.9600,1.884
32.0000,1.756
32.0400,1.785
32.0800,1.717
32.1200,1.756
32.1600,1.717
32.2000,1.711
32.2400,1.700
32.2800,1.749
32.3200,1.764
32.3600,1.734
32.4000,1.796
32.4400,1.793
32.4800,1.701
32.5200,1.715
32.5600,1.730
32.6000,1.693
32.6400,1.693
32.6800,1.714
32.7200,1.682
32.7600,1.711
32.8000,1.779
32.8400,1.719
32.8800,1.655
32.9200,1.649
32.9600,1.621
33.0000,1.666
33.0400,1.660
33.0800,1.694
33.1200,1.665
33.1600,1.652
33.2000,1.660
33.2400,1.609
33.2800,1.644
33.3200,1.619
33.3600,1.677
33.4000,1.685
33.4400,1.630
33.4800,1.581
33.5200,1.664
33.5600,1.660
33.6000,1.642
33.6400,1.695
33.6800,1.690
33.7200,1.595
33.7600,1.599
33.8000,1.548
33.8400,1.576
33.8800,1.622
33.9200,1.613
33.9600,1.616
34.0000,1.630
34.0400,1.566
34.0800,1.646
34.1200,1.610
34.1600,1.656
34.2000,1.560
34.2400,1.573
34.2800,1.626
34.3200,1.625
34.3600,1.628
34.4000,1.610
34.4400,1.597
34.4800,1.603
34.5200,1.505
34.5600,1.626
34.6000,1.661
34.6400,1.582
34.6800,1.653
34.7200,1.596
34.7600,1.555
34.8000,1.519
34.8400,1.570
34.8800,1.539
34.9200,1.566
34.9600,1.543
35.0000,1.495
35.0400,1.558
35.0800,1.491
35.1200,1.582
35.1600,1.507
35.2000,1.530
35.2400,1.585
35.2800,1.557
35.3200,1.483
35.3600,1.548
35.4000,1.526
35.4400,1.548
35.4800,1.574
35.5200,1.484
35.5600,1.529
35.6000,1.476
35.6400,1.575
35.6800,1.533
35.7200,1.540
35.7600,1.554
35.8000,1.639
35.8400,1.604
35.8800,1.627
35.9200,1.589
35.9600,1.565
36.0000,1.595
36.0400,1.572
36.0800,1.591
36.1200,1.572
36.1600,1.581
36.2000,1.586
36.2400,1.552
36.2800,1.622
36.3200,1.541
36.3600,1.612
36.4000,1.577
36.4400,1.563
36.4800,1.543
36.5200,1.584
36.5600,1.602
36.6000,1.608
36.6400,1.550
36.6800,1.586
36.7200,1.530
36.7600,1.622
36.8000,1.593
36.8400,1.555
36.8800,1.558
36.9200,1.533
36.9600,1.597
37.0000,1.611
37.0400,1.591
37.0800,1.598
37.1200,1.639
37.1600,1.561
37.2000,1.654
37.2400,1.629
37.2800,1.621
37.3200,1.658
37.3600,1.684
37.4000,1.704
37.4400,1.707
37.4800,1.778
37.5200,1.889
37.5600,1.850
37.6000,1.949
37.6400,2.121
37.6800,2.216
37.7200,2.328
37.7600,2.685
37.8000,2.823
37.8400,3.151
37.8800,3.686
37.9200,4.440
37.9600,5.329
38.0000,6.777
38.0400,8.243
38.0800,9.322
38.1200,9.299
38.1600,8.716
38.2000,7.374
38.2400,6.073
38.2800,4.950
38.3200,4.027
38.3600,3.446
38.4000,3.085
38.4400,2.825
38.4800,2.595
38.5200,2.280
38.5600,2.225
38.6000,2.110
38.6400,1.981
38.6800,1.864
38.7200,1.812
38.7600,1.805
38.8000,1.709
38.8400,1.648
38.8800,1.753
38.9200,1.655
38.9600,1.633
39.0000,1.528
39.0400,1.497
39.0800,1.509
39.1200,1.472
39.1600,1.412
39.2000,1.468
39.2400,1.501
39.2800,1.497
39.3200,1.515
39.3600,1.347
39.4000,1.433
39.4400,1.389
39.4800,1.391
39.5200,1.367
39.5600,1.422
39.6000,1.363
39.6400,1.339
39.6800,1.282
39.7200,1.261
39.7600,1.388
39.8000,1.358
39.8400,1.349
39.8800,1.301
39.9200,1.318
39.9600,1.297
40.0000,1.324
40.0400,1.351
40.0800,1.294
40.1200,1.348
40.1600,1.254
40.2000,1.273
40.2400,1.285
40.2800,1.263
40.3200,1.283
40.3600,1.252
40.4000,1.298
40.4400,1.298
40.4800,1.298
40.5200,1.231
40.5600,1.253
40.6000,1.284
40.6400,1.278
40.6800,1.265
40.7200,1.281
40.7600,1.222
40.8000,1.176
40.8400,1.197
40.8800,1.247
40.9200,1.219
40.9600,1.171
41.0000,1.149
41.0400,1.177
41.0800,1.221
41.1200,1.231
41.1600,1.214
41.2000,1.261
41.2400,1.259
41.2800,1.223
41.3200,1.216
41.3600,1.216
41.4000,1.167
41.4400,1.121
41.4800,1.192
41.5200,1.186
41.5600,1.144
41.6000,1.188
41.6400,1.163
41.6800,1.213
41.7200,1.211
41.7600,1.151
41.8000,1.185
41.8400,1.204
41.8800,1.162
41.9200,1.210
41.9600,1.180
42.0000,1.169
42.0400,1.149
42.0800,1.176
42.1200,1.178
42.1600,1.145
42.2000,1.140
42.2400,1.200
42.2800,1.118
42.3200,1.122
42.3600,1.209
42.4000,1.170
42.4400,1.138
42.4800,1.207
42.5200,1.085
42.5600,1.164
42.6000,1.135
42.6400,1.185
42.6800,1.148
42.7200,1.125
42.7600,1.155
42.8000,1.165
42.8400,1.129
42.8800,1.168
42.9200,1.145
42.9600,1.184
43.0000,1.152
43.0400,1.116
43.0800,1.159
43.1200,1.156
43.1600,1.184
43.2000,1.216
43.2400,1.163
43.2800,1.228
43.3200,1.230
43.3600,1.204
43.4000,1.211
43.4400,1.316
43.4800,1.237
43.5200,1.299
43.5600,1.267
43.6000,1.374
43.6400,1.333
43.6800,1.401
43.7200,1.409
43.7600,1.379
43.8000,1.419
43.8400,1.517
43.8800,1.524
43.9200,1.664
43.9600,1.708
44.0000,1.766
44.0400,1.917
44.0800,2.000
44.1200,2.171
44.1600,2.253
44.2000,2.347
44.2400,2.491
44.2800,2.614
44.3200,2.581
44.3600,2.555
44.4000,2.361
44.4400,2.254
44.4800,2.020
44.5200,1.922
44.5600,1.863
44.6000,1.724
44.6400,1.652
44.6800,1.501
44.7200,1.453
44.7600,1.350
44.8000,1.369
44.8400,1.280
44.8800,1.264
44.9200,1.228
44.9600,1.256
45.0000,1.201
45.0400,1.204
45.0800,1.149
45.1200,1.150
45.1600,1.134
45.2000,1.081
45.2400,1.077
45.2800,1.054
45.3200,1.081
45.3600,1.039
45.4000,1.073
45.4400,1.047
45.4800,1.007
45.5200,1.035
45.5600,0.987
45.6000,0.994
45.6400,1.026
45.6800,1.071
45.7200,1.003
45.7600,0.989
45.8000,0.946
45.8400,0.959
45.8800,0.950
45.9200,0.952
45.9600,1.010
46.0000,0.986
46.0400,0.932
46.0800,0.943
46.1200,0.983
46.1600,0.978
46.2000,0.945
46.2400,0.936
46.2800,1.004
46.3200,0.897
46.3600,0.939
46.4000,0.936
46.4400,0.891
46.4800,0.955
46.5200,0.887
46.5600,0.943
46.6000,0.932
46.6400,0.878
46.6800,0.927
46.7200,0.977
46.7600,0.911
46.8000,0.964
46.8400,0.910
46.8800,0.923
46.9200,0.911
46.9600,0.924
47.0000,0.908
47.0400,0.881
47.0800,0.898
47.1200,0.902
47.1600,0.931
47.2000,0.926
47.2400,0.900
47.2800,0.866
47.3200,0.930
47.3600,0.888
47.4000,0.949
47.4400,0.902
47.4800,0.922
47.5200,0.899
47.5600,0.891
47.6000,0.938
47.6400,0.879
47.6800,0.972
47.7200,0.916
47.7600,0.907
47.8000,0.886
47.8400,0.867
47.8800,0.871
47.9200,0.874
47.9600,0.911
48.0000,0.876
48.0400,0.838
48.0800,0.910
48.1200,0.847
48.1600,0.859
48.2000,0.878
48.2400,0.822
48.2800,0.807
48.3200,0.826
48.3600,0.808
48.4000,0.841
48.4400,0.888
48.4800,0.879
48.5200,0.811
48.5600,0.799
48.6000,0.828
48.6400,0.842
48.6800,0.830
48.7200,0.828
48.7600,0.820
48.8000,0.833
48.8400,0.810
48.8800,0.834
48.9200,0.855
48.9600,0.809
49.0000,0.848
49.0400,0.797
49.0800,0.830
49.1200,0.827
49.1600,0.843
49.2000,0.841
49.2400,0.790
49.2800,0.849
49.3200,0.794
49.3600,0.781
49.4000,0.792
49.4400,0.828
49.4800,0.817
49.5200,0.840
49.5600,0.778
49.6000,0.886
49.6400,0.790
49.6800,0.794
49.7200,0.800
49.7600,0.828
49.8000,0.850
49.8400,0.804
49.8800,0.827
49.9200,0.820
49.9600,0.756
50.0000,0.753
50.0400,0.778
50.0800,0.787
50.1200,0.805
50.1600,0.771
50.2000,0.779
50.2400,0.823
50.2800,0.765
50.3200,0.817
50.3600,0.805
50.4000,0.753
50.4400,0.786
50.4800,0.780
50.5200,0.808
50.5600,0.769
50.6000,0.737
50.6400,0.793
50.6800,0.834
50.7200,0.786
50.7600,0.787
50.8000,0.763
50.8400,0.679
50.8800,0.738
50.9200,0.749
50.9600,0.732
51.0000,0.699
51.0400,0.762
51.0800,0.773
51.1200,0.736
51.1600,0.767
51.2000,0.759
51.2400,0.769
51.2800,0.770
51.3200,0.744
51.3600,0.752
51.4000,0.738
51.4400,0.736
51.4800,0.773
51.5200,0.786
51.5600,0.742
51.6000,0.740
51.6400,0.741
51.6800,0.768
51.7200,0.775
51.7600,0.743
51.8000,0.706
51.8400,0.752
51.8800,0.753
51.9200,0.743
51.9600,0.766
52.0000,0.708
52.0400,0.773
52.0800,0.752
52.1200,0.734
52.1600,0.716
52.2000,0.704
52.2400,0.759
52.2800,0.731
52.3200,0.721
52.3600,0.751
52.4000,0.685
52.4400,0.685
52.4800,0.706
52.5200,0.714
52.5600,0.708
52.6000,0.750
52.6400,0.736
52.6800,0.707
52.7200,0.692
52.7600,0.733
52.8000,0.712
52.8400,0.693
52.8800,0.687
52.9200,0.705
52.9600,0.704
53.0000,0.712
53.0400,0.735
53.0800,0.693
53.1200,0.681
53.1600,0.679
53.2000,0.694
53.2400,0.712
53.2800,0.688
53.3200,0.751
53.3600,0.732
53.4000,0.687
53.4400,0.734
53.4800,0.704
53.5200,0.670
53.5600,0.685
53.6000,0.681
53.6400,0.721
53.6800,0.683
53.7200,0.718
53.7600,0.654
53.8000,0.679
53.8400,0.717
53.8800,0.700
53.9200,0.645
53.9600,0.702
54.0000,0.678
54.0400,0.698
54.0800,0.658
54.1200,0.673
54.1600,0.708
54.2000,0.726
54.2400,0.689
54.2800,0.689
54.3200,0.656
54.3600,0.711
54.4000,0.668
54.4400,0.680
54.4800,0.665
54.5200,0.660
54.5600,0.618
54.6000,0.717
54.6400,0.665
54.6800,0.665
54.7200,0.677
54.7600,0.684
54.8000,0.685
54.8400,0.665
54.8800,0.656
54.9200,0.667
54.9600,0.660
55.0000,0.683
55.0400,0.651
55.0800,0.634
55.1200,0.668
55.1600,0.668
55.2000,0.650
55.2400,0.660
55.2800,0.661
55.3200,0.641
55.3600,0.697
55.4000,0.618
55.4400,0.640
55.4800,0.661
55.5200,0.648
55.5600,0.650
55.6000,0.640
55.6400,0.653
55.6800,0.646
55.7200,0.596
55.7600,0.649
55.8000,0.646
55.8400,0.651
55.8800,0.658
55.9200,0.690
55.9600,0.632
56.0000,0.689
56.0400,0.619
56.0800,0.688
56.1200,0.622
56.1600,0.689
56.2000,0.674
56.2400,0.664
56.2800,0.623
56.3200,0.648
56.3600,0.645
56.4000,0.610
56.4400,0.641
56.4800,0.673
56.5200,0.678
56.5600,0.613
56.6000,0.605
56.6400,0.641
56.6800,0.651
56.7200,0.643
56.7600,0.628
56.8000,0.632
56.8400,0.606
56.8800,0.663
56.9200,0.663
56.9600,0.618
57.0000,0.618
57.0400,0.651
57.0800,0.630
57.1200,0.636
57.1600,0.609
57.2000,0.588
57.2400,0.657
57.2800,0.620
57.3200,0.623
57.3600,0.627
57.4000,0.658
57.4400,0.631
57.4800,0.599
57.5200,0.621
57.5600,0.652
57.6000,0.632
57.6400,0.591
57.6800,0.586
57.7200,0.613
57.7600,0.589
57.8000,0.611
57.8400,0.598
57.8800,0.621
57.9200,0.640
57.9600,0.617
58.0000,0.641
58.0400,0.629
58.0800,0.615
58.1200,0.604
58.1600,0.614
58.2000,0.595
58.2400,0.627
58.2800,0.618
58.3200,0.636
58.3600,0.585
58.4000,0.620
58.4400,0.618
58.4800,0.613
58.5200,0.585
58.5600,0.596
58.6000,0.589
58.6400,0.584
58.6800,0.599
58.7200,0.600
58.7600,0.602
58.8000,0.608
58.8400,0.589
58.8800,0.586
58.9200,0.575
58.9600,0.606
59.0000,0.589
59.0400,0.624
59.0800,0.558
59.1200,0.587
59.1600,0.630
59.2000,0.585
59.2400,0.556
59.2800,0.555
59.3200,0.626
59.3600,0.598
59.4000,0.586
59.4400,0.587
59.4800,0.587
59.5200,0.580
59.5600,0.587
59.6000,0.601
59.6400,0.543
59.6800,0.600
59.7200,0.597
59.7600,0.570
59.8000,0.566
59.8400,0.552
59.8800,0.615
59.9200,0.550
59.9600,0.603
60.0000,0.571
60.0400,0.620
60.0800,0.568
60.1200,0.577
60.1600,0.546
60.2000,0.581
60.2400,0.562
60.2800,0.525
60.3200,0.571
60.3600,0.583
60.4000,0.571
60.4400,0.578
60.4800,0.605
60.5200,0.571
60.5600,0.581
60.6000,0.573
60.6400,0.571
60.6800,0.543
60.7200,0.582
60.7600,0.564
60.8000,0.573
60.8400,0.554
60.8800,0.559
60.9200,0.569
60.9600,0.577
61.0000,0.571
61.0400,0.584
61.0800,0.545
61.1200,0.546
61.1600,0.522
61.2000,0.549
61.2400,0.551
61.2800,0.572
61.3200,0.558
61.3600,0.519
61.4000,0.509
61.4400,0.552
61.4800,0.538
61.5200,0.586
61.5600,0.584
61.6000,0.636
61.6400,0.609
61.6800,0.626
61.7200,0.605
61.7600,0.528
61.8000,0.555
61.8400,0.584
61.8800,0.580
61.9200,0.595
61.9600,0.566
62.0000,0.575
62.0400,0.538
62.0800,0.569
62.1200,0.561
62.1600,0.532
62.2000,0.590
62.2400,0.557
62.2800,0.544
62.3200,0.605
62.3600,0.532
62.4000,0.566
62.4400,0.541
62.4800,0.578
62.5200,0.542
62.5600,0.590
62.6000,0.550
62.6400,0.563
62.6800,0.582
62.7200,0.545
62.7600,0.507
62.8000,0.577
62.8400,0.573
62.8800,0.554
62.9200,0.581
62.9600,0.598
63.0000,0.573
63.0400,0.582
63.0800,0.570
63.1200,0.559
63.1600,0.565
63.2000,0.637
63.2400,0.650
63.2800,0.549
63.3200,0.555
63.3600,0.617
63.4000,0.576
63.4400,0.593
63.4800,0.578
63.5200,0.574
63.5600,0.581
63.6000,0.573
63.6400,0.621
63.6800,0.626
63.7200,0.621
63.7600,0.589
63.8000,0.646
63.8400,0.655
63.8800,0.645
63.9200,0.651
63.9600,0.672
64.0000,0.708
64.0400,0.736
64.0800,0.773
64.1200,0.768
64.1600,0.787
64.2000,0.903
64.2400,0.937
64.2800,1.052
64.3200,1.182
64.3600,1.252
64.4000,1.370
64.4400,1.355
64.4800,1.283
64.5200,1.327
64.5600,1.299
64.6000,1.168
64.6400,1.142
64.6800,1.061
64.7200,1.006
64.7600,0.911
64.8000,0.882
64.8400,0.863
64.8800,0.836
64.9200,0.823
64.9600,0.728
65.0000,0.754
65.0400,0.721
65.0800,0.710
65.1200,0.727
65.1600,0.744
65.2000,0.672
65.2400,0.688
65.2800,0.715
65.3200,0.651
65.3600,0.690
65.4000,0.687
65.4400,0.692
65.4800,0.679
65.5200,0.699
65.5600,0.715
65.6000,0.710
65.6400,0.749
65.6800,0.731
65.7200,0.759
65.7600,0.702
65.8000,0.720
65.8400,0.768
65.8800,0.763
65.9200,0.756
65.9600,0.768
66.0000,0.718
66.0400,0.748
66.0800,0.770
66.1200,0.763
66.1600,0.696
66.2000,0.792
66.2400,0.795
66.2800,0.829
66.3200,0.820
66.3600,0.843
66.4000,0.858
66.4400,0.852
66.4800,0.948
66.5200,0.859
66.5600,0.906
66.6000,0.856
66.6400,0.908
66.6800,0.921
66.7200,0.916
66.7600,0.920
66.8000,0.922
66.8400,0.937
66.8800,1.037
66.9200,0.999
66.9600,1.017
67.0000,1.020
67.0400,1.075
67.0800,1.003
67.1200,1.089
67.1600,1.102
67.2000,1.041
67.2400,1.158
67.2800,1.178
67.3200,1.140
67.3600,1.173
67.4000,1.197
67.4400,1.263
67.4800,1.265
67.5200,1.292
67.5600,1.313
67.6000,1.387
67.6400,1.410
67.6800,1.398
67.7200,1.369
67.7600,1.486
67.8000,1.501
67.8400,1.549
67.8800,1.558
67.9200,1.587
67.9600,1.629
68.0000,1.637
68.0400,1.744
68.0800,1.741
68.1200,1.839
68.1600,1.877
68.2000,1.902
68.2400,2.018
68.2800,2.060
68.3200,2.150
68.3600,2.165
68.4000,2.403
68.4400,2.367
68.4800,2.587
68.5200,2.682
68.5600,2.800
68.6000,3.044
68.6400,3.462
68.6800,4.199
68.7200,5.484
68.7600,6.816
68.8000,7.347
68.8400,7.441
68.8800,7.690
68.9200,9.305
68.9600,13.224
69.0000,23.061
69.0400,68.868
69.0800,323.503
69.1200,518.053
69.1600,261.008
69.2000,62.850
69.2400,58.656
69.2800,180.937
69.3200,260.813
69.3600,126.079
69.4000,30.976
69.4400,13.905
69.4800,9.394
69.5200,7.242
69.5600,5.902
69.6000,5.039
69.6400,4.498
69.6800,4.075
69.7200,3.721
69.7600,3.355
69.8000,3.116
69.8400,2.937
69.8800,2.674
69.9200,2.640
69.9600,2.598
70.0000,2.491
70.0400,2.315
70.0800,2.211
70.1200,2.211
70.1600,2.067
70.2000,1.999
70.2400,1.997
70.2800,1.891
70.3200,1.838
70.3600,1.832
70.4000,1.673
70.4400,1.703
70.4800,1.540
70.5200,1.521
70.5600,1.463
70.6000,1.472
70.6400,1.444
70.6800,1.389
70.7200,1.379
70.7600,1.309
70.8000,1.239
70.8400,1.230
70.8800,1.236
70.9200,1.253
70.9600,1.173
71.0000,1.157
71.0400,1.135
71.0800,1.072
71.1200,1.101
71.1600,1.093
71.2000,1.053
71.2400,0.984
71.2800,0.989
71.3200,0.937
71.3600,0.942
71.4000,0.976
71.4400,0.875
71.4800,0.911
71.5200,0.883
71.5600,0.820
71.6000,0.828
71.6400,0.806
71.6800,0.789
71.7200,0.814
71.7600,0.781
71.8000,0.760
71.8400,0.765
71.8800,0.670
71.9200,0.728
71.9600,0.687
72.0000,0.691
72.0400,0.667
72.0800,0.710
72.1200,0.719
72.1600,0.671
72.2000,0.618
72.2400,0.649
72.2800,0.604
72.3200,0.605
72.3600,0.595
72.4000,0.628
72.4400,0.599
72.4800,0.622
72.5200,0.569
72.5600,0.546
72.6000,0.551
72.6400,0.557
72.6800,0.571
72.7200,0.591
72.7600,0.549
72.8000,0.579
72.8400,0.519
72.8800,0.539
72.9200,0.539
72.9600,0.516
73.0000,0.548
73.0400,0.483
73.0800,0.513
73.1200,0.532
73.1600,0.498
73.2000,0.544
73.2400,0.493
73.2800,0.494
73.3200,0.537
73.3600,0.489
73.4000,0.494
73.4400,0.454
73.4800,0.497
73.5200,0.450
73.5600,0.478
73.6000,0.451
73.6400,0.460
73.6800,0.489
73.7200,0.448
73.7600,0.420
73.8000,0.443
73.8400,0.449
73.8800,0.434
73.9200,0.444
73.9600,0.467
74.0000,0.444
74.0400,0.452
74.0800,0.437
74.1200,0.423
74.1600,0.440
74.2000,0.422
74.2400,0.426
74.2800,0.406
74.3200,0.414
74.3600,0.441
74.4000,0.420
74.4400,0.398
74.4800,0.427
74.5200,0.411
74.5600,0.428
74.6000,0.377
74.6400,0.394
74.6800,0.414
74.7200,0.436
74.7600,0.430
74.8000,0.414
74.8400,0.382
74.8800,0.399
74.9200,0.432
74.9600,0.414
75.0000,0.399
75.0400,0.398
75.0800,0.376
75.1200,0.404
75.1600,0.381
75.2000,0.376
75.2400,0.383
75.2800,0.383
75.3200,0.358
75.3600,0.378
75.4000,0.387
75.4400,0.408
75.4800,0.385
75.5200,0.387
75.5600,0.352
75.6000,0.375
75.6400,0.357
75.6800,0.357
75.7200,0.392
75.7600,0.365
75.8000,0.408
75.8400,0.372
75.8800,0.364
75.9200,0.407
75.9600,0.370
76.0000,0.339
76.0400,0.353
76.0800,0.416
76.1200,0.403
76.1600,0.374
76.2000,0.391
76.2400,0.363
76.2800,0.368
76.3200,0.406
76.3600,0.378
76.4000,0.397
76.4400,0.380
76.4800,0.402
76.5200,0.406
76.5600,0.422
76.6000,0.385
76.6400,0.418
76.6800,0.419
76.7200,0.403
76.7600,0.390
76.8000,0.449
76.8400,0.479
76.8800,0.474
76.9200,0.454
76.9600,0.498
77.0000,0.492
77.0400,0.539
77.0800,0.512
77.1200,0.596
77.1600,0.603
77.2000,0.668
77.2400,0.734
77.2800,0.811
77.3200,0.885
77.3600,0.931
77.4000,0.962
77.4400,0.911
77.4800,0.927
77.5200,0.916
77.5600,0.884
77.6000,0.793
77.6400,0.730
77.6800,0.743
77.7200,0.655
77.7600,0.639
77.8000,0.573
77.8400,0.510
77.8800,0.505
77.9200,0.497
77.9600,0.446
78.0000,0.437
78.0400,0.433
78.0800,0.414
78.1200,0.409
78.1600,0.381
78.2000,0.408
78.2400,0.380
78.2800,0.342
78.3200,0.387
78.3600,0.384
78.4000,0.371
78.4400,0.362
78.4800,0.342
78.5200,0.317
78.5600,0.338
78.6000,0.366
78.6400,0.342
78.6800,0.334
78.7200,0.369
78.7600,0.326
78.8000,0.319
78.8400,0.333
78.8800,0.338
78.9200,0.300
78.9600,0.323
79.0000,0.327
79.0400,0.334
79.0800,0.329
79.1200,0.323
79.1600,0.299
79.2000,0.325
79.2400,0.302
79.2800,0.300
79.3200,0.312
79.3600,0.301
79.4000,0.316
79.4400,0.292
79.4800,0.311
79.5200,0.312
79.5600,0.312
79.6000,0.281
79.6400,0.343
79.6800,0.328
79.7200,0.331
79.7600,0.278
79.8000,0.286
79.8400,0.298
79.8800,0.281
79.9200,0.269
79.9600,0.325
80.0000,0.281
