theta,intensity
5.0000,4.432
5.0400,4.397
5.0800,4.304
5.1200,4.299
5.1600,4.444
5.2000,4.452
5.2400,4.328
5.2800,4.280
5.3200,4.340
5.3600,4.243
5.4000,4.241
5.4400,4.355
5.4800,4.341
5.5200,4.275
5.5600,4.180
5.6000,4.245
5.6400,4.250
5.6800,4.198
5.7200,4.128
5.7600,4.229
5.8000,4.283
5.8400,4.144
5.8800,4.297
5.9200,4.213
5.9600,4.328
6.0000,4.160
6.0400,4.066
6.0800,4.353
6.1200,4.077
6.1600,4.253
6.2000,4.153
6.2400,4.110
6.2800,4.021
6.3200,4.033
6.3600,4.133
6.4000,4.096
6.4400,3.964
6.4800,4.026
6.5200,3.957
6.5600,3.990
6.6000,4.021
6.6400,4.005
6.6800,4.094
6.7200,3.908
6.7600,4.025
6.8000,3.973
6.8400,4.018
6.8800,3.959
6.9200,3.970
6.9600,3.908
7.0000,3.925
7.0400,4.010
7.0800,3.853
7.1200,3.860
7.1600,3.855
7.2000,4.072
7.2400,3.898
7.2800,3.875
7.3200,3.914
7.3600,3.919
7.4000,3.926
7.4400,3.832
7.4800,3.942
7.5200,3.939
7.5600,3.927
7.6000,3.758
7.6400,3.959
7.6800,3.828
7.7200,3.754
7.7600,3.845
7.8000,3.887
7.8400,3.868
7.8800,3.824
7.9200,3.809
7.9600,3.847
8.0000,3.790
8.0400,3.814
8.0800,3.880
8.1200,3.744
8.1600,3.813
8.2000,3.714
8.2400,3.806
8.2800,3.840
8.3200,3.774
8.3600,3.856
8.4000,3.853
8.4400,3.818
8.4800,3.753
8.5200,3.878
8.5600,3.749
8.6000,3.767
8.6400,3.720
8.6800,3.732
8.7200,3.735
8.7600,3.847
8.8000,3.806
8.8400,3.855
8.8800,3.764
8.9200,3.818
8.9600,3.802
9.0000,3.720
9.0400,3.737
9.0800,3.784
9.1200,3.767
9.1600,3.665
9.2000,3.737
9.2400,3.689
9.2800,3.608
9.3200,3.791
9.3600,3.697
9.4000,3.668
9.4400,3.731
9.4800,3.764
9.5200,3.683
9.5600,3.611
9.6000,3.753
9.6400,3.690
9.6800,3.642
9.7200,3.580
9.7600,3.625
9.8000,3.675
9.8400,3.664
9.8800,3.788
9.9200,3.684
9.9600,3.425
10.0000,3.546
10.0400,3.620
10.0800,3.712
10.1200,3.623
10.1600,3.639
10.2000,3.576
10.2400,3.593
10.2800,3.590
10.3200,3.515
10.3600,3.518
10.4000,3.583
10.4400,3.556
10.4800,3.606
10.5200,3.663
10.5600,3.511
10.6000,3.594
10.6400,3.583
10.6800,3.594
10.7200,3.565
10.7600,3.610
10.8000,3.457
10.8400,3.630
10.8800,3.483
10.9200,3.534
10.9600,3.465
11.0000,3.459
11.0400,3.496
11.0800,3.449
11.1200,3.485
11.1600,3.401
11.2000,3.464
11.2400,3.535
11.2800,3.642
11.3200,3.620
11.3600,3.561
11.4000,3.402
11.4400,3.553
11.4800,3.553
11.5200,3.457
11.5600,3.630
11.6000,3.487
11.6400,3.441
11.6800,3.449
11.7200,3.575
11.7600,3.364
11.8000,3.545
11.8400,3.461
11.8800,3.470
11.9200,3.412
11.9600,3.469
12.0000,3.417
12.0400,3.560
12.0800,3.487
12.1200,3.457
12.1600,3.501
12.2000,3.387
12.2400,3.407
12.2800,3.374
12.3200,3.402
12.3600,3.337
12.4000,3.421
12.4400,3.349
12.4800,3.349
12.5200,3.340
12.5600,3.367
12.6000,3.615
12.6400,3.381
12.6800,3.240
12.7200,3.324
12.7600,3.350
12.8000,3.409
12.8400,3.357
12.8800,3.311
12.9200,3.249
12.9600,3.230
13.0000,3.356
13.0400,3.297
13.0800,3.295
13.1200,3.431
13.1600,3.345
13.2000,3.327
13.2400,3.432
13.2800,3.297
13.3200,3.365
13.3600,3.349
13.4000,3.306
13.4400,3.352
13.4800,3.358
13.5200,3.286
13.5600,3.257
13.6000,3.349
13.6400,3.232
13.6800,3.286
13.7200,3.288
13.7600,3.309
13.8000,3.355
13.8400,3.242
13.8800,3.303
13.9200,3.247
13.9600,3.141
14.0000,3.171
14.0400,3.295
14.0800,3.323
14.1200,3.288
14.1600,3.168
14.2000,3.076
14.2400,3.324
14.2800,3.181
14.3200,3.227
14.3600,3.194
14.4000,3.199
14.4400,3.212
14.4800,3.255
14.5200,3.275
14.5600,3.259
14.6000,3.217
14.6400,3.138
14.6800,3.229
14.7200,3.269
14.7600,3.201
14.8000,3.244
14.8400,3.223
14.8800,3.174
14.9200,3.214
14.9600,3.107
15.0000,3.295
15.0400,3.168
15.0800,3.084
15.1200,3.205
15.1600,3.147
15.2000,3.086
15.2400,3.058
15.2800,3.184
15.3200,3.106
15.3600,3.119
15.4000,3.171
15.4400,3.175
15.4800,3.128
15.5200,3.137
15.5600,3.135
15.6000,3.131
15.6400,3.097
15.6800,3.174
15.7200,3.139
15.7600,3.070
15.8000,3.039
15.8400,3.099
15.8800,3.084
15.9200,3.075
15.9600,3.089
16.0000,3.089
16.0400,3.009
16.0800,3.038
16.1200,2.972
16.1600,3.117
16.2000,3.155
16.2400,3.007
16.2800,3.011
16.3200,3.052
16.3600,2.984
16.4000,3.088
16.4400,3.016
16.4800,3.107
16.5200,3.020
16.5600,2.934
16.6000,3.046
16.6400,3.066
16.6800,2.996
16.7200,3.080
16.7600,2.949
16.8000,3.019
16.8400,2.920
16.8800,3.028
16.9200,2.949
16.9600,2.931
17.0000,3.043
17.0400,2.959
17.0800,2.928
17.1200,3.027
17.1600,2.937
17.2000,2.852
17.2400,2.950
17.2800,2.992
17.3200,3.018
17.3600,2.996
17.4000,2.854
17.4400,2.924
17.4800,2.981
17.5200,2.959
17.5600,2.865
17.6000,2.933
17.6400,2.942
17.6800,2.965
17.7200,2.913
17.7600,2.935
17.8000,2.928
17.8400,2.818
17.8800,2.840
17.9200,2.937
17.9600,2.966
18.0000,2.814
18.0400,2.913
18.0800,2.848
18.1200,2.941
18.1600,2.836
18.2000,2.847
18.2400,2.817
18.2800,2.962
18.3200,2.810
18.3600,2.858
18.4000,2.869
18.4400,2.844
18.4800,2.907
18.5200,2.796
18.5600,2.783
18.6000,2.812
18.6400,2.908
18.6800,2.781
18.7200,2.858
18.7600,2.836
18.8000,2.722
18.8400,2.859
18.8800,2.925
18.9200,2.806
18.9600,2.814
19.0000,2.827
19.0400,2.795
19.0800,2.870
19.1200,2.810
19.1600,2.728
19.2000,2.792
19.2400,2.751
19.2800,2.877
19.3200,2.776
19.3600,2.785
19.4000,2.722
19.4400,2.777
19.4800,2.778
19.5200,2.813
19.5600,2.771
19.6000,2.690
19.6400,2.738
19.6800,2.808
19.7200,2.747
19.7600,2.687
19.8000,2.734
19.8400,2.734
19.8800,2.676
19.9200,2.776
19.9600,2.727
20.0000,2.689
20.0400,2.736
20.0800,2.578
20.1200,2.628
20.1600,2.605
20.2000,2.743
20.2400,2.699
20.2800,2.725
20.3200,2.646
20.3600,2.708
20.4000,2.597
20.4400,2.736
20.4800,2.650
20.5200,2.734
20.5600,2.617
20.6000,2.661
20.6400,2.692
20.6800,2.580
20.7200,2.691
20.7600,2.609
20.8000,2.581
20.8400,2.672
20.8800,2.711
20.9200,2.623
20.9600,2.647
21.0000,2.633
21.0400,2.665
21.0800,2.554
21.1200,2.622
21.1600,2.587
21.2000,2.648
21.2400,2.648
21.2800,2.577
21.3200,2.490
21.3600,2.729
21.4000,2.636
21.4400,2.563
21.4800,2.523
21.5200,2.542
21.5600,2.578
21.6000,2.570
21.6400,2.540
21.6800,2.509
21.7200,2.571
21.7600,2.523
21.8000,2.645
21.8400,2.500
21.8800,2.495
21.9200,2.529
21.9600,2.675
22.0000,2.490
22.0400,2.537
22.0800,2.505
22.1200,2.520
22.1600,2.574
22.2000,2.462
22.2400,2.572
22.2800,2.533
22.3200,2.469
22.3600,2.482
22.4000,2.504
22.4400,2.368
22.4800,2.481
22.5200,2.503
22.5600,2.444
22.6000,2.501
22.6400,2.507
22.6800,2.391
22.7200,2.516
22.7600,2.462
22.8000,2.508
22.8400,2.549
22.8800,2.429
22.9200,2.391
22.9600,2.491
23.0000,2.373
23.0400,2.447
23.0800,2.312
23.1200,2.479
23.1600,2.445
23.2000,2.519
23.2400,2.482
23.2800,2.426
23.3200,2.427
23.3600,2.505
23.4000,2.498
23.4400,2.394
23.4800,2.487
23.5200,2.496
23.5600,2.380
23.6000,2.320
23.6400,2.353
23.6800,2.432
23.7200,2.439
23.7600,2.407
23.8000,2.366
23.8400,2.357
23.8800,2.398
23.9200,2.424
23.9600,2.423
24.0000,2.415
24.0400,2.381
24.0800,2.347
24.1200,2.366
24.1600,2.400
24.2000,2.340
24.2400,2.379
24.2800,2.459
24.3200,2.317
24.3600,2.274
24.4000,2.351
24.4400,2.372
24.4800,2.384
24.5200,2.321
24.5600,2.348
24.6000,2.274
24.6400,2.274
24.6800,2.374
24.7200,2.412
24.7600,2.297
24.8000,2.308
24.8400,2.284
24.8800,2.224
24.9200,2.351
24.9600,2.400
25.0000,2.256
25.0400,2.218
25.0800,2.328
25.1200,2.299
25.1600,2.164
25.2000,2.319
25.2400,2.202
25.2800,2.235
25.3200,2.311
25.3600,2.333
25.4000,2.245
25.4400,2.292
25.4800,2.263
25.5200,2.141
25.5600,2.295
25.6000,2.155
25.6400,2.211
25.6800,2.245
25.7200,2.306
25.7600,2.416
25.8000,2.311
25.8400,2.267
25.8800,2.223
25.9200,2.275
25.9600,2.205
26.0000,2.130
26.0400,2.197
26.0800,2.161
26.1200,2.226
26.1600,2.226
26.2000,2.262
26.2400,2.189
26.2800,2.196
26.3200,2.178
26.3600,2.234
26.4000,2.200
26.4400,2.134
26.4800,2.182
26.5200,2.123
26.5600,2.122
26.6000,2.253
26.6400,2.225
26.6800,2.186
26.7200,2.220
26.7600,2.215
26.8000,2.148
26.8400,2.172
26.8800,2.132
26.9200,2.113
26.9600,2.107
27.0000,2.144
27.0400,2.160
27.0800,2.132
27.1200,2.176
27.1600,2.119
27.2000,2.216
27.2400,2.280
27.2800,2.170
27.3200,2.148
27.3600,2.205
27.4000,2.216
27.4400,2.188
27.4800,2.222
27.5200,2.254
27.5600,2.280
27.6000,2.233
27.6400,2.229
27.6800,2.272
27.7200,2.268
27.7600,2.294
27.8000,2.330
27.8400,2.395
27.8800,2.471
27.9200,2.497
27.9600,2.499
28.0000,2.529
28.0400,2.729
28.0800,2.779
28.1200,2.874
28.1600,2.998
28.2000,3.066
28.2400,3.238
28.2800,3.172
28.3200,3.277
28.3600,3.282
28.4000,3.360
28.4400,3.324
28.4800,3.148
28.5200,3.040
28.5600,2.907
28.6000,2.877
28.6400,2.884
28.6800,2.647
28.7200,2.677
28.7600,2.449
28.8000,2.458
28.8400,2.336
28.8800,2.245
28.9200,2.261
28.9600,2.245
29.0000,2.156
29.0400,2.112
29.0800,2.080
29.1200,2.090
29.1600,2.071
29.2000,2.047
29.2400,2.099
29.2800,2.073
29.3200,2.086
29.3600,2.058
29.4000,2.101
29.4400,2.015
29.4800,2.026
29.5200,2.002
29.5600,2.054
29.6000,2.032
29.6400,1.983
29.6800,1.952
29.7200,1.962
29.7600,1.911
29.8000,1.979
29.8400,1.943
29.8800,1.980
29.9200,1.970
29.9600,1.944
30.0000,2.014
30.0400,1.928
30.0800,1.888
30.1200,1.890
30.1600,1.875
30.2000,1.970
30.2400,1.914
30.2800,1.903
30.3200,1.880
30.3600,1.889
30.4000,1.890
30.4400,1.905
30.4800,1.904
30.5200,1.852
30.5600,1.955
30.6000,1.991
30.6400,1.902
30.6800,1.923
30.7200,1.857
30.7600,1.841
30.8000,2.011
30.8400,1.924
30.8800,1.921
30.9200,1.884
30.9600,1.931
31.0000,1.914
31.0400,1.918
31.0800,1.856
31.1200,1.865
31.1600,1.837
31.2000,1.989
31.2400,1.867
31.2800,1.905
31.3200,1.855
31.3600,1.918
31.4000,1.915
31.4400,1.887
31.4800,1.897
31.5200,1.938
31.5600,1.931
31.6000,1.890
31.6400,1.953
31.6800,1.939
31.7200,1.944
31.7600,1.929
31.8000,1.902
31.8400,2.004
31.8800,1.904
31.9200,1.902
31.9600,1.897
32.0000,1.911
32.0400,1.868
32.0800,1.940
32.1200,1.939
32.1600,1.879
32.2000,1.864
32.2400,1.879
32.2800,1.903
32.3200,1.890
32.3600,1.809
32.4000,1.793
32.4400,1.828
32.4800,1.924
32.5200,1.825
32.5600,1.840
32.6000,1.912
32.6400,1.745
32.6800,1.759
32.7200,1.817
32.7600,1.788
32.8000,1.821
32.8400,1.916
32.8800,1.731
32.9200,1.805
32.9600,1.842
33.0000,1.763
33.0400,1.782
33.0800,1.881
33.1200,1.671
33.1600,1.662
33.2000,1.714
33.2400,1.748
33.2800,1.743
33.3200,1.798
33.3600,1.699
33.4000,1.762
33.4400,1.674
33.4800,1.736
33.5200,1.780
33.5600,1.772
33.6000,1.801
33.6400,1.755
33.6800,1.672
33.7200,1.702
33.7600,1.662
33.8000,1.720
33.8400,1.798
33.8800,1.729
33.9200,1.735
33.9600,1.777
34.0000,1.759
34.0400,1.737
34.0800,1.711
34.1200,1.791
34.1600,1.770
34.2000,1.762
34.2400,1.814
34.2800,1.755
34.3200,1.800
34.3600,1.773
34.4000,1.826
34.4400,1.771
34.4800,1.771
34.5200,1.767
34.5600,1.657
34.6000,1.728
34.6400,1.759
34.6800,1.732
34.7200,1.683
34.7600,1.718
34.8000,1.771
34.8400,1.688
34.8800,1.776
34.9200,1.744
34.9600,1.685
35.0000,1.706
35.0400,1.757
35.0800,1.725
35.1200,1.731
35.1600,1.752
35.2000,1.692
35.2400,1.658
35.2800,1.689
35.3200,1.718
35.3600,1.722
35.4000,1.689
35.4400,1.591
35.4800,1.666
35.5200,1.709
35.5600,1.631
35.6000,1.738
35.6400,1.769
35.6800,1.716
35.7200,1.754
35.7600,1.658
35.8000,1.745
35.8400,1.691
35.8800,1.778
35.9200,1.740
35.9600,1.744
36.0000,1.811
36.0400,1.792
36.0800,1.847
36.1200,1.809
36.1600,1.837
36.2000,1.835
36.2400,1.816
36.2800,1.909
36.3200,1.882
36.3600,1.824
36.4000,1.818
36.4400,1.850
36.4800,1.834
36.5200,1.777
36.5600,1.739
36.6000,1.802
36.6400,1.838
36.6800,1.783
36.7200,1.779
36.7600,1.827
36.8000,1.769
36.8400,1.776
36.8800,1.757
36.9200,1.726
36.9600,1.813
37.0000,1.751
37.0400,1.790
37.0800,1.742
37.1200,1.739
37.1600,1.869
37.2000,1.802
37.2400,1.800
37.2800,1.642
37.3200,1.714
37.3600,1.703
37.4000,1.674
37.4400,1.697
37.4800,1.712
37.5200,1.800
37.5600,1.727
37.6000,1.734
37.6400,1.802
37.6800,1.765
37.7200,1.770
37.7600,1.789
37.8000,1.877
37.8400,1.881
37.8800,1.920
37.9200,1.860
37.9600,1.958
38.0000,1.992
38.0400,2.060
38.0800,2.168
38.1200,2.132
38.1600,2.368
38.2000,2.476
38.2400,2.676
38.2800,3.047
38.3200,3.329
38.3600,3.593
38.4000,3.824
38.4400,4.072
38.4800,4.328
38.5200,4.798
38.5600,5.316
38.6000,5.553
38.6400,5.591
38.6800,5.160
38.7200,4.816
38.7600,4.303
38.8000,3.679
38.8400,3.401
38.8800,3.032
38.9200,2.735
38.9600,2.678
39.0000,2.457
39.0400,2.342
39.0800,2.328
39.1200,2.207
39.1600,2.144
39.2000,2.046
39.2400,2.168
39.2800,2.081
39.3200,2.032
39.3600,2.048
39.4000,2.050
39.4400,2.145
39.4800,2.128
39.5200,2.191
39.5600,2.273
39.6000,2.262
39.6400,2.290
39.6800,2.340
39.7200,2.521
39.7600,2.715
39.8000,2.764
39.8400,2.997
39.8800,3.242
39.9200,3.522
39.9600,3.807
40.0000,4.139
40.0400,4.687
40.0800,5.273
40.1200,6.001
40.1600,6.585
40.2000,7.154
40.2400,7.702
40.2800,8.119
40.3200,8.478
40.3600,8.545
40.4000,8.042
40.4400,7.855
40.4800,7.490
40.5200,6.670
40.5600,6.061
40.6000,5.422
40.6400,4.796
40.6800,4.263
40.7200,3.676
40.7600,3.299
40.8000,3.067
40.8400,2.811
40.8800,2.609
40.9200,2.477
40.9600,2.288
41.0000,2.154
41.0400,2.086
41.0800,2.016
41.1200,1.942
41.1600,1.786
41.2000,1.790
41.2400,1.781
41.2800,1.752
41.3200,1.663
41.3600,1.682
41.4000,1.653
41.4400,1.625
41.4800,1.445
41.5200,1.546
41.5600,1.518
41.6000,1.558
41.6400,1.599
41.6800,1.425
41.7200,1.351
41.7600,1.438
41.8000,1.460
41.8400,1.465
41.8800,1.389
41.9200,1.388
41.9600,1.447
42.0000,1.461
42.0400,1.450
42.0800,1.424
42.1200,1.449
42.1600,1.393
42.2000,1.369
42.2400,1.317
42.2800,1.432
42.3200,1.240
42.3600,1.333
42.4000,1.294
42.4400,1.327
42.4800,1.389
42.5200,1.358
42.5600,1.386
42.6000,1.281
42.6400,1.265
42.6800,1.366
42.7200,1.318
42.7600,1.295
42.8000,1.262
42.8400,1.246
42.8800,1.285
42.9200,1.278
42.9600,1.302
43.0000,1.282
43.0400,1.302
43.0800,1.227
43.1200,1.210
43.1600,1.250
43.2000,1.277
43.2400,1.191
43.2800,1.217
43.3200,1.245
43.3600,1.282
43.4000,1.297
43.4400,1.197
43.4800,1.268
43.5200,1.193
43.5600,1.200
43.6000,1.231
43.6400,1.181
43.6800,1.175
43.7200,1.219
43.7600,1.248
43.8000,1.219
43.8400,1.197
43.8800,1.305
43.9200,1.176
43.9600,1.201
44.0000,1.208
44.0400,1.240
44.0800,1.306
44.1200,1.346
44.1600,1.274
44.2000,1.297
44.2400,1.318
44.2800,1.288
44.3200,1.281
44.3600,1.402
44.4000,1.357
44.4400,1.373
44.4800,1.486
44.5200,1.436
44.5600,1.591
44.6000,1.573
44.6400,1.618
44.6800,1.655
44.7200,1.737
44.7600,1.728
44.8000,1.692
44.8400,1.721
44.8800,1.919
44.9200,1.909
44.9600,1.941
45.0000,1.899
45.0400,1.916
45.0800,1.855
45.1200,1.779
45.1600,1.767
45.2000,1.597
45.2400,1.526
45.2800,1.519
45.3200,1.463
45.3600,1.355
45.4000,1.344
45.4400,1.257
45.4800,1.285
45.5200,1.275
45.5600,1.254
45.6000,1.209
45.6400,1.226
45.6800,1.201
45.7200,1.140
45.7600,1.136
45.8000,1.051
45.8400,1.099
45.8800,1.079
45.9200,1.103
45.9600,1.154
46.0000,1.091
46.0400,1.031
46.0800,1.075
46.1200,1.050
46.1600,1.060
46.2000,1.025
46.2400,1.060
46.2800,1.036
46.3200,0.968
46.3600,1.110
46.4000,1.113
46.4400,1.049
46.4800,1.009
46.5200,0.996
46.5600,0.997
46.6000,0.999
46.6400,0.982
46.6800,1.040
46.7200,1.026
46.7600,1.005
46.8000,1.053
46.8400,1.035
46.8800,0.960
46.9200,0.996
46.9600,1.047
47.0000,0.980
47.0400,1.047
47.0800,1.014
47.1200,1.034
47.1600,1.029
47.2000,1.031
47.2400,0.975
47.2800,0.985
47.3200,1.046
47.3600,1.004
47.4000,0.968
47.4400,1.005
47.4800,0.998
47.5200,0.988
47.5600,0.994
47.6000,0.997
47.6400,0.964
47.6800,0.957
47.7200,0.984
47.7600,0.983
47.8000,0.971
47.8400,0.911
47.8800,0.959
47.9200,0.936
47.9600,1.002
48.0000,0.992
48.0400,0.927
48.0800,0.939
48.1200,0.999
48.1600,0.950
48.2000,0.929
48.2400,0.940
48.2800,0.935
48.3200,0.987
48.3600,1.002
48.4000,0.938
48.4400,0.897
48.4800,0.921
48.5200,0.903
48.5600,0.955
48.6000,0.944
48.6400,0.886
48.6800,0.882
48.7200,0.913
48.7600,0.924
48.8000,0.972
48.8400,0.932
48.8800,0.894
48.9200,0.946
48.9600,0.901
49.0000,0.923
49.0400,0.948
49.0800,0.935
49.1200,0.912
49.1600,0.903
49.2000,0.956
49.2400,0.972
49.2800,0.895
49.3200,0.921
49.3600,0.885
49.4000,0.895
49.4400,0.898
49.4800,0.964
49.5200,0.981
49.5600,1.004
49.6000,1.004
49.6400,1.071
49.6800,1.145
49.7200,1.192
49.7600,1.203
49.8000,1.255
49.8400,1.266
49.8800,1.339
49.9200,1.325
49.9600,1.226
50.0000,1.145
50.0400,1.097
50.0800,1.101
50.1200,1.079
50.1600,0.996
50.2000,0.935
50.2400,0.904
50.2800,0.905
50.3200,0.890
50.3600,0.820
50.4000,0.858
50.4400,0.904
50.4800,0.892
50.5200,0.876
50.5600,0.871
50.6000,0.865
50.6400,0.905
50.6800,0.909
50.7200,0.906
50.7600,0.804
50.8000,0.812
50.8400,0.806
50.8800,0.875
50.9200,0.819
50.9600,0.816
51.0000,0.840
51.0400,0.840
51.0800,0.836
51.1200,0.855
51.1600,0.839
51.2000,0.859
51.2400,0.837
51.2800,0.825
51.3200,0.829
51.3600,0.854
51.4000,0.775
51.4400,0.739
51.4800,0.873
51.5200,0.843
51.5600,0.826
51.6000,0.790
51.6400,0.822
51.6800,0.797
51.7200,0.804
51.7600,0.820
51.8000,0.817
51.8400,0.831
51.8800,0.800
51.9200,0.826
51.9600,0.812
52.0000,0.812
52.0400,0.774
52.0800,0.779
52.1200,0.766
52.1600,0.735
52.2000,0.776
52.2400,0.722
52.2800,0.804
52.3200,0.821
52.3600,0.788
52.4000,0.848
52.4400,0.761
52.4800,0.782
52.5200,0.799
52.5600,0.804
52.6000,0.775
52.6400,0.763
52.6800,0.792
52.7200,0.752
52.7600,0.788
52.8000,0.746
52.8400,0.760
52.8800,0.760
52.9200,0.755
52.9600,0.784
53.0000,0.738
53.0400,0.805
53.0800,0.759
53.1200,0.755
53.1600,0.807
53.2000,0.796
53.2400,0.770
53.2800,0.781
53.3200,0.773
53.3600,0.773
53.4000,0.754
53.4400,0.742
53.4800,0.790
53.5200,0.734
53.5600,0.731
53.6000,0.751
53.6400,0.742
53.6800,0.727
53.7200,0.775
53.7600,0.763
53.8000,0.727
53.8400,0.741
53.8800,0.731
53.9200,0.722
53.9600,0.737
54.0000,0.754
54.0400,0.784
54.0800,0.759
54.1200,0.741
54.1600,0.767
54.2000,0.681
54.2400,0.760
54.2800,0.734
54.3200,0.737
54.3600,0.769
54.4000,0.795
54.4400,0.749
54.4800,0.708
54.5200,0.745
54.5600,0.707
54.6000,0.687
54.6400,0.774
54.6800,0.710
54.7200,0.764
54.7600,0.701
54.8000,0.755
54.8400,0.777
54.8800,0.783
54.9200,0.719
54.9600,0.741
55.0000,0.781
55.0400,0.742
55.0800,0.759
55.1200,0.713
55.1600,0.690
55.2000,0.772
55.2400,0.726
55.2800,0.763
55.3200,0.722
55.3600,0.732
55.4000,0.724
55.4400,0.704
55.4800,0.743
55.5200,0.767
55.5600,0.705
55.6000,0.685
55.6400,0.736
55.6800,0.690
55.7200,0.754
55.7600,0.761
55.8000,0.716
55.8400,0.689
55.8800,0.776
55.9200,0.789
55.9600,0.757
56.0000,0.745
56.0400,0.713
56.0800,0.757
56.1200,0.719
56.1600,0.734
56.2000,0.754
56.2400,0.731
56.2800,0.777
56.3200,0.843
56.3600,0.808
56.4000,0.771
56.4400,0.806
56.4800,0.825
56.5200,0.735
56.5600,0.793
56.6000,0.789
56.6400,0.794
56.6800,0.746
56.7200,0.772
56.7600,0.813
56.8000,0.808
56.8400,0.832
56.8800,0.797
56.9200,0.803
56.9600,0.794
57.0000,0.774
57.0400,0.787
57.0800,0.766
57.1200,0.764
57.1600,0.754
57.2000,0.720
57.2400,0.754
57.2800,0.779
57.3200,0.726
57.3600,0.791
57.4000,0.768
57.4400,0.784
57.4800,0.783
57.5200,0.773
57.5600,0.814
57.6000,0.765
57.6400,0.790
57.6800,0.752
57.7200,0.760
57.7600,0.797
57.8000,0.746
57.8400,0.820
57.8800,0.790
57.9200,0.820
57.9600,0.769
58.0000,0.843
58.0400,0.834
58.0800,0.861
58.1200,0.867
58.1600,0.875
58.2000,0.892
58.2400,0.955
58.2800,0.922
58.3200,0.891
58.3600,0.979
58.4000,0.952
58.4400,0.989
58.4800,0.958
58.5200,0.932
58.5600,0.924
58.6000,1.007
58.6400,0.928
58.6800,0.939
58.7200,0.961
58.7600,0.946
58.8000,0.987
58.8400,0.972
58.8800,0.870
58.9200,0.944
58.9600,0.876
59.0000,0.872
59.0400,0.897
59.0800,0.856
59.1200,0.818
59.1600,0.845
59.2000,0.832
59.2400,0.795
59.2800,0.857
59.3200,0.792
59.3600,0.759
59.4000,0.805
59.4400,0.799
59.4800,0.761
59.5200,0.727
59.5600,0.758
59.6000,0.723
59.6400,0.713
59.6800,0.665
59.7200,0.766
59.7600,0.705
59.8000,0.663
59.8400,0.671
59.8800,0.675
59.9200,0.635
59.9600,0.705
60.0000,0.694
60.0400,0.663
60.0800,0.693
60.1200,0.633
60.1600,0.674
60.2000,0.672
60.2400,0.692
60.2800,0.624
60.3200,0.656
60.3600,0.606
60.4000,0.670
60.4400,0.656
60.4800,0.652
60.5200,0.611
60.5600,0.647
60.6000,0.540
60.6400,0.624
60.6800,0.651
60.7200,0.603
60.7600,0.605
60.8000,0.681
60.8400,0.624
60.8800,0.605
60.9200,0.590
60.9600,0.685
61.0000,0.612
61.0400,0.645
61.0800,0.616
61.1200,0.615
61.1600,0.709
61.2000,0.639
61.2400,0.648
61.2800,0.578
61.3200,0.598
61.3600,0.600
61.4000,0.594
61.4400,0.650
61.4800,0.588
61.5200,0.621
61.5600,0.653
61.6000,0.646
61.6400,0.618
61.6800,0.675
61.7200,0.730
61.7600,0.694
61.8000,0.593
61.8400,0.611
61.8800,0.609
61.9200,0.604
61.9600,0.625
62.0000,0.610
62.0400,0.613
62.0800,0.614
62.1200,0.592
62.1600,0.625
62.2000,0.597
62.2400,0.609
62.2800,0.618
62.3200,0.615
62.3600,0.607
62.4000,0.635
62.4400,0.664
62.4800,0.636
62.5200,0.604
62.5600,0.552
62.6000,0.581
62.6400,0.636
62.6800,0.687
62.7200,0.631
62.7600,0.680
62.8000,0.659
62.8400,0.641
62.8800,0.637
62.9200,0.641
62.9600,0.616
63.0000,0.656
63.0400,0.628
63.0800,0.620
63.1200,0.646
63.1600,0.627
63.2000,0.631
63.2400,0.613
63.2800,0.599
63.3200,0.621
63.3600,0.605
63.4000,0.630
63.4400,0.574
63.4800,0.623
63.5200,0.587
63.5600,0.625
63.6000,0.617
63.6400,0.660
63.6800,0.654
63.7200,0.569
63.7600,0.645
63.8000,0.602
63.8400,0.640
63.8800,0.645
63.9200,0.611
63.9600,0.665
64.0000,0.640
64.0400,0.654
64.0800,0.565
64.1200,0.641
64.1600,0.605
64.2000,0.652
64.2400,0.669
64.2800,0.677
64.3200,0.655
64.3600,0.625
64.4000,0.655
64.4400,0.703
64.4800,0.701
64.5200,0.756
64.5600,0.691
64.6000,0.712
64.6400,0.692
64.6800,0.703
64.7200,0.798
64.7600,0.786
64.8000,0.788
64.8400,0.782
64.8800,0.839
64.9200,0.833
64.9600,0.878
65.0000,0.976
65.0400,0.920
65.0800,0.939
65.1200,0.997
65.1600,0.989
65.2000,1.101
65.2400,1.173
65.2800,1.204
65.3200,1.275
65.3600,1.276
65.4000,1.313
65.4400,1.263
65.4800,1.251
65.5200,1.236
65.5600,1.183
65.6000,1.192
65.6400,1.130
65.6800,1.085
65.7200,1.055
65.7600,1.056
65.8000,1.006
65.8400,0.947
65.8800,0.991
65.9200,0.961
65.9600,0.952
66.0000,0.941
66.0400,0.922
66.0800,0.994
66.1200,0.948
66.1600,0.974
66.2000,0.961
66.2400,0.930
66.2800,0.916
66.3200,0.987
66.3600,1.001
66.4000,0.943
66.4400,0.978
66.4800,1.002
66.5200,0.923
66.5600,0.929
66.6000,0.942
66.6400,1.014
66.6800,1.061
66.7200,0.974
66.7600,0.969
66.8000,0.972
66.8400,0.953
66.8800,0.968
66.9200,1.025
66.9600,1.017
67.0000,1.016
67.0400,1.051
67.0800,1.063
67.1200,1.095
67.1600,1.049
67.2000,1.134
67.2400,1.159
67.2800,1.111
67.3200,1.143
67.3600,1.150
67.4000,1.129
67.4400,1.216
67.4800,1.245
67.5200,1.238
67.5600,1.240
67.6000,1.237
67.6400,1.228
67.6800,1.292
67.7200,1.307
67.7600,1.337
67.8000,1.368
67.8400,1.478
67.8800,1.497
67.9200,1.453
67.9600,1.480
68.0000,1.519
68.0400,1.529
68.0800,1.605
68.1200,1.644
68.1600,1.602
68.2000,1.642
68.2400,1.822
68.2800,1.811
68.3200,1.850
68.3600,1.920
68.4000,1.906
68.4400,2.072
68.4800,2.137
68.5200,2.199
68.5600,2.264
68.6000,2.470
68.6400,2.587
68.6800,2.777
68.7200,3.019
68.7600,3.643
68.8000,4.752
68.8400,5.994
68.8800,6.806
68.9200,6.746
68.9600,7.273
69.0000,8.670
69.0400,12.474
69.0800,21.609
69.1200,57.401
69.1600,257.997
69.2000,457.895
69.2400,266.783
69.2800,68.985
69.3200,52.497
69.3600,149.731
69.4000,233.104
69.4400,130.821
69.4800,34.295
69.5200,14.385
69.5600,9.466
69.6000,7.001
69.6400,5.786
69.6800,4.804
69.7200,4.295
69.7600,3.742
69.8000,3.397
69.8400,3.157
69.8800,2.849
69.9200,2.765
69.9600,2.604
70.0000,2.476
70.0400,2.406
70.0800,2.205
70.1200,2.234
70.1600,2.069
70.2000,2.018
70.2400,1.970
70.2800,1.830
70.3200,1.740
70.3600,1.742
70.4000,1.787
70.4400,1.701
70.4800,1.586
70.5200,1.502
70.5600,1.440
70.6000,1.512
70.6400,1.464
70.6800,1.366
70.7200,1.323
70.7600,1.415
70.8000,1.310
70.8400,1.407
70.8800,1.305
70.9200,1.249
70.9600,1.260
71.0000,1.191
71.0400,1.101
71.0800,1.206
71.1200,1.208
71.1600,1.057
71.2000,1.039
71.2400,1.048
71.2800,1.018
71.3200,0.969
71.3600,0.986
71.4000,0.942
71.4400,0.998
71.4800,0.986
71.5200,0.925
71.5600,0.913
71.6000,0.942
71.6400,0.899
71.6800,0.913
71.7200,0.906
71.7600,0.901
71.8000,0.869
71.8400,0.866
71.8800,0.863
71.9200,0.769
71.9600,0.797
72.0000,0.821
72.0400,0.790
72.0800,0.815
72.1200,0.768
72.1600,0.779
72.2000,0.756
72.2400,0.763
72.2800,0.758
72.3200,0.786
72.3600,0.793
72.4000,0.775
72.4400,0.775
72.4800,0.782
72.5200,0.783
72.5600,0.840
72.6000,0.811
72.6400,0.846
72.6800,0.876
72.7200,0.887
72.7600,0.911
72.8000,0.954
72.8400,0.906
72.8800,0.950
72.9200,0.973
72.9600,1.036
73.0000,1.060
73.0400,1.062
73.0800,1.087
73.1200,1.076
73.1600,1.077
73.2000,1.016
73.2400,1.033
73.2800,1.028
73.3200,1.043
73.3600,1.106
73.4000,1.029
73.4400,1.055
73.4800,0.989
73.5200,0.993
73.5600,0.954
73.6000,0.971
73.6400,0.899
73.6800,0.845
73.7200,0.834
73.7600,0.855
73.8000,0.863
73.8400,0.700
73.8800,0.710
73.9200,0.756
73.9600,0.721
74.0000,0.717
74.0400,0.692
74.0800,0.645
74.1200,0.651
74.1600,0.639
74.2000,0.610
74.2400,0.577
74.2800,0.616
74.3200,0.621
74.3600,0.512
74.4000,0.549
74.4400,0.561
74.4800,0.495
74.5200,0.535
74.5600,0.508
74.6000,0.514
74.6400,0.503
74.6800,0.493
74.7200,0.565
74.7600,0.534
74.8000,0.491
74.8400,0.482
74.8800,0.467
74.9200,0.458
74.9600,0.485
75.0000,0.513
75.0400,0.469
75.0800,0.452
75.1200,0.521
75.1600,0.489
75.2000,0.492
75.2400,0.493
75.2800,0.437
75.3200,0.502
75.3600,0.448
75.4000,0.459
75.4400,0.454
75.4800,0.445
75.5200,0.439
75.5600,0.432
75.6000,0.495
75.6400,0.454
75.6800,0.456
75.7200,0.482
75.7600,0.421
75.8000,0.425
75.8400,0.440
75.8800,0.438
75.9200,0.447
75.9600,0.480
76.0000,0.450
76.0400,0.434
76.0800,0.459
76.1200,0.451
76.1600,0.429
76.2000,0.436
76.2400,0.396
76.2800,0.451
76.3200,0.450
76.3600,0.427
76.4000,0.459
76.4400,0.432
76.4800,0.448
76.5200,0.446
76.5600,0.420
76.6000,0.432
76.6400,0.444
76.6800,0.453
76.7200,0.443
76.7600,0.492
76.8000,0.401
76.8400,0.413
76.8800,0.469
76.9200,0.456
76.9600,0.478
77.0000,0.404
77.0400,0.463
77.0800,0.433
77.1200,0.431
77.1600,0.424
77.2000,0.450
77.2400,0.454
77.2800,0.435
77.3200,0.446
77.3600,0.475
77.4000,0.472
77.4400,0.474
77.4800,0.468
77.5200,0.446
77.5600,0.442
77.6000,0.483
77.6400,0.492
77.6800,0.501
77.7200,0.520
77.7600,0.467
77.8000,0.490
77.8400,0.551
77.8800,0.502
77.9200,0.547
77.9600,0.492
78.0000,0.528
78.0400,0.541
78.0800,0.536
78.1200,0.543
78.1600,0.624
78.2000,0.626
78.2400,0.609
78.2800,0.677
78.3200,0.658
78.3600,0.734
78.4000,0.752
78.4400,0.771
78.4800,0.822
78.5200,0.837
78.5600,0.809
78.6000,0.802
78.6400,0.781
78.6800,0.839
78.7200,0.815
78.7600,0.822
78.8000,0.779
78.8400,0.723
78.8800,0.692
78.9200,0.693
78.9600,0.634
79.0000,0.586
79.0400,0.599
79.0800,0.576
79.1200,0.547
79.1600,0.519
79.2000,0.510
79.2400,0.540
79.2800,0.497
79.3200,0.450
79.3600,0.466
79.4000,0.488
79.4400,0.461
79.4800,0.416
79.5200,0.455
79.5600,0.399
79.6000,0.413
79.6400,0.448
79.6800,0.416
79.7200,0.365
79.7600,0.437
79.8000,0.363
79.8400,0.392
79.8800,0.394
79.9200,0.376
79.9600,0.370
80.0000,0.366
