theta,intensity
5.0000,6.387
5.0400,6.508
5.0800,6.446
5.1200,6.331
5.1600,6.288
5.2000,6.199
5.2400,6.287
5.2800,6.214
5.3200,6.035
5.3600,6.170
5.4000,6.026
5.4400,6.043
5.4800,5.991
5.5200,5.915
5.5600,5.788
5.6000,5.686
5.6400,5.728
5.6800,5.654
5.7200,5.542
5.7600,5.500
5.8000,5.343
5.8400,5.216
5.8800,5.203
5.9200,5.084
5.9600,4.977
6.0000,5.024
6.0400,4.866
6.0800,4.710
6.1200,4.567
6.1600,4.694
6.2000,4.719
6.2400,4.548
6.2800,4.508
6.3200,4.373
6.3600,4.517
6.4000,4.473
6.4400,4.464
6.4800,4.495
6.5200,4.469
6.5600,4.259
6.6000,4.241
6.6400,4.298
6.6800,4.286
6.7200,4.379
6.7600,4.140
6.8000,4.201
6.8400,4.199
6.8800,4.204
6.9200,4.117
6.9600,4.104
7.0000,4.167
7.0400,4.190
7.0800,4.151
7.1200,4.112
7.1600,4.065
7.2000,4.028
7.2400,4.119
7.2800,4.016
7.3200,3.926
7.3600,4.035
7.4000,4.033
7.4400,4.014
7.4800,3.966
7.5200,3.996
7.5600,3.992
7.6000,3.968
7.6400,3.909
7.6800,3.972
7.7200,4.065
7.7600,4.099
7.8000,3.980
7.8400,4.036
7.8800,4.078
7.9200,3.978
7.9600,3.962
8.0000,3.865
8.0400,3.982
8.0800,3.883
8.1200,3.921
8.1600,3.894
8.2000,4.012
8.2400,3.982
8.2800,3.872
8.3200,3.899
8.3600,3.884
8.4000,3.937
8.4400,3.889
8.4800,3.845
8.5200,3.904
8.5600,3.825
8.6000,3.791
8.6400,3.891
8.6800,3.841
8.7200,3.704
8.7600,3.941
8.8000,3.920
8.8400,3.854
8.8800,3.813
8.9200,3.835
8.9600,3.834
9.0000,3.825
9.0400,3.843
9.0800,3.843
9.1200,3.788
9.1600,3.792
9.2000,3.864
9.2400,3.783
9.2800,3.723
9.3200,3.726
9.3600,3.745
9.4000,3.677
9.4400,3.778
9.4800,3.759
9.5200,3.740
9.5600,3.761
9.6000,3.745
9.6400,3.741
9.6800,3.726
9.7200,3.655
9.7600,3.732
9.8000,3.799
9.8400,3.644
9.8800,3.790
9.9200,3.741
9.9600,3.687
10.0000,3.735
10.0400,3.654
10.0800,3.627
10.1200,3.518
10.1600,3.604
10.2000,3.716
10.2400,3.762
10.2800,3.604
10.3200,3.752
10.3600,3.730
10.4000,3.594
10.4400,3.698
10.4800,3.677
10.5200,3.568
10.5600,3.706
10.6000,3.665
10.6400,3.618
10.6800,3.606
10.7200,3.624
10.7600,3.569
10.8000,3.623
10.8400,3.549
10.8800,3.536
10.9200,3.660
10.9600,3.634
11.0000,3.509
11.0400,3.584
11.0800,3.511
11.1200,3.548
11.1600,3.648
11.2000,3.645
11.2400,3.525
11.2800,3.697
11.3200,3.614
11.3600,3.582
11.4000,3.649
11.4400,3.508
11.4800,3.551
11.5200,3.579
11.5600,3.504
11.6000,3.506
11.6400,3.498
11.6800,3.561
11.7200,3.546
11.7600,3.541
11.8000,3.499
11.8400,3.450
11.8800,3.508
11.9200,3.380
11.9600,3.388
12.0000,3.402
12.0400,3.459
12.0800,3.530
12.1200,3.463
12.1600,3.460
12.2000,3.600
12.2400,3.411
12.2800,3.442
12.3200,3.450
12.3600,3.350
12.4000,3.454
12.4400,3.503
12.4800,3.395
12.5200,3.473
12.5600,3.433
12.6000,3.362
12.6400,3.387
12.6800,3.424
12.7200,3.395
12.7600,3.450
12.8000,3.375
12.8400,3.399
12.8800,3.400
12.9200,3.364
12.9600,3.374
13.0000,3.381
13.0400,3.338
13.0800,3.523
13.1200,3.410
13.1600,3.350
13.2000,3.350
13.2400,3.326
13.2800,3.425
13.3200,3.375
13.3600,3.385
13.4000,3.266
13.4400,3.265
13.4800,3.418
13.5200,3.301
13.5600,3.353
13.6000,3.271
13.6400,3.321
13.6800,3.254
13.7200,3.235
13.7600,3.250
13.8000,3.272
13.8400,3.283
13.8800,3.343
13.9200,3.284
13.9600,3.445
14.0000,3.374
14.0400,3.335
14.0800,3.326
14.1200,3.258
14.1600,3.282
14.2000,3.241
14.2400,3.260
14.2800,3.298
14.3200,3.276
14.3600,3.421
14.4000,3.206
14.4400,3.133
14.4800,3.245
14.5200,3.186
14.5600,3.358
14.6000,3.269
14.6400,3.302
14.6800,3.218
14.7200,3.209
14.7600,3.219
14.8000,3.237
14.8400,3.262
14.8800,3.337
14.9200,3.187
14.9600,3.388
15.0000,3.170
15.0400,3.184
15.0800,3.202
15.1200,3.228
15.1600,3.126
15.2000,3.261
15.2400,3.155
15.2800,3.177
15.3200,3.245
15.3600,3.251
15.4000,3.221
15.4400,3.163
15.4800,3.168
15.5200,3.087
15.5600,3.133
15.6000,3.147
15.6400,3.231
15.6800,3.182
15.7200,3.092
15.7600,3.106
15.8000,3.224
15.8400,3.195
15.8800,3.159
15.9200,3.206
15.9600,3.025
16.0000,3.010
16.0400,3.071
16.0800,3.098
16.1200,3.090
16.1600,3.179
16.2000,3.098
16.2400,3.047
16.2800,3.048
16.3200,3.032
16.3600,3.090
16.4000,3.174
16.4400,3.088
16.4800,3.040
16.5200,3.051
16.5600,3.145
16.6000,3.115
16.6400,3.061
16.6800,3.020
16.7200,3.011
16.7600,3.043
16.8000,3.015
16.8400,3.036
16.8800,2.948
16.9200,2.987
16.9600,3.020
17.0000,3.050
17.0400,3.093
17.0800,2.976
17.1200,2.993
17.1600,3.018
17.2000,3.018
17.2400,3.119
17.2800,3.046
17.3200,2.877
17.3600,2.970
17.4000,3.014
17.4400,2.986
17.4800,3.061
17.5200,2.993
17.5600,2.955
17.6000,2.916
17.6400,2.962
17.6800,3.031
17.7200,2.932
17.7600,2.957
17.8000,3.027
17.8400,2.883
17.8800,2.927
17.9200,2.868
17.9600,2.953
18.0000,2.898
18.0400,2.933
18.0800,2.932
18.1200,3.018
18.1600,2.857
18.2000,2.930
18.2400,2.881
18.2800,2.858
18.3200,2.889
18.3600,2.873
18.4000,2.874
18.4400,2.779
18.4800,2.860
18.5200,2.856
18.5600,2.847
18.6000,2.814
18.6400,2.887
18.6800,2.811
18.7200,2.941
18.7600,2.834
18.8000,2.821
18.8400,2.773
18.8800,2.750
18.9200,2.841
18.9600,2.855
19.0000,2.790
19.0400,2.875
19.0800,2.774
19.1200,2.917
19.1600,2.930
19.2000,2.806
19.2400,2.897
19.2800,2.820
19.3200,2.804
19.3600,2.758
19.4000,2.800
19.4400,2.831
19.4800,2.820
19.5200,2.834
19.5600,2.735
19.6000,2.794
19.6400,2.734
19.6800,2.801
19.7200,2.758
19.7600,2.717
19.8000,2.743
19.8400,2.730
19.8800,2.696
19.9200,2.812
19.9600,2.815
20.0000,2.729
20.0400,2.794
20.0800,2.780
20.1200,2.755
20.1600,2.671
20.2000,2.697
20.2400,2.712
20.2800,2.613
20.3200,2.761
20.3600,2.718
20.4000,2.635
20.4400,2.686
20.4800,2.697
20.5200,2.723
20.5600,2.730
20.6000,2.716
20.6400,2.755
20.6800,2.734
20.7200,2.711
20.7600,2.688
20.8000,2.728
20.8400,2.853
20.8800,2.806
20.9200,2.785
20.9600,2.757
21.0000,2.826
21.0400,2.738
21.0800,2.728
21.1200,2.723
21.1600,2.799
21.2000,2.681
21.2400,2.791
21.2800,2.786
21.3200,2.705
21.3600,2.753
21.4000,2.764
21.4400,2.757
21.4800,2.709
21.5200,2.721
21.5600,2.785
21.6000,2.606
21.6400,2.631
21.6800,2.612
21.7200,2.680
21.7600,2.623
21.8000,2.657
21.8400,2.616
21.8800,2.609
21.9200,2.655
21.9600,2.615
22.0000,2.570
22.0400,2.644
22.0800,2.565
22.1200,2.707
22.1600,2.596
22.2000,2.550
22.2400,2.674
22.2800,2.651
22.3200,2.602
22.3600,2.646
22.4000,2.715
22.4400,2.640
22.4800,2.746
22.5200,2.684
22.5600,2.614
22.6000,2.594
22.6400,2.598
22.6800,2.619
22.7200,2.689
22.7600,2.596
22.8000,2.631
22.8400,2.628
22.8800,2.592
22.9200,2.575
22.9600,2.496
23.0000,2.543
23.0400,2.540
23.0800,2.509
23.1200,2.514
23.1600,2.459
23.2000,2.492
23.2400,2.466
23.2800,2.465
23.3200,2.488
23.3600,2.464
23.4000,2.454
23.4400,2.469
23.4800,2.399
23.5200,2.409
23.5600,2.397
23.6000,2.372
23.6400,2.354
23.6800,2.403
23.7200,2.435
23.7600,2.423
23.8000,2.388
23.8400,2.348
23.8800,2.332
23.9200,2.360
23.9600,2.406
24.0000,2.405
24.0400,2.420
24.0800,2.352
24.1200,2.360
24.1600,2.361
24.2000,2.391
24.2400,2.438
24.2800,2.368
24.3200,2.372
24.3600,2.271
24.4000,2.341
24.4400,2.344
24.4800,2.309
24.5200,2.360
24.5600,2.391
24.6000,2.369
24.6400,2.392
24.6800,2.296
24.7200,2.334
24.7600,2.332
24.8000,2.334
24.8400,2.298
24.8800,2.329
24.9200,2.373
24.9600,2.283
25.0000,2.275
25.0400,2.284
25.0800,2.303
25.1200,2.264
25.1600,2.282
25.2000,2.285
25.2400,2.240
25.2800,2.229
25.3200,2.270
25.3600,2.277
25.4000,2.242
25.4400,2.235
25.4800,2.269
25.5200,2.203
25.5600,2.249
25.6000,2.253
25.6400,2.260
25.6800,2.286
25.7200,2.254
25.7600,2.230
25.8000,2.254
25.8400,2.242
25.8800,2.193
25.9200,2.217
25.9600,2.212
26.0000,2.240
26.0400,2.185
26.0800,2.286
26.1200,2.107
26.1600,2.159
26.2000,2.185
26.2400,2.217
26.2800,2.187
26.3200,2.220
26.3600,2.232
26.4000,2.192
26.4400,2.180
26.4800,2.110
26.5200,2.172
26.5600,2.160
26.6000,2.205
26.6400,2.225
26.6800,2.151
26.7200,2.082
26.7600,2.119
26.8000,2.196
26.8400,2.123
26.8800,2.107
26.9200,2.103
26.9600,2.133
27.0000,2.083
27.0400,2.104
27.0800,2.079
27.1200,2.043
27.1600,2.122
27.2000,2.083
27.2400,2.114
27.2800,2.152
27.3200,2.102
27.3600,2.069
27.4000,2.120
27.4400,2.128
27.4800,2.085
27.5200,2.120
27.5600,2.162
27.6000,2.136
27.6400,2.142
27.6800,2.191
27.7200,2.153
27.7600,2.121
27.8000,2.144
27.8400,2.132
27.8800,2.083
27.9200,2.103
27.9600,2.040
28.0000,2.080
28.0400,2.068
28.0800,2.109
28.1200,2.058
28.1600,2.080
28.2000,2.041
28.2400,2.038
28.2800,1.980
28.3200,2.040
28.3600,2.133
28.4000,2.006
28.4400,2.027
28.4800,2.010
28.5200,2.015
28.5600,1.935
28.6000,2.044
28.6400,1.979
28.6800,2.019
28.7200,2.068
28.7600,2.053
28.8000,1.920
28.8400,1.998
28.8800,2.050
28.9200,1.951
28.9600,2.040
29.0000,2.025
29.0400,2.000
29.0800,1.908
29.1200,1.918
29.1600,1.936
29.2000,2.040
29.2400,1.931
29.2800,1.958
29.3200,1.919
29.3600,1.983
29.4000,1.985
29.4400,1.967
29.4800,1.949
29.5200,1.941
29.5600,1.977
29.6000,1.979
29.6400,1.927
29.6800,1.974
29.7200,1.909
29.7600,1.994
29.8000,1.978
29.8400,1.974
29.8800,1.970
29.9200,1.930
29.9600,1.942
30.0000,1.984
30.0400,2.016
30.0800,2.078
30.1200,2.017
30.1600,2.162
30.2000,2.086
30.2400,2.090
30.2800,2.031
30.3200,2.025
30.3600,2.058
30.4000,2.112
30.4400,2.150
30.4800,2.182
30.5200,2.184
30.5600,2.230
30.6000,2.115
30.6400,2.130
30.6800,2.131
30.7200,2.134
30.7600,2.063
30.8000,2.110
30.8400,2.091
30.8800,2.087
30.9200,2.033
30.9600,2.046
31.0000,2.005
31.0400,1.919
31.0800,1.986
31.1200,1.929
31.1600,1.957
31.2000,1.996
31.2400,2.016
31.2800,2.021
31.3200,1.941
31.3600,1.994
31.4000,2.033
31.4400,2.043
31.4800,1.917
31.5200,2.003
31.5600,2.013
31.6000,1.956
31.6400,1.910
31.6800,1.844
31.7200,1.891
31.7600,1.825
31.8000,1.899
31.8400,1.822
31.8800,1.849
31.9200,1.817
31.9600,1.820
32.0000,1.747
32.0400,1.875
32.0800,1.852
32.1200,1.809
32.1600,1.780
32.2000,1.806
32.2400,1.799
32.2800,1.734
32.3200,1.800
32.3600,1.725
32.4000,1.789
32.4400,1.769
32.4800,1.736
32.5200,1.682
32.5600,1.741
32.6000,1.732
32.6400,1.699
32.6800,1.709
32.7200,1.755
32.7600,1.776
32.8000,1.705
32.8400,1.730
32.8800,1.708
32.9200,1.688
32.9600,1.697
33.0000,1.767
33.0400,1.654
33.0800,1.702
33.1200,1.717
33.1600,1.702
33.2000,1.702
33.2400,1.732
33.2800,1.723
33.3200,1.750
33.3600,1.608
33.4000,1.705
33.4400,1.690
33.4800,1.683
33.5200,1.663
33.5600,1.675
33.6000,1.715
33.6400,1.686
33.6800,1.660
33.7200,1.658
33.7600,1.731
33.8000,1.678
33.8400,1.626
33.8800,1.649
33.9200,1.612
33.9600,1.599
34.0000,1.632
34.0400,1.670
34.0800,1.628
34.1200,1.689
34.1600,1.681
34.2000,1.649
34.2400,1.642
34.2800,1.600
34.3200,1.622
34.3600,1.656
34.4000,1.663
34.4400,1.657
34.4800,1.635
34.5200,1.644
34.5600,1.625
34.6000,1.657
34.6400,1.603
34.6800,1.623
34.7200,1.666
34.7600,1.717
34.8000,1.612
34.8400,1.596
34.8800,1.622
34.9200,1.564
34.9600,1.665
35.0000,1.607
35.0400,1.638
35.0800,1.640
35.1200,1.599
35.1600,1.645
35.2000,1.620
35.2400,1.693
35.2800,1.641
35.3200,1.639
35.3600,1.646
35.4000,1.641
35.4400,1.714
35.4800,1.659
35.5200,1.615
35.5600,1.675
35.6000,1.718
35.6400,1.663
35.6800,1.689
35.7200,1.638
35.7600,1.698
35.8000,1.663
35.8400,1.641
35.8800,1.651
35.9200,1.697
35.9600,1.739
36.0000,1.666
36.0400,1.635
36.0800,1.622
36.1200,1.699
36.1600,1.707
36.2000,1.720
36.2400,1.712
36.2800,1.632
36.3200,1.710
36.3600,1.703
36.4000,1.736
36.4400,1.679
36.4800,1.699
36.5200,1.692
36.5600,1.790
36.6000,1.682
36.6400,1.717
36.6800,1.690
36.7200,1.742
36.7600,1.698
36.8000,1.717
36.8400,1.691
36.8800,1.696
36.9200,1.758
36.9600,1.760
37.0000,1.737
37.0400,1.783
37.0800,1.768
37.1200,1.779
37.1600,1.833
37.2000,1.751
37.2400,1.812
37.2800,1.835
37.3200,1.865
37.3600,1.940
37.4000,1.867
37.4400,1.956
37.4800,2.073
37.5200,2.084
37.5600,2.095
37.6000,2.219
37.6400,2.258
37.6800,2.455
37.7200,2.543
37.7600,2.711
37.8000,2.898
37.8400,3.192
37.8800,3.519
37.9200,3.947
37.9600,4.443
38.0000,5.275
38.0400,6.396
38.0800,7.514
38.1200,8.119
38.1600,8.565
38.2000,8.278
38.2400,7.678
38.2800,6.843
38.3200,5.981
38.3600,5.149
38.4000,4.579
38.4400,4.012
38.4800,3.639
38.5200,3.262
38.5600,3.103
38.6000,2.838
38.6400,2.785
38.6800,2.622
38.7200,2.571
38.7600,2.516
38.8000,2.420
38.8400,2.524
38.8800,2.375
38.9200,2.474
38.9600,2.531
39.0000,2.510
39.0400,2.718
39.0800,2.948
39.1200,3.231
39.1600,3.614
39.2000,4.248
39.2400,5.108
39.2800,6.293
39.3200,7.755
39.3600,8.825
39.4000,9.737
39.4400,9.680
39.4800,9.099
39.5200,8.241
39.5600,7.388
39.6000,6.415
39.6400,5.835
39.6800,5.218
39.7200,4.613
39.7600,4.308
39.8000,3.944
39.8400,3.427
39.8800,3.121
39.9200,2.928
39.9600,2.703
40.0000,2.392
40.0400,2.319
40.0800,2.224
40.1200,2.085
40.1600,1.957
40.2000,1.913
40.2400,1.866
40.2800,1.789
40.3200,1.841
40.3600,1.724
40.4000,1.732
40.4400,1.621
40.4800,1.647
40.5200,1.631
40.5600,1.623
40.6000,1.618
40.6400,1.603
40.6800,1.615
40.7200,1.559
40.7600,1.563
40.8000,1.604
40.8400,1.509
40.8800,1.571
40.9200,1.540
40.9600,1.509
41.0000,1.470
41.0400,1.508
41.0800,1.475
41.1200,1.493
41.1600,1.529
41.2000,1.411
41.2400,1.430
41.2800,1.501
41.3200,1.480
41.3600,1.445
41.4000,1.420
41.4400,1.419
41.4800,1.415
41.5200,1.465
41.5600,1.409
41.6000,1.358
41.6400,1.377
41.6800,1.331
41.7200,1.389
41.7600,1.416
41.8000,1.417
41.8400,1.428
41.8800,1.351
41.9200,1.415
41.9600,1.421
42.0000,1.385
42.0400,1.363
42.0800,1.401
42.1200,1.324
42.1600,1.362
42.2000,1.404
42.2400,1.340
42.2800,1.326
42.3200,1.388
42.3600,1.434
42.4000,1.352
42.4400,1.449
42.4800,1.453
42.5200,1.534
42.5600,1.588
42.6000,1.566
42.6400,1.637
42.6800,1.556
42.7200,1.546
42.7600,1.600
42.8000,1.524
42.8400,1.605
42.8800,1.514
42.9200,1.559
42.9600,1.628
43.0000,1.524
43.0400,1.473
43.0800,1.506
43.1200,1.512
43.1600,1.446
43.2000,1.442
43.2400,1.439
43.2800,1.385
43.3200,1.396
43.3600,1.351
43.4000,1.383
43.4400,1.350
43.4800,1.345
43.5200,1.341
43.5600,1.363
43.6000,1.395
43.6400,1.335
43.6800,1.269
43.7200,1.295
43.7600,1.249
43.8000,1.284
43.8400,1.295
43.8800,1.323
43.9200,1.362
43.9600,1.261
44.0000,1.372
44.0400,1.289
44.0800,1.317
44.1200,1.284
44.1600,1.290
44.2000,1.301
44.2400,1.236
44.2800,1.324
44.3200,1.330
44.3600,1.248
44.4000,1.317
44.4400,1.365
44.4800,1.331
44.5200,1.319
44.5600,1.361
44.6000,1.358
44.6400,1.373
44.6800,1.495
44.7200,1.506
44.7600,1.467
44.8000,1.513
44.8400,1.569
44.8800,1.608
44.9200,1.632
44.9600,1.690
45.0000,1.757
45.0400,1.856
45.0800,1.916
45.1200,1.891
45.1600,2.022
45.2000,2.031
45.2400,1.995
45.2800,1.904
45.3200,1.974
45.3600,1.810
45.4000,1.670
45.4400,1.632
45.4800,1.421
45.5200,1.394
45.5600,1.357
45.6000,1.345
45.6400,1.251
45.6800,1.240
45.7200,1.205
45.7600,1.210
45.8000,1.159
45.8400,1.188
45.8800,1.151
45.9200,1.089
45.9600,1.065
46.0000,1.107
46.0400,1.019
46.0800,1.069
46.1200,0.997
46.1600,1.036
46.2000,1.062
46.2400,1.108
46.2800,1.087
46.3200,1.082
46.3600,1.114
46.4000,1.061
46.4400,1.031
46.4800,0.998
46.5200,0.987
46.5600,1.015
46.6000,1.007
46.6400,1.001
46.6800,1.019
46.7200,1.023
46.7600,1.018
46.8000,0.915
46.8400,1.030
46.8800,0.981
46.9200,0.978
46.9600,0.945
47.0000,1.015
47.0400,0.999
47.0800,0.924
47.1200,0.916
47.1600,0.911
47.2000,0.941
47.2400,0.883
47.2800,0.951
47.3200,1.005
47.3600,0.920
47.4000,0.925
47.4400,0.907
47.4800,0.931
47.5200,0.929
47.5600,0.962
47.6000,0.879
47.6400,0.898
47.6800,0.966
47.7200,0.887
47.7600,0.935
47.8000,0.936
47.8400,0.905
47.8800,0.910
47.9200,0.944
47.9600,0.899
48.0000,0.884
48.0400,0.875
48.0800,0.857
48.1200,0.895
48.1600,0.846
48.2000,0.919
48.2400,0.916
48.2800,0.855
48.3200,0.862
48.3600,0.858
48.4000,0.882
48.4400,0.903
48.4800,0.873
48.5200,0.889
48.5600,0.887
48.6000,0.932
48.6400,0.890
48.6800,0.914
48.7200,0.892
48.7600,0.850
48.8000,0.865
48.8400,0.907
48.8800,0.895
48.9200,0.874
48.9600,0.838
49.0000,0.879
49.0400,0.860
49.0800,0.837
49.1200,0.823
49.1600,0.879
49.2000,0.894
49.2400,0.889
49.2800,0.900
49.3200,0.848
49.3600,0.908
49.4000,0.854
49.4400,0.787
49.4800,0.836
49.5200,0.863
49.5600,0.872
49.6000,0.851
49.6400,0.779
49.6800,0.885
49.7200,0.849
49.7600,0.835
49.8000,0.849
49.8400,0.840
49.8800,0.855
49.9200,0.908
49.9600,0.806
50.0000,0.843
50.0400,0.835
50.0800,0.814
50.1200,0.813
50.1600,0.908
50.2000,0.900
50.2400,0.919
50.2800,0.893
50.3200,0.861
50.3600,0.879
50.4000,0.874
50.4400,0.926
50.4800,0.898
50.5200,0.853
50.5600,0.839
50.6000,0.831
50.6400,0.819
50.6800,0.920
50.7200,0.887
50.7600,0.880
50.8000,0.849
50.8400,0.834
50.8800,0.835
50.9200,0.837
50.9600,0.855
51.0000,0.895
51.0400,0.866
51.0800,0.814
51.1200,0.863
51.1600,0.851
51.2000,0.822
51.2400,0.852
51.2800,0.819
51.3200,0.804
51.3600,0.781
51.4000,0.849
51.4400,0.768
51.4800,0.775
51.5200,0.798
51.5600,0.773
51.6000,0.778
51.6400,0.767
51.6800,0.789
51.7200,0.752
51.7600,0.856
51.8000,0.786
51.8400,0.754
51.8800,0.778
51.9200,0.751
51.9600,0.766
52.0000,0.774
52.0400,0.746
52.0800,0.818
52.1200,0.829
52.1600,0.757
52.2000,0.797
52.2400,0.732
52.2800,0.779
52.3200,0.757
52.3600,0.759
52.4000,0.734
52.4400,0.719
52.4800,0.691
52.5200,0.806
52.5600,0.752
52.6000,0.763
52.6400,0.771
52.6800,0.739
52.7200,0.743
52.7600,0.703
52.8000,0.698
52.8400,0.717
52.8800,0.757
52.9200,0.731
52.9600,0.751
53.0000,0.698
53.0400,0.738
53.0800,0.705
53.1200,0.729
53.1600,0.742
53.2000,0.727
53.2400,0.715
53.2800,0.712
53.3200,0.719
53.3600,0.720
53.4000,0.708
53.4400,0.695
53.4800,0.748
53.5200,0.723
53.5600,0.767
53.6000,0.767
53.6400,0.752
53.6800,0.728
53.7200,0.762
53.7600,0.716
53.8000,0.730
53.8400,0.737
53.8800,0.750
53.9200,0.732
53.9600,0.712
54.0000,0.724
54.0400,0.729
54.0800,0.760
54.1200,0.766
54.1600,0.744
54.2000,0.752
54.2400,0.738
54.2800,0.751
54.3200,0.668
54.3600,0.701
54.4000,0.729
54.4400,0.728
54.4800,0.740
54.5200,0.681
54.5600,0.676
54.6000,0.714
54.6400,0.693
54.6800,0.677
54.7200,0.724
54.7600,0.679
54.8000,0.699
54.8400,0.725
54.8800,0.661
54.9200,0.670
54.9600,0.693
55.0000,0.681
55.0400,0.715
55.0800,0.639
55.1200,0.695
55.1600,0.708
55.2000,0.698
55.2400,0.664
55.2800,0.710
55.3200,0.685
55.3600,0.686
55.4000,0.722
55.4400,0.706
55.4800,0.732
55.5200,0.730
55.5600,0.685
55.6000,0.669
55.6400,0.712
55.6800,0.690
55.7200,0.702
55.7600,0.717
55.8000,0.689
55.8400,0.734
55.8800,0.723
55.9200,0.682
55.9600,0.696
56.0000,0.690
56.0400,0.689
56.0800,0.693
56.1200,0.690
56.1600,0.768
56.2000,0.743
56.2400,0.711
56.2800,0.756
56.3200,0.679
56.3600,0.687
56.4000,0.691
56.4400,0.732
56.4800,0.695
56.5200,0.749
56.5600,0.734
56.6000,0.807
56.6400,0.794
56.6800,0.779
56.7200,0.832
56.7600,0.912
56.8000,0.954
56.8400,1.021
56.8800,1.051
56.9200,1.097
56.9600,1.140
57.0000,1.147
57.0400,1.202
57.0800,1.270
57.1200,1.281
57.1600,1.265
57.2000,1.211
57.2400,1.197
57.2800,1.145
57.3200,1.089
57.3600,1.015
57.4000,1.029
57.4400,0.983
57.4800,0.897
57.5200,0.811
57.5600,0.834
57.6000,0.739
57.6400,0.733
57.6800,0.752
57.7200,0.760
57.7600,0.745
57.8000,0.711
57.8400,0.726
57.8800,0.685
57.9200,0.659
57.9600,0.671
58.0000,0.653
58.0400,0.691
58.0800,0.679
58.1200,0.658
58.1600,0.630
58.2000,0.657
58.2400,0.664
58.2800,0.695
58.3200,0.640
58.3600,0.635
58.4000,0.653
58.4400,0.619
58.4800,0.655
58.5200,0.614
58.5600,0.657
58.6000,0.617
58.6400,0.644
58.6800,0.721
58.7200,0.626
58.7600,0.650
58.8000,0.647
58.8400,0.600
58.8800,0.624
58.9200,0.633
58.9600,0.642
59.0000,0.612
59.0400,0.579
59.0800,0.587
59.1200,0.663
59.1600,0.614
59.2000,0.597
59.2400,0.593
59.2800,0.603
59.3200,0.630
59.3600,0.623
59.4000,0.630
59.4400,0.618
59.4800,0.627
59.5200,0.577
59.5600,0.625
59.6000,0.631
59.6400,0.623
59.6800,0.590
59.7200,0.615
59.7600,0.606
59.8000,0.621
59.8400,0.647
59.8800,0.585
59.9200,0.641
59.9600,0.597
60.0000,0.618
60.0400,0.597
60.0800,0.630
60.1200,0.622
60.1600,0.613
60.2000,0.566
60.2400,0.611
60.2800,0.591
60.3200,0.621
60.3600,0.580
60.4000,0.598
60.4400,0.628
60.4800,0.653
60.5200,0.621
60.5600,0.598
60.6000,0.605
60.6400,0.593
60.6800,0.589
60.7200,0.622
60.7600,0.616
60.8000,0.607
60.8400,0.626
60.8800,0.612
60.9200,0.610
60.9600,0.606
61.0000,0.612
61.0400,0.578
61.0800,0.599
61.1200,0.590
61.1600,0.593
61.2000,0.578
61.2400,0.624
61.2800,0.586
61.3200,0.613
61.3600,0.553
61.4000,0.601
61.4400,0.573
61.4800,0.592
61.5200,0.555
61.5600,0.592
61.6000,0.606
61.6400,0.644
61.6800,0.682
61.7200,0.648
61.7600,0.598
61.8000,0.606
61.8400,0.628
61.8800,0.577
61.9200,0.598
61.9600,0.563
62.0000,0.568
62.0400,0.558
62.0800,0.567
62.1200,0.601
62.1600,0.580
62.2000,0.572
62.2400,0.559
62.2800,0.620
62.3200,0.578
62.3600,0.561
62.4000,0.589
62.4400,0.604
62.4800,0.607
62.5200,0.606
62.5600,0.564
62.6000,0.621
62.6400,0.587
62.6800,0.622
62.7200,0.569
62.7600,0.594
62.8000,0.559
62.8400,0.602
62.8800,0.611
62.9200,0.606
62.9600,0.581
63.0000,0.586
63.0400,0.590
63.0800,0.552
63.1200,0.622
63.1600,0.555
63.2000,0.623
63.2400,0.603
63.2800,0.626
63.3200,0.639
63.3600,0.624
63.4000,0.624
63.4400,0.680
63.4800,0.699
63.5200,0.650
63.5600,0.740
63.6000,0.732
63.6400,0.770
63.6800,0.793
63.7200,0.797
63.7600,0.870
63.8000,0.878
63.8400,1.025
63.8800,0.968
63.9200,1.059
63.9600,1.044
64.0000,1.086
64.0400,1.083
64.0800,1.056
64.1200,1.028
64.1600,1.055
64.2000,0.947
64.2400,0.969
64.2800,0.897
64.3200,0.902
64.3600,0.886
64.4000,0.873
64.4400,0.799
64.4800,0.836
64.5200,0.779
64.5600,0.844
64.6000,0.789
64.6400,0.790
64.6800,0.733
64.7200,0.733
64.7600,0.744
64.8000,0.726
64.8400,0.776
64.8800,0.695
64.9200,0.735
64.9600,0.743
65.0000,0.763
65.0400,0.731
65.0800,0.746
65.1200,0.700
65.1600,0.717
65.2000,0.727
65.2400,0.737
65.2800,0.755
65.3200,0.804
65.3600,0.786
65.4000,0.810
65.4400,0.786
65.4800,0.814
65.5200,0.860
65.5600,0.848
65.6000,0.845
65.6400,0.868
65.6800,0.862
65.7200,0.924
65.7600,0.985
65.8000,0.921
65.8400,0.910
65.8800,0.861
65.9200,0.899
65.9600,0.855
66.0000,0.907
66.0400,0.852
66.0800,0.856
66.1200,0.851
66.1600,0.813
66.2000,0.846
66.2400,0.806
66.2800,0.813
66.3200,0.782
66.3600,0.845
66.4000,0.829
66.4400,0.818
66.4800,0.807
66.5200,0.816
66.5600,0.860
66.6000,0.854
66.6400,0.855
66.6800,0.873
66.7200,0.865
66.7600,0.833
66.8000,0.890
66.8400,0.958
66.8800,0.908
66.9200,0.887
66.9600,0.938
67.0000,0.999
67.0400,0.937
67.0800,0.933
67.1200,1.000
67.1600,0.991
67.2000,0.967
67.2400,1.031
67.2800,0.980
67.3200,1.044
67.3600,1.045
67.4000,1.044
67.4400,1.134
67.4800,1.115
67.5200,1.104
67.5600,1.138
67.6000,1.183
67.6400,1.197
67.6800,1.233
67.7200,1.195
67.7600,1.250
67.8000,1.301
67.8400,1.212
67.8800,1.365
67.9200,1.379
67.9600,1.447
68.0000,1.478
68.0400,1.475
68.0800,1.526
68.1200,1.627
68.1600,1.557
68.2000,1.688
68.2400,1.681
68.2800,1.724
68.3200,1.794
68.3600,1.805
68.4000,1.997
68.4400,1.979
68.4800,2.150
68.5200,2.233
68.5600,2.393
68.6000,2.505
68.6400,2.776
68.6800,3.147
68.7200,3.926
68.7600,4.957
68.8000,6.067
68.8400,6.294
68.8800,6.560
68.9200,7.431
68.9600,9.926
69.0000,15.769
69.0400,32.426
69.0800,128.253
69.1200,383.593
69.1600,362.676
69.2000,117.175
69.2400,44.060
69.2800,85.686
69.3200,202.894
69.3600,178.108
69.4000,58.390
69.4400,18.224
69.4800,10.392
69.5200,7.607
69.5600,5.809
69.6000,4.976
69.6400,4.386
69.6800,3.817
69.7200,3.534
69.7600,3.187
69.8000,2.975
69.8400,2.684
69.8800,2.540
69.9200,2.397
69.9600,2.301
70.0000,2.305
70.0400,2.083
70.0800,2.050
70.1200,1.952
70.1600,1.978
70.2000,1.899
70.2400,1.720
70.2800,1.767
70.3200,1.726
70.3600,1.680
70.4000,1.571
70.4400,1.560
70.4800,1.501
70.5200,1.483
70.5600,1.463
70.6000,1.425
70.6400,1.329
70.6800,1.333
70.7200,1.340
70.7600,1.294
70.8000,1.255
70.8400,1.226
70.8800,1.255
70.9200,1.209
70.9600,1.240
71.0000,1.178
71.0400,1.251
71.0800,1.241
71.1200,1.262
71.1600,1.247
71.2000,1.351
71.2400,1.365
71.2800,1.485
71.3200,1.573
71.3600,1.587
71.4000,1.603
71.4400,1.569
71.4800,1.547
71.5200,1.551
71.5600,1.491
71.6000,1.489
71.6400,1.491
71.6800,1.433
71.7200,1.393
71.7600,1.264
71.8000,1.203
71.8400,1.214
71.8800,1.117
71.9200,1.121
71.9600,1.093
72.0000,1.023
72.0400,0.994
72.0800,0.955
72.1200,0.909
72.1600,0.962
72.2000,0.888
72.2400,0.904
72.2800,0.878
72.3200,0.835
72.3600,0.796
72.4000,0.779
72.4400,0.786
72.4800,0.750
72.5200,0.672
72.5600,0.690
72.6000,0.680
72.6400,0.660
72.6800,0.598
72.7200,0.556
72.7600,0.615
72.8000,0.582
72.8400,0.650
72.8800,0.582
72.9200,0.617
72.9600,0.577
73.0000,0.599
73.0400,0.584
73.0800,0.607
73.1200,0.551
73.1600,0.519
73.2000,0.526
73.2400,0.499
73.2800,0.499
73.3200,0.507
73.3600,0.502
73.4000,0.515
73.4400,0.526
73.4800,0.487
73.5200,0.513
73.5600,0.509
73.6000,0.492
73.6400,0.487
73.6800,0.530
73.7200,0.492
73.7600,0.493
73.8000,0.466
73.8400,0.489
73.8800,0.512
73.9200,0.506
73.9600,0.501
74.0000,0.474
74.0400,0.425
74.0800,0.451
74.1200,0.472
74.1600,0.481
74.2000,0.466
74.2400,0.459
74.2800,0.494
74.3200,0.437
74.3600,0.463
74.4000,0.480
74.4400,0.480
74.4800,0.429
74.5200,0.501
74.5600,0.494
74.6000,0.470
74.6400,0.491
74.6800,0.503
74.7200,0.467
74.7600,0.483
74.8000,0.514
74.8400,0.487
74.8800,0.494
74.9200,0.483
74.9600,0.468
75.0000,0.551
75.0400,0.534
75.0800,0.540
75.1200,0.535
75.1600,0.547
75.2000,0.503
75.2400,0.530
75.2800,0.535
75.3200,0.546
75.3600,0.519
75.4000,0.552
75.4400,0.558
75.4800,0.551
75.5200,0.529
75.5600,0.494
75.6000,0.501
75.6400,0.513
75.6800,0.499
75.7200,0.485
75.7600,0.527
75.8000,0.528
75.8400,0.482
75.8800,0.498
75.9200,0.452
75.9600,0.485
76.0000,0.479
76.0400,0.487
76.0800,0.484
76.1200,0.479
76.1600,0.483
76.2000,0.466
76.2400,0.411
76.2800,0.472
76.3200,0.411
76.3600,0.425
76.4000,0.417
76.4400,0.456
76.4800,0.468
76.5200,0.440
76.5600,0.447
76.6000,0.469
76.6400,0.432
76.6800,0.404
76.7200,0.443
76.7600,0.405
76.8000,0.426
76.8400,0.409
76.8800,0.409
76.9200,0.466
76.9600,0.468
77.0000,0.445
77.0400,0.445
77.0800,0.440
77.1200,0.430
77.1600,0.404
77.2000,0.434
77.2400,0.437
77.2800,0.403
77.3200,0.419
77.3600,0.437
77.4000,0.455
77.4400,0.402
77.4800,0.449
77.5200,0.444
77.5600,0.484
77.6000,0.506
77.6400,0.447
77.6800,0.454
77.7200,0.459
77.7600,0.463
77.8000,0.518
77.8400,0.493
77.8800,0.462
77.9200,0.524
77.9600,0.480
78.0000,0.459
78.0400,0.499
78.0800,0.489
78.1200,0.524
78.1600,0.530
78.2000,0.526
78.2400,0.536
78.2800,0.587
78.3200,0.587
78.3600,0.592
78.4000,0.611
78.4400,0.649
78.4800,0.648
78.5200,0.647
78.5600,0.704
78.6000,0.718
78.6400,0.729
78.6800,0.753
78.7200,0.763
78.7600,0.735
78.8000,0.686
78.8400,0.645
78.8800,0.603
78.9200,0.598
78.9600,0.594
79.0000,0.566
79.0400,0.545
79.0800,0.488
79.1200,0.480
79.1600,0.447
79.2000,0.407
79.2400,0.421
79.2800,0.413
79.3200,0.393
79.3600,0.443
79.4000,0.426
79.4400,0.405
79.4800,0.391
79.5200,0.408
79.5600,0.388
79.6000,0.383
79.6400,0.406
79.6800,0.391
79.7200,0.407
79.7600,0.380
79.8000,0.386
79.8400,0.376
79.8800,0.384
79.9200,0.386
79.9600,0.421
80.0000,0.384
