theta,intensity
5.0000,5.920
5.0400,5.909
5.0800,5.879
5.1200,5.850
5.1600,5.785
5.2000,5.847
5.2400,5.734
5.2800,5.736
5.3200,5.617
5.3600,5.613
5.4000,5.547
5.4400,5.626
5.4800,5.586
5.5200,5.427
5.5600,5.318
5.6000,5.357
5.6400,5.194
5.6800,5.239
5.7200,5.157
5.7600,5.053
5.8000,4.893
5.8400,4.949
5.8800,4.816
5.9200,4.905
5.9600,4.611
6.0000,4.585
6.0400,4.512
6.0800,4.441
6.1200,4.356
6.1600,4.436
6.2000,4.372
6.2400,4.288
6.2800,4.330
6.3200,4.378
6.3600,4.346
6.4000,4.216
6.4400,4.248
6.4800,4.144
6.5200,4.286
6.5600,4.133
6.6000,4.232
6.6400,4.006
6.6800,4.064
6.7200,4.135
6.7600,4.162
6.8000,4.047
6.8400,4.179
6.8800,4.091
6.9200,4.069
6.9600,4.089
7.0000,4.090
7.0400,4.121
7.0800,4.096
7.1200,4.186
7.1600,3.992
7.2000,4.059
7.2400,4.051
7.2800,4.089
7.3200,3.946
7.3600,4.031
7.4000,3.987
7.4400,4.086
7.4800,3.988
7.5200,3.959
7.5600,3.944
7.6000,4.106
7.6400,3.947
7.6800,4.026
7.7200,3.939
7.7600,4.005
7.8000,4.100
7.8400,3.895
7.8800,4.005
7.9200,3.929
7.9600,3.942
8.0000,3.859
8.0400,3.974
8.0800,4.077
8.1200,3.979
8.1600,3.962
8.2000,3.926
8.2400,3.898
8.2800,3.911
8.3200,3.821
8.3600,3.928
8.4000,3.869
8.4400,3.828
8.4800,3.844
8.5200,3.907
8.5600,3.898
8.6000,3.903
8.6400,3.960
8.6800,3.859
8.7200,3.815
8.7600,3.872
8.8000,3.807
8.8400,3.961
8.8800,3.816
8.9200,3.856
8.9600,3.790
9.0000,3.803
9.0400,3.691
9.0800,3.802
9.1200,3.870
9.1600,3.863
9.2000,3.817
9.2400,3.821
9.2800,3.771
9.3200,3.721
9.3600,3.845
9.4000,3.712
9.4400,3.843
9.4800,3.749
9.5200,3.745
9.5600,3.788
9.6000,3.772
9.6400,3.772
9.6800,3.711
9.7200,3.665
9.7600,3.843
9.8000,3.759
9.8400,3.718
9.8800,3.783
9.9200,3.654
9.9600,3.795
10.0000,3.655
10.0400,3.724
10.0800,3.630
10.1200,3.753
10.1600,3.723
10.2000,3.713
10.2400,3.731
10.2800,3.645
10.3200,3.630
10.3600,3.650
10.4000,3.703
10.4400,3.684
10.4800,3.565
10.5200,3.795
10.5600,3.706
10.6000,3.524
10.6400,3.688
10.6800,3.639
10.7200,3.671
10.7600,3.602
10.8000,3.574
10.8400,3.548
10.8800,3.647
10.9200,3.534
10.9600,3.629
11.0000,3.679
11.0400,3.713
11.0800,3.533
11.1200,3.570
11.1600,3.628
11.2000,3.529
11.2400,3.603
11.2800,3.552
11.3200,3.559
11.3600,3.658
11.4000,3.489
11.4400,3.485
11.4800,3.488
11.5200,3.534
11.5600,3.647
11.6000,3.502
11.6400,3.365
11.6800,3.546
11.7200,3.580
11.7600,3.538
11.8000,3.561
11.8400,3.523
11.8800,3.447
11.9200,3.530
11.9600,3.585
12.0000,3.471
12.0400,3.391
12.0800,3.549
12.1200,3.527
12.1600,3.517
12.2000,3.447
12.2400,3.487
12.2800,3.467
12.3200,3.443
12.3600,3.494
12.4000,3.419
12.4400,3.408
12.4800,3.509
12.5200,3.445
12.5600,3.485
12.6000,3.392
12.6400,3.442
12.6800,3.382
12.7200,3.408
12.7600,3.455
12.8000,3.465
12.8400,3.460
12.8800,3.405
12.9200,3.396
12.9600,3.401
13.0000,3.486
13.0400,3.315
13.0800,3.341
13.1200,3.447
13.1600,3.455
13.2000,3.340
13.2400,3.401
13.2800,3.327
13.3200,3.322
13.3600,3.361
13.4000,3.322
13.4400,3.400
13.4800,3.349
13.5200,3.434
13.5600,3.238
13.6000,3.344
13.6400,3.333
13.6800,3.252
13.7200,3.258
13.7600,3.339
13.8000,3.306
13.8400,3.368
13.8800,3.367
13.9200,3.373
13.9600,3.217
14.0000,3.444
14.0400,3.323
14.0800,3.266
14.1200,3.317
14.1600,3.307
14.2000,3.346
14.2400,3.250
14.2800,3.279
14.3200,3.219
14.3600,3.239
14.4000,3.219
14.4400,3.170
14.4800,3.249
14.5200,3.222
14.5600,3.277
14.6000,3.216
14.6400,3.318
14.6800,3.253
14.7200,3.264
14.7600,3.253
14.8000,3.167
14.8400,3.225
14.8800,3.142
14.9200,3.240
14.9600,3.144
15.0000,3.154
15.0400,3.185
15.0800,3.195
15.1200,3.280
15.1600,3.249
15.2000,3.251
15.2400,3.134
15.2800,3.194
15.3200,3.212
15.3600,3.077
15.4000,3.135
15.4400,3.189
15.4800,3.100
15.5200,3.149
15.5600,3.133
15.6000,3.226
15.6400,3.051
15.6800,3.185
15.7200,3.179
15.7600,3.053
15.8000,3.196
15.8400,3.169
15.8800,3.110
15.9200,3.028
15.9600,3.228
16.0000,3.105
16.0400,3.020
16.0800,2.946
16.1200,3.099
16.1600,3.043
16.2000,3.082
16.2400,2.998
16.2800,3.075
16.3200,3.070
16.3600,3.038
16.4000,3.088
16.4400,2.985
16.4800,3.137
16.5200,3.093
16.5600,3.022
16.6000,3.048
16.6400,3.057
16.6800,3.046
16.7200,3.121
16.7600,3.027
16.8000,2.921
16.8400,3.065
16.8800,3.096
16.9200,3.032
16.9600,2.993
17.0000,3.121
17.0400,3.003
17.0800,3.009
17.1200,3.002
17.1600,3.016
17.2000,3.039
17.2400,2.956
17.2800,3.074
17.3200,3.103
17.3600,3.015
17.4000,3.093
17.4400,3.046
17.4800,2.933
17.5200,3.000
17.5600,2.917
17.6000,2.940
17.6400,2.908
17.6800,2.953
17.7200,2.977
17.7600,2.987
17.8000,2.921
17.8400,2.981
17.8800,2.902
17.9200,2.915
17.9600,2.884
18.0000,2.919
18.0400,2.848
18.0800,2.856
18.1200,2.901
18.1600,2.834
18.2000,2.823
18.2400,2.870
18.2800,2.858
18.3200,2.848
18.3600,2.910
18.4000,2.862
18.4400,2.851
18.4800,2.864
18.5200,2.843
18.5600,2.753
18.6000,2.800
18.6400,2.768
18.6800,2.854
18.7200,2.759
18.7600,2.895
18.8000,2.843
18.8400,2.790
18.8800,2.783
18.9200,2.797
18.9600,2.792
19.0000,2.886
19.0400,2.834
19.0800,2.835
19.1200,2.655
19.1600,2.843
19.2000,2.797
19.2400,2.739
19.2800,2.677
19.3200,2.859
19.3600,2.791
19.4000,2.757
19.4400,2.811
19.4800,2.729
19.5200,2.820
19.5600,2.826
19.6000,2.773
19.6400,2.737
19.6800,2.759
19.7200,2.798
19.7600,2.795
19.8000,2.739
19.8400,2.715
19.8800,2.692
19.9200,2.785
19.9600,2.726
20.0000,2.808
20.0400,2.744
20.0800,2.689
20.1200,2.725
20.1600,2.608
20.2000,2.716
20.2400,2.739
20.2800,2.727
20.3200,2.724
20.3600,2.749
20.4000,2.712
20.4400,2.725
20.4800,2.651
20.5200,2.690
20.5600,2.640
20.6000,2.687
20.6400,2.741
20.6800,2.696
20.7200,2.721
20.7600,2.659
20.8000,2.682
20.8400,2.727
20.8800,2.680
20.9200,2.671
20.9600,2.698
21.0000,2.694
21.0400,2.789
21.0800,2.783
21.1200,2.731
21.1600,2.693
21.2000,2.664
21.2400,2.712
21.2800,2.683
21.3200,2.690
21.3600,2.593
21.4000,2.714
21.4400,2.653
21.4800,2.686
21.5200,2.612
21.5600,2.672
21.6000,2.601
21.6400,2.649
21.6800,2.610
21.7200,2.601
21.7600,2.558
21.8000,2.608
21.8400,2.724
21.8800,2.616
21.9200,2.645
21.9600,2.580
22.0000,2.652
22.0400,2.641
22.0800,2.515
22.1200,2.597
22.1600,2.541
22.2000,2.592
22.2400,2.599
22.2800,2.554
22.3200,2.543
22.3600,2.605
22.4000,2.434
22.4400,2.583
22.4800,2.551
22.5200,2.480
22.5600,2.580
22.6000,2.568
22.6400,2.598
22.6800,2.468
22.7200,2.478
22.7600,2.508
22.8000,2.508
22.8400,2.522
22.8800,2.579
22.9200,2.494
22.9600,2.473
23.0000,2.418
23.0400,2.481
23.0800,2.409
23.1200,2.519
23.1600,2.439
23.2000,2.418
23.2400,2.393
23.2800,2.383
23.3200,2.434
23.3600,2.401
23.4000,2.484
23.4400,2.488
23.4800,2.393
23.5200,2.383
23.5600,2.400
23.6000,2.466
23.6400,2.429
23.6800,2.375
23.7200,2.455
23.7600,2.457
23.8000,2.418
23.8400,2.333
23.8800,2.350
23.9200,2.366
23.9600,2.399
24.0000,2.327
24.0400,2.343
24.0800,2.440
24.1200,2.381
24.1600,2.339
24.2000,2.388
24.2400,2.323
24.2800,2.347
24.3200,2.307
24.3600,2.334
24.4000,2.344
24.4400,2.305
24.4800,2.353
24.5200,2.309
24.5600,2.286
24.6000,2.325
24.6400,2.451
24.6800,2.408
24.7200,2.356
24.7600,2.286
24.8000,2.353
24.8400,2.300
24.8800,2.222
24.9200,2.268
24.9600,2.335
25.0000,2.343
25.0400,2.264
25.0800,2.310
25.1200,2.337
25.1600,2.266
25.2000,2.230
25.2400,2.265
25.2800,2.235
25.3200,2.257
25.3600,2.255
25.4000,2.283
25.4400,2.278
25.4800,2.178
25.5200,2.292
25.5600,2.261
25.6000,2.267
25.6400,2.306
25.6800,2.170
25.7200,2.199
25.7600,2.167
25.8000,2.241
25.8400,2.208
25.8800,2.229
25.9200,2.132
25.9600,2.207
26.0000,2.154
26.0400,2.213
26.0800,2.206
26.1200,2.184
26.1600,2.253
26.2000,2.210
26.2400,2.142
26.2800,2.143
26.3200,2.145
26.3600,2.169
26.4000,2.149
26.4400,2.191
26.4800,2.179
26.5200,2.192
26.5600,2.119
26.6000,2.192
26.6400,2.167
26.6800,2.139
26.7200,2.106
26.7600,2.131
26.8000,2.040
26.8400,2.094
26.8800,2.129
26.9200,2.176
26.9600,2.135
27.0000,2.070
27.0400,2.099
27.0800,2.129
27.1200,2.134
27.1600,2.179
27.2000,2.130
27.2400,2.156
27.2800,2.098
27.3200,2.129
27.3600,2.105
27.4000,2.071
27.4400,2.119
27.4800,2.106
27.5200,2.080
27.5600,2.117
27.6000,2.037
27.6400,2.071
27.6800,2.000
27.7200,2.058
27.7600,2.032
27.8000,2.041
27.8400,2.129
27.8800,2.059
27.9200,2.059
27.9600,1.991
28.0000,2.019
28.0400,2.031
28.0800,2.032
28.1200,2.070
28.1600,2.054
28.2000,2.012
28.2400,2.069
28.2800,2.009
28.3200,1.970
28.3600,2.037
28.4000,1.979
28.4400,2.052
28.4800,2.022
28.5200,1.958
28.5600,1.977
28.6000,2.038
28.6400,2.010
28.6800,2.027
28.7200,2.047
28.7600,1.941
28.8000,1.983
28.8400,2.018
28.8800,1.953
28.9200,1.986
28.9600,1.921
29.0000,2.017
29.0400,2.011
29.0800,1.990
29.1200,1.956
29.1600,1.966
29.2000,1.987
29.2400,1.982
29.2800,1.937
29.3200,1.944
29.3600,1.932
29.4000,1.940
29.4400,2.032
29.4800,1.968
29.5200,1.928
29.5600,1.957
29.6000,1.961
29.6400,1.800
29.6800,1.905
29.7200,1.863
29.7600,1.899
29.8000,1.953
29.8400,1.844
29.8800,1.981
29.9200,1.967
29.9600,1.962
30.0000,1.989
30.0400,1.939
30.0800,1.937
30.1200,1.914
30.1600,1.954
30.2000,2.045
30.2400,1.981
30.2800,1.967
30.3200,1.935
30.3600,2.020
30.4000,1.899
30.4400,2.064
30.4800,1.978
30.5200,1.947
30.5600,2.107
30.6000,2.086
30.6400,2.015
30.6800,1.939
30.7200,1.946
30.7600,1.945
30.8000,1.942
30.8400,1.965
30.8800,1.886
30.9200,1.873
30.9600,1.864
31.0000,1.953
31.0400,1.885
31.0800,1.898
31.1200,1.997
31.1600,1.959
31.2000,1.911
31.2400,1.917
31.2800,1.983
31.3200,1.946
31.3600,1.946
31.4000,1.880
31.4400,1.867
31.4800,1.935
31.5200,1.876
31.5600,1.908
31.6000,1.862
31.6400,1.840
31.6800,1.831
31.7200,1.934
31.7600,1.852
31.8000,1.805
31.8400,1.839
31.8800,1.815
31.9200,1.794
31.9600,1.765
32.0000,1.728
32.0400,1.809
32.0800,1.790
32.1200,1.768
32.1600,1.767
32.2000,1.740
32.2400,1.780
32.2800,1.808
32.3200,1.746
32.3600,1.758
32.4000,1.725
32.4400,1.772
32.4800,1.736
32.5200,1.699
32.5600,1.744
32.6000,1.790
32.6400,1.716
32.6800,1.746
32.7200,1.674
32.7600,1.618
32.8000,1.630
32.8400,1.699
32.8800,1.703
32.9200,1.711
32.9600,1.655
33.0000,1.639
33.0400,1.786
33.0800,1.732
33.1200,1.643
33.1600,1.704
33.2000,1.713
33.2400,1.709
33.2800,1.667
33.3200,1.662
33.3600,1.628
33.4000,1.618
33.4400,1.652
33.4800,1.601
33.5200,1.631
33.5600,1.561
33.6000,1.619
33.6400,1.690
33.6800,1.660
33.7200,1.574
33.7600,1.686
33.8000,1.591
33.8400,1.658
33.8800,1.610
33.9200,1.606
33.9600,1.631
34.0000,1.662
34.0400,1.651
34.0800,1.636
34.1200,1.585
34.1600,1.557
34.2000,1.574
34.2400,1.640
34.2800,1.637
34.3200,1.683
34.3600,1.653
34.4000,1.553
34.4400,1.676
34.4800,1.601
34.5200,1.679
34.5600,1.542
34.6000,1.612
34.6400,1.622
34.6800,1.597
34.7200,1.615
34.7600,1.582
34.8000,1.626
34.8400,1.576
34.8800,1.592
34.9200,1.589
34.9600,1.635
35.0000,1.556
35.0400,1.542
35.0800,1.589
35.1200,1.593
35.1600,1.639
35.2000,1.593
35.2400,1.599
35.2800,1.577
35.3200,1.597
35.3600,1.597
35.4000,1.580
35.4400,1.632
35.4800,1.574
35.5200,1.647
35.5600,1.549
35.6000,1.594
35.6400,1.653
35.6800,1.645
35.7200,1.603
35.7600,1.612
35.8000,1.676
35.8400,1.574
35.8800,1.613
35.9200,1.524
35.9600,1.587
36.0000,1.657
36.0400,1.706
36.0800,1.662
36.1200,1.637
36.1600,1.615
36.2000,1.619
36.2400,1.599
36.2800,1.698
36.3200,1.693
36.3600,1.667
36.4000,1.665
36.4400,1.618
36.4800,1.609
36.5200,1.699
36.5600,1.646
36.6000,1.660
36.6400,1.730
36.6800,1.702
36.7200,1.752
36.7600,1.719
36.8000,1.755
36.8400,1.638
36.8800,1.729
36.9200,1.712
36.9600,1.749
37.0000,1.776
37.0400,1.739
37.0800,1.806
37.1200,1.821
37.1600,1.858
37.2000,1.901
37.2400,1.847
37.2800,1.906
37.3200,1.936
37.3600,2.000
37.4000,1.993
37.4400,2.046
37.4800,2.115
37.5200,2.158
37.5600,2.181
37.6000,2.395
37.6400,2.522
37.6800,2.547
37.7200,2.709
37.7600,2.813
37.8000,3.076
37.8400,3.303
37.8800,3.681
37.9200,3.976
37.9600,4.426
38.0000,4.990
38.0400,5.821
38.0800,6.944
38.1200,8.031
38.1600,9.154
38.2000,10.175
38.2400,10.833
38.2800,10.926
38.3200,10.745
38.3600,10.197
38.4000,9.467
38.4400,8.868
38.4800,8.200
38.5200,7.346
38.5600,6.702
38.6000,6.033
38.6400,5.284
38.6800,4.818
38.7200,4.322
38.7600,3.967
38.8000,3.704
38.8400,3.350
38.8800,3.148
38.9200,2.898
38.9600,2.763
39.0000,2.646
39.0400,2.574
39.0800,2.426
39.1200,2.302
39.1600,2.269
39.2000,2.222
39.2400,2.239
39.2800,2.221
39.3200,2.235
39.3600,2.209
39.4000,2.235
39.4400,2.290
39.4800,2.195
39.5200,2.227
39.5600,2.150
39.6000,2.120
39.6400,1.963
39.6800,1.850
39.7200,1.846
39.7600,1.819
39.8000,1.732
39.8400,1.719
39.8800,1.715
39.9200,1.649
39.9600,1.711
40.0000,1.622
40.0400,1.649
40.0800,1.624
40.1200,1.567
40.1600,1.590
40.2000,1.513
40.2400,1.560
40.2800,1.622
40.3200,1.526
40.3600,1.510
40.4000,1.506
40.4400,1.527
40.4800,1.527
40.5200,1.538
40.5600,1.427
40.6000,1.468
40.6400,1.491
40.6800,1.496
40.7200,1.505
40.7600,1.465
40.8000,1.366
40.8400,1.447
40.8800,1.455
40.9200,1.351
40.9600,1.419
41.0000,1.411
41.0400,1.429
41.0800,1.462
41.1200,1.401
41.1600,1.382
41.2000,1.450
41.2400,1.383
41.2800,1.349
41.3200,1.463
41.3600,1.396
41.4000,1.411
41.4400,1.417
41.4800,1.400
41.5200,1.367
41.5600,1.326
41.6000,1.345
41.6400,1.362
41.6800,1.334
41.7200,1.406
41.7600,1.348
41.8000,1.350
41.8400,1.343
41.8800,1.323
41.9200,1.325
41.9600,1.348
42.0000,1.326
42.0400,1.382
42.0800,1.355
42.1200,1.341
42.1600,1.303
42.2000,1.388
42.2400,1.340
42.2800,1.401
42.3200,1.411
42.3600,1.300
42.4000,1.326
42.4400,1.325
42.4800,1.368
42.5200,1.371
42.5600,1.398
42.6000,1.375
42.6400,1.403
42.6800,1.365
42.7200,1.388
42.7600,1.475
42.8000,1.470
42.8400,1.479
42.8800,1.532
42.9200,1.546
42.9600,1.481
43.0000,1.512
43.0400,1.566
43.0800,1.621
43.1200,1.461
43.1600,1.525
43.2000,1.554
43.2400,1.576
43.2800,1.579
43.3200,1.632
43.3600,1.574
43.4000,1.573
43.4400,1.625
43.4800,1.600
43.5200,1.654
43.5600,1.636
43.6000,1.686
43.6400,1.647
43.6800,1.625
43.7200,1.609
43.7600,1.668
43.8000,1.724
43.8400,1.702
43.8800,1.711
43.9200,1.750
43.9600,1.684
44.0000,1.767
44.0400,1.787
44.0800,1.741
44.1200,1.832
44.1600,1.891
44.2000,1.879
44.2400,1.942
44.2800,1.882
44.3200,1.993
44.3600,1.942
44.4000,1.972
44.4400,2.049
44.4800,2.127
44.5200,2.178
44.5600,2.174
44.6000,2.267
44.6400,2.293
44.6800,2.231
44.7200,2.342
44.7600,2.293
44.8000,2.327
44.8400,2.338
44.8800,2.364
44.9200,2.370
44.9600,2.371
45.0000,2.378
45.0400,2.251
45.0800,2.276
45.1200,2.227
45.1600,2.288
45.2000,2.121
45.2400,2.068
45.2800,2.078
45.3200,1.904
45.3600,1.817
45.4000,1.854
45.4400,1.659
45.4800,1.553
45.5200,1.520
45.5600,1.572
45.6000,1.489
45.6400,1.399
45.6800,1.420
45.7200,1.311
45.7600,1.271
45.8000,1.282
45.8400,1.255
45.8800,1.229
45.9200,1.237
45.9600,1.180
46.0000,1.167
46.0400,1.181
46.0800,1.193
46.1200,1.061
46.1600,1.160
46.2000,1.181
46.2400,1.033
46.2800,1.118
46.3200,1.099
46.3600,1.066
46.4000,1.015
46.4400,1.082
46.4800,1.034
46.5200,1.055
46.5600,1.077
46.6000,0.960
46.6400,1.053
46.6800,1.054
46.7200,0.997
46.7600,1.005
46.8000,1.073
46.8400,0.980
46.8800,1.023
46.9200,0.974
46.9600,1.012
47.0000,0.965
47.0400,1.011
47.0800,0.968
47.1200,0.944
47.1600,0.937
47.2000,0.952
47.2400,0.939
47.2800,0.913
47.3200,0.915
47.3600,0.929
47.4000,0.883
47.4400,0.936
47.4800,0.874
47.5200,0.925
47.5600,0.935
47.6000,0.927
47.6400,0.888
47.6800,0.925
47.7200,0.935
47.7600,0.936
47.8000,0.943
47.8400,0.904
47.8800,0.930
47.9200,0.891
47.9600,0.890
48.0000,0.925
48.0400,0.842
48.0800,0.902
48.1200,0.898
48.1600,0.896
48.2000,0.896
48.2400,0.868
48.2800,0.848
48.3200,0.859
48.3600,0.875
48.4000,0.906
48.4400,0.878
48.4800,0.887
48.5200,0.858
48.5600,0.850
48.6000,0.847
48.6400,0.885
48.6800,0.836
48.7200,0.867
48.7600,0.867
48.8000,0.886
48.8400,0.883
48.8800,0.857
48.9200,0.877
48.9600,0.876
49.0000,0.895
49.0400,0.839
49.0800,0.851
49.1200,0.841
49.1600,0.849
49.2000,0.861
49.2400,0.898
49.2800,0.799
49.3200,0.844
49.3600,0.809
49.4000,0.832
49.4400,0.860
49.4800,0.879
49.5200,0.893
49.5600,0.860
49.6000,0.826
49.6400,0.892
49.6800,0.851
49.7200,0.855
49.7600,0.794
49.8000,0.833
49.8400,0.747
49.8800,0.830
49.9200,0.831
49.9600,0.790
50.0000,0.830
50.0400,0.847
50.0800,0.807
50.1200,0.825
50.1600,0.825
50.2000,0.869
50.2400,0.847
50.2800,0.846
50.3200,0.854
50.3600,0.853
50.4000,0.862
50.4400,0.819
50.4800,0.847
50.5200,0.883
50.5600,0.830
50.6000,0.772
50.6400,0.796
50.6800,0.861
50.7200,0.827
50.7600,0.847
50.8000,0.839
50.8400,0.776
50.8800,0.811
50.9200,0.812
50.9600,0.871
51.0000,0.874
51.0400,0.822
51.0800,0.808
51.1200,0.827
51.1600,0.778
51.2000,0.805
51.2400,0.832
51.2800,0.787
51.3200,0.768
51.3600,0.795
51.4000,0.790
51.4400,0.797
51.4800,0.858
51.5200,0.783
51.5600,0.778
51.6000,0.804
51.6400,0.784
51.6800,0.765
51.7200,0.781
51.7600,0.771
51.8000,0.754
51.8400,0.789
51.8800,0.695
51.9200,0.765
51.9600,0.797
52.0000,0.786
52.0400,0.754
52.0800,0.702
52.1200,0.743
52.1600,0.767
52.2000,0.754
52.2400,0.763
52.2800,0.752
52.3200,0.746
52.3600,0.755
52.4000,0.726
52.4400,0.698
52.4800,0.760
52.5200,0.736
52.5600,0.719
52.6000,0.741
52.6400,0.753
52.6800,0.719
52.7200,0.764
52.7600,0.706
52.8000,0.704
52.8400,0.726
52.8800,0.744
52.9200,0.692
52.9600,0.690
53.0000,0.768
53.0400,0.768
53.0800,0.711
53.1200,0.715
53.1600,0.725
53.2000,0.702
53.2400,0.765
53.2800,0.726
53.3200,0.721
53.3600,0.724
53.4000,0.763
53.4400,0.733
53.4800,0.787
53.5200,0.677
53.5600,0.733
53.6000,0.701
53.6400,0.674
53.6800,0.734
53.7200,0.734
53.7600,0.745
53.8000,0.700
53.8400,0.693
53.8800,0.724
53.9200,0.725
53.9600,0.746
54.0000,0.717
54.0400,0.717
54.0800,0.694
54.1200,0.768
54.1600,0.685
54.2000,0.751
54.2400,0.773
54.2800,0.698
54.3200,0.712
54.3600,0.702
54.4000,0.680
54.4400,0.681
54.4800,0.691
54.5200,0.710
54.5600,0.703
54.6000,0.721
54.6400,0.700
54.6800,0.688
54.7200,0.688
54.7600,0.670
54.8000,0.703
54.8400,0.699
54.8800,0.716
54.9200,0.663
54.9600,0.687
55.0000,0.726
55.0400,0.692
55.0800,0.672
55.1200,0.664
55.1600,0.665
55.2000,0.684
55.2400,0.661
55.2800,0.683
55.3200,0.701
55.3600,0.718
55.4000,0.678
55.4400,0.709
55.4800,0.684
55.5200,0.668
55.5600,0.665
55.6000,0.664
55.6400,0.662
55.6800,0.670
55.7200,0.667
55.7600,0.672
55.8000,0.670
55.8400,0.689
55.8800,0.643
55.9200,0.676
55.9600,0.697
56.0000,0.662
56.0400,0.706
56.0800,0.640
56.1200,0.655
56.1600,0.651
56.2000,0.670
56.2400,0.685
56.2800,0.686
56.3200,0.646
56.3600,0.693
56.4000,0.658
56.4400,0.676
56.4800,0.659
56.5200,0.601
56.5600,0.650
56.6000,0.614
56.6400,0.675
56.6800,0.687
56.7200,0.672
56.7600,0.717
56.8000,0.690
56.8400,0.661
56.8800,0.707
56.9200,0.687
56.9600,0.687
57.0000,0.687
57.0400,0.704
57.0800,0.698
57.1200,0.686
57.1600,0.712
57.2000,0.684
57.2400,0.694
57.2800,0.647
57.3200,0.651
57.3600,0.728
57.4000,0.646
57.4400,0.705
57.4800,0.633
57.5200,0.634
57.5600,0.606
57.6000,0.632
57.6400,0.616
57.6800,0.632
57.7200,0.667
57.7600,0.651
57.8000,0.630
57.8400,0.664
57.8800,0.599
57.9200,0.625
57.9600,0.636
58.0000,0.630
58.0400,0.654
58.0800,0.611
58.1200,0.631
58.1600,0.609
58.2000,0.656
58.2400,0.675
58.2800,0.613
58.3200,0.625
58.3600,0.616
58.4000,0.582
58.4400,0.610
58.4800,0.635
58.5200,0.605
58.5600,0.637
58.6000,0.609
58.6400,0.618
58.6800,0.609
58.7200,0.590
58.7600,0.583
58.8000,0.607
58.8400,0.639
58.8800,0.588
58.9200,0.593
58.9600,0.629
59.0000,0.639
59.0400,0.594
59.0800,0.616
59.1200,0.614
59.1600,0.624
59.2000,0.568
59.2400,0.607
59.2800,0.611
59.3200,0.601
59.3600,0.588
59.4000,0.593
59.4400,0.574
59.4800,0.609
59.5200,0.562
59.5600,0.598
59.6000,0.588
59.6400,0.626
59.6800,0.631
59.7200,0.631
59.7600,0.603
59.8000,0.583
59.8400,0.556
59.8800,0.592
59.9200,0.618
59.9600,0.561
60.0000,0.566
60.0400,0.645
60.0800,0.623
60.1200,0.596
60.1600,0.573
60.2000,0.564
60.2400,0.590
60.2800,0.567
60.3200,0.619
60.3600,0.601
60.4000,0.565
60.4400,0.569
60.4800,0.633
60.5200,0.576
60.5600,0.617
60.6000,0.584
60.6400,0.584
60.6800,0.596
60.7200,0.596
60.7600,0.614
60.8000,0.607
60.8400,0.505
60.8800,0.559
60.9200,0.581
60.9600,0.579
61.0000,0.578
61.0400,0.579
61.0800,0.580
61.1200,0.606
61.1600,0.598
61.2000,0.584
61.2400,0.607
61.2800,0.553
61.3200,0.601
61.3600,0.611
61.4000,0.606
61.4400,0.582
61.4800,0.585
61.5200,0.557
61.5600,0.571
61.6000,0.615
61.6400,0.633
61.6800,0.651
61.7200,0.611
61.7600,0.606
61.8000,0.588
61.8400,0.580
61.8800,0.603
61.9200,0.609
61.9600,0.564
62.0000,0.576
62.0400,0.573
62.0800,0.547
62.1200,0.581
62.1600,0.576
62.2000,0.584
62.2400,0.580
62.2800,0.591
62.3200,0.573
62.3600,0.583
62.4000,0.590
62.4400,0.585
62.4800,0.577
62.5200,0.552
62.5600,0.583
62.6000,0.567
62.6400,0.602
62.6800,0.580
62.7200,0.583
62.7600,0.616
62.8000,0.583
62.8400,0.579
62.8800,0.611
62.9200,0.592
62.9600,0.618
63.0000,0.611
63.0400,0.631
63.0800,0.629
63.1200,0.607
63.1600,0.641
63.2000,0.636
63.2400,0.616
63.2800,0.662
63.3200,0.615
63.3600,0.618
63.4000,0.629
63.4400,0.624
63.4800,0.636
63.5200,0.626
63.5600,0.686
63.6000,0.686
63.6400,0.712
63.6800,0.734
63.7200,0.739
63.7600,0.748
63.8000,0.768
63.8400,0.790
63.8800,0.771
63.9200,0.814
63.9600,0.862
64.0000,0.878
64.0400,0.879
64.0800,0.908
64.1200,0.964
64.1600,0.990
64.2000,0.970
64.2400,1.077
64.2800,1.084
64.3200,1.093
64.3600,1.037
64.4000,1.109
64.4400,1.134
64.4800,1.099
64.5200,1.101
64.5600,1.097
64.6000,1.050
64.6400,1.122
64.6800,1.120
64.7200,1.144
64.7600,1.116
64.8000,1.202
64.8400,1.175
64.8800,1.184
64.9200,1.181
64.9600,1.201
65.0000,1.160
65.0400,1.209
65.0800,1.250
65.1200,1.191
65.1600,1.185
65.2000,1.246
65.2400,1.170
65.2800,1.163
65.3200,1.191
65.3600,1.199
65.4000,1.127
65.4400,1.135
65.4800,1.114
65.5200,1.083
65.5600,1.096
65.6000,1.115
65.6400,1.077
65.6800,1.045
65.7200,1.035
65.7600,1.012
65.8000,0.998
65.8400,0.945
65.8800,0.931
65.9200,0.958
65.9600,0.906
66.0000,0.887
66.0400,0.876
66.0800,0.916
66.1200,0.879
66.1600,0.838
66.2000,0.878
66.2400,0.896
66.2800,0.878
66.3200,0.888
66.3600,0.846
66.4000,0.874
66.4400,0.847
66.4800,0.877
66.5200,0.907
66.5600,0.889
66.6000,0.891
66.6400,0.893
66.6800,0.935
66.7200,0.848
66.7600,0.928
66.8000,0.892
66.8400,0.966
66.8800,0.926
66.9200,0.939
66.9600,0.915
67.0000,0.942
67.0400,0.930
67.0800,0.989
67.1200,1.062
67.1600,1.072
67.2000,0.982
67.2400,1.047
67.2800,1.065
67.3200,1.087
67.3600,1.165
67.4000,1.126
67.4400,1.147
67.4800,1.143
67.5200,1.156
67.5600,1.142
67.6000,1.159
67.6400,1.190
67.6800,1.216
67.7200,1.260
67.7600,1.379
67.8000,1.402
67.8400,1.369
67.8800,1.437
67.9200,1.440
67.9600,1.477
68.0000,1.539
68.0400,1.533
68.0800,1.572
68.1200,1.613
68.1600,1.674
68.2000,1.710
68.2400,1.732
68.2800,1.805
68.3200,1.917
68.3600,1.972
68.4000,2.053
68.4400,2.150
68.4800,2.232
68.5200,2.342
68.5600,2.488
68.6000,2.717
68.6400,2.822
68.6800,3.382
68.7200,4.016
68.7600,5.215
68.8000,6.353
68.8400,6.699
68.8800,6.692
68.9200,7.541
68.9600,9.914
69.0000,16.100
69.0400,31.699
69.0800,127.225
69.1200,401.829
69.1600,382.929
69.2000,124.006
69.2400,44.892
69.2800,86.075
69.3200,213.399
69.3600,189.522
69.4000,61.735
69.4400,19.007
69.4800,10.641
69.5200,7.717
69.5600,6.212
69.6000,5.021
69.6400,4.340
69.6800,4.027
69.7200,3.564
69.7600,3.192
69.8000,3.057
69.8400,2.829
69.8800,2.674
69.9200,2.495
69.9600,2.384
70.0000,2.381
70.0400,2.170
70.0800,2.159
70.1200,1.990
70.1600,1.957
70.2000,1.896
70.2400,1.834
70.2800,1.791
70.3200,1.730
70.3600,1.716
70.4000,1.628
70.4400,1.543
70.4800,1.531
70.5200,1.512
70.5600,1.385
70.6000,1.375
70.6400,1.345
70.6800,1.338
70.7200,1.280
70.7600,1.271
70.8000,1.231
70.8400,1.266
70.8800,1.204
70.9200,1.180
70.9600,1.138
71.0000,1.079
71.0400,1.101
71.0800,1.061
71.1200,1.047
71.1600,0.991
71.2000,0.969
71.2400,0.952
71.2800,0.992
71.3200,0.925
71.3600,0.935
71.4000,0.965
71.4400,0.951
71.4800,0.903
71.5200,0.913
71.5600,0.878
71.6000,0.894
71.6400,0.908
71.6800,0.864
71.7200,0.848
71.7600,0.784
71.8000,0.807
71.8400,0.793
71.8800,0.816
71.9200,0.703
71.9600,0.720
72.0000,0.726
72.0400,0.704
72.0800,0.736
72.1200,0.703
72.1600,0.699
72.2000,0.676
72.2400,0.659
72.2800,0.623
72.3200,0.659
72.3600,0.592
72.4000,0.605
72.4400,0.630
72.4800,0.624
72.5200,0.617
72.5600,0.579
72.6000,0.595
72.6400,0.572
72.6800,0.581
72.7200,0.549
72.7600,0.578
72.8000,0.578
72.8400,0.585
72.8800,0.548
72.9200,0.559
72.9600,0.530
73.0000,0.506
73.0400,0.503
73.0800,0.533
73.1200,0.528
73.1600,0.548
73.2000,0.529
73.2400,0.484
73.2800,0.470
73.3200,0.512
73.3600,0.500
73.4000,0.511
73.4400,0.457
73.4800,0.489
73.5200,0.488
73.5600,0.499
73.6000,0.501
73.6400,0.472
73.6800,0.477
73.7200,0.485
73.7600,0.484
73.8000,0.508
73.8400,0.441
73.8800,0.487
73.9200,0.477
73.9600,0.466
74.0000,0.460
74.0400,0.462
74.0800,0.471
74.1200,0.482
74.1600,0.434
74.2000,0.475
74.2400,0.433
74.2800,0.415
74.3200,0.438
74.3600,0.432
74.4000,0.450
74.4400,0.466
74.4800,0.451
74.5200,0.466
74.5600,0.449
74.6000,0.455
74.6400,0.426
74.6800,0.423
74.7200,0.455
74.7600,0.414
74.8000,0.443
74.8400,0.432
74.8800,0.420
74.9200,0.442
74.9600,0.406
75.0000,0.415
75.0400,0.463
75.0800,0.484
75.1200,0.440
75.1600,0.460
75.2000,0.467
75.2400,0.426
75.2800,0.473
75.3200,0.489
75.3600,0.416
75.4000,0.457
75.4400,0.461
75.4800,0.428
75.5200,0.459
75.5600,0.463
75.6000,0.417
75.6400,0.498
75.6800,0.449
75.7200,0.470
75.7600,0.458
75.8000,0.482
75.8400,0.454
75.8800,0.451
75.9200,0.470
75.9600,0.499
76.0000,0.469
76.0400,0.476
76.0800,0.448
76.1200,0.473
76.1600,0.488
76.2000,0.540
76.2400,0.506
76.2800,0.478
76.3200,0.467
76.3600,0.487
76.4000,0.486
76.4400,0.485
76.4800,0.504
76.5200,0.503
76.5600,0.480
76.6000,0.530
76.6400,0.531
76.6800,0.459
76.7200,0.513
76.7600,0.505
76.8000,0.562
76.8400,0.575
76.8800,0.540
76.9200,0.559
76.9600,0.561
77.0000,0.559
77.0400,0.524
77.0800,0.526
77.1200,0.601
77.1600,0.564
77.2000,0.568
77.2400,0.605
77.2800,0.590
77.3200,0.581
77.3600,0.627
77.4000,0.590
77.4400,0.616
77.4800,0.626
77.5200,0.649
77.5600,0.642
77.6000,0.686
77.6400,0.698
77.6800,0.710
77.7200,0.707
77.7600,0.712
77.8000,0.702
77.8400,0.752
77.8800,0.715
77.9200,0.836
77.9600,0.832
78.0000,0.811
78.0400,0.803
78.0800,0.746
78.1200,0.797
78.1600,0.857
78.2000,0.830
78.2400,0.856
78.2800,0.813
78.3200,0.881
78.3600,0.813
78.4000,0.797
78.4400,0.868
78.4800,0.817
78.5200,0.815
78.5600,0.826
78.6000,0.757
78.6400,0.796
78.6800,0.756
78.7200,0.696
78.7600,0.752
78.8000,0.726
78.8400,0.671
78.8800,0.645
78.9200,0.639
78.9600,0.690
79.0000,0.631
79.0400,0.562
79.0800,0.581
79.1200,0.588
79.1600,0.550
79.2000,0.546
79.2400,0.525
79.2800,0.497
79.3200,0.503
79.3600,0.469
79.4000,0.473
79.4400,0.485
79.4800,0.425
79.5200,0.434
79.5600,0.442
79.6000,0.436
79.6400,0.418
79.6800,0.417
79.7200,0.404
79.7600,0.431
79.8000,0.411
79.8400,0.397
79.8800,0.415
79.9200,0.422
79.9600,0.421
80.0000,0.391
