theta,intensity
5.0000,6.537
5.0400,6.465
5.0800,6.287
5.1200,6.501
5.1600,6.280
5.2000,6.243
5.2400,6.077
5.2800,6.054
5.3200,6.100
5.3600,6.058
5.4000,5.947
5.4400,5.930
5.4800,5.814
5.5200,5.740
5.5600,5.657
5.6000,5.576
5.6400,5.538
5.6800,5.494
5.7200,5.362
5.7600,5.204
5.8000,5.196
5.8400,5.165
5.8800,5.170
5.9200,4.969
5.9600,4.944
6.0000,5.029
6.0400,4.881
6.0800,4.778
6.1200,4.885
6.1600,4.695
6.2000,4.586
6.2400,4.550
6.2800,4.515
6.3200,4.324
6.3600,4.486
6.4000,4.334
6.4400,4.339
6.4800,4.273
6.5200,4.286
6.5600,4.303
6.6000,4.152
6.6400,4.273
6.6800,4.214
6.7200,4.159
6.7600,4.318
6.8000,4.171
6.8400,4.254
6.8800,4.211
6.9200,4.160
6.9600,4.184
7.0000,4.137
7.0400,4.129
7.0800,4.236
7.1200,4.141
7.1600,4.105
7.2000,4.165
7.2400,4.118
7.2800,4.006
7.3200,4.093
7.3600,4.188
7.4000,4.140
7.4400,4.073
7.4800,4.079
7.5200,4.021
7.5600,4.131
7.6000,4.007
7.6400,4.062
7.6800,3.983
7.7200,4.094
7.7600,3.957
7.8000,3.932
7.8400,3.940
7.8800,4.108
7.9200,3.964
7.9600,3.985
8.0000,3.962
8.0400,4.004
8.0800,4.011
8.1200,4.109
8.1600,3.895
8.2000,3.914
8.2400,3.900
8.2800,4.097
8.3200,4.022
8.3600,4.014
8.4000,4.028
8.4400,3.908
8.4800,3.858
8.5200,3.822
8.5600,3.927
8.6000,3.890
8.6400,3.870
8.6800,3.873
8.7200,3.901
8.7600,4.048
8.8000,3.861
8.8400,3.885
8.8800,3.965
8.9200,3.903
8.9600,3.844
9.0000,3.801
9.0400,3.907
9.0800,3.849
9.1200,3.879
9.1600,3.863
9.2000,3.705
9.2400,3.820
9.2800,3.728
9.3200,3.806
9.3600,3.759
9.4000,3.771
9.4400,3.793
9.4800,3.846
9.5200,3.837
9.5600,3.770
9.6000,3.698
9.6400,3.778
9.6800,3.715
9.7200,3.798
9.7600,3.749
9.8000,3.707
9.8400,3.824
9.8800,3.722
9.9200,3.807
9.9600,3.807
10.0000,3.689
10.0400,3.797
10.0800,3.735
10.1200,3.830
10.1600,3.714
10.2000,3.607
10.2400,3.687
10.2800,3.689
10.3200,3.723
10.3600,3.703
10.4000,3.770
10.4400,3.802
10.4800,3.582
10.5200,3.693
10.5600,3.646
10.6000,3.607
10.6400,3.689
10.6800,3.768
10.7200,3.589
10.7600,3.639
10.8000,3.692
10.8400,3.647
10.8800,3.663
10.9200,3.607
10.9600,3.680
11.0000,3.669
11.0400,3.570
11.0800,3.547
11.1200,3.628
11.1600,3.581
11.2000,3.563
11.2400,3.651
11.2800,3.687
11.3200,3.561
11.3600,3.542
11.4000,3.570
11.4400,3.607
11.4800,3.530
11.5200,3.527
11.5600,3.621
11.6000,3.600
11.6400,3.614
11.6800,3.595
11.7200,3.553
11.7600,3.537
11.8000,3.519
11.8400,3.550
11.8800,3.482
11.9200,3.594
11.9600,3.549
12.0000,3.521
12.0400,3.531
12.0800,3.527
12.1200,3.513
12.1600,3.466
12.2000,3.456
12.2400,3.455
12.2800,3.518
12.3200,3.524
12.3600,3.587
12.4000,3.454
12.4400,3.512
12.4800,3.516
12.5200,3.452
12.5600,3.458
12.6000,3.427
12.6400,3.495
12.6800,3.437
12.7200,3.391
12.7600,3.462
12.8000,3.476
12.8400,3.315
12.8800,3.463
12.9200,3.407
12.9600,3.380
13.0000,3.393
13.0400,3.406
13.0800,3.357
13.1200,3.376
13.1600,3.352
13.2000,3.397
13.2400,3.410
13.2800,3.433
13.3200,3.410
13.3600,3.371
13.4000,3.367
13.4400,3.410
13.4800,3.353
13.5200,3.309
13.5600,3.433
13.6000,3.339
13.6400,3.372
13.6800,3.332
13.7200,3.350
13.7600,3.324
13.8000,3.310
13.8400,3.426
13.8800,3.336
13.9200,3.344
13.9600,3.239
14.0000,3.273
14.0400,3.359
14.0800,3.269
14.1200,3.337
14.1600,3.278
14.2000,3.250
14.2400,3.296
14.2800,3.175
14.3200,3.242
14.3600,3.328
14.4000,3.319
14.4400,3.328
14.4800,3.317
14.5200,3.254
14.5600,3.356
14.6000,3.354
14.6400,3.319
14.6800,3.237
14.7200,3.344
14.7600,3.264
14.8000,3.270
14.8400,3.247
14.8800,3.194
14.9200,3.203
14.9600,3.190
15.0000,3.143
15.0400,3.208
15.0800,3.213
15.1200,3.176
15.1600,3.183
15.2000,3.213
15.2400,3.181
15.2800,3.235
15.3200,3.081
15.3600,3.175
15.4000,3.175
15.4400,3.217
15.4800,3.133
15.5200,3.163
15.5600,3.163
15.6000,3.113
15.6400,3.120
15.6800,3.192
15.7200,3.206
15.7600,3.088
15.8000,3.103
15.8400,3.166
15.8800,3.096
15.9200,3.090
15.9600,3.159
16.0000,3.175
16.0400,3.185
16.0800,3.021
16.1200,3.063
16.1600,3.103
16.2000,3.124
16.2400,3.135
16.2800,3.171
16.3200,3.066
16.3600,3.044
16.4000,3.151
16.4400,3.118
16.4800,3.030
16.5200,3.074
16.5600,3.090
16.6000,2.955
16.6400,3.027
16.6800,3.010
16.7200,3.141
16.7600,3.069
16.8000,3.066
16.8400,3.035
16.8800,3.014
16.9200,3.068
16.9600,2.983
17.0000,3.061
17.0400,3.093
17.0800,3.046
17.1200,3.179
17.1600,3.050
17.2000,2.979
17.2400,2.981
17.2800,3.176
17.3200,3.050
17.3600,3.022
17.4000,2.980
17.4400,3.031
17.4800,3.078
17.5200,2.922
17.5600,2.942
17.6000,2.933
17.6400,2.957
17.6800,2.971
17.7200,2.978
17.7600,3.011
17.8000,2.922
17.8400,2.902
17.8800,2.970
17.9200,2.980
17.9600,2.848
18.0000,2.888
18.0400,2.978
18.0800,3.010
18.1200,2.946
18.1600,2.876
18.2000,2.930
18.2400,2.796
18.2800,2.873
18.3200,2.865
18.3600,2.873
18.4000,2.950
18.4400,2.801
18.4800,2.867
18.5200,2.972
18.5600,2.877
18.6000,2.868
18.6400,2.817
18.6800,2.847
18.7200,2.916
18.7600,2.913
18.8000,2.946
18.8400,2.790
18.8800,2.863
18.9200,2.861
18.9600,2.886
19.0000,2.788
19.0400,2.837
19.0800,2.796
19.1200,2.796
19.1600,2.870
19.2000,2.758
19.2400,2.824
19.2800,2.822
19.3200,2.777
19.3600,2.754
19.4000,2.761
19.4400,2.825
19.4800,2.813
19.5200,2.781
19.5600,2.822
19.6000,2.861
19.6400,2.765
19.6800,2.803
19.7200,2.818
19.7600,2.738
19.8000,2.763
19.8400,2.693
19.8800,2.754
19.9200,2.771
19.9600,2.816
20.0000,2.746
20.0400,2.708
20.0800,2.787
20.1200,2.611
20.1600,2.652
20.2000,2.678
20.2400,2.680
20.2800,2.663
20.3200,2.630
20.3600,2.805
20.4000,2.652
20.4400,2.709
20.4800,2.632
20.5200,2.703
20.5600,2.689
20.6000,2.712
20.6400,2.644
20.6800,2.668
20.7200,2.662
20.7600,2.658
20.8000,2.653
20.8400,2.700
20.8800,2.679
20.9200,2.646
20.9600,2.672
21.0000,2.763
21.0400,2.532
21.0800,2.650
21.1200,2.633
21.1600,2.686
21.2000,2.577
21.2400,2.623
21.2800,2.663
21.3200,2.539
21.3600,2.612
21.4000,2.608
21.4400,2.608
21.4800,2.608
21.5200,2.575
21.5600,2.564
21.6000,2.547
21.6400,2.606
21.6800,2.514
21.7200,2.613
21.7600,2.573
21.8000,2.633
21.8400,2.567
21.8800,2.551
21.9200,2.532
21.9600,2.494
22.0000,2.623
22.0400,2.526
22.0800,2.592
22.1200,2.571
22.1600,2.604
22.2000,2.553
22.2400,2.425
22.2800,2.483
22.3200,2.485
22.3600,2.482
22.4000,2.498
22.4400,2.570
22.4800,2.545
22.5200,2.561
22.5600,2.535
22.6000,2.476
22.6400,2.551
22.6800,2.502
22.7200,2.434
22.7600,2.515
22.8000,2.457
22.8400,2.539
22.8800,2.523
22.9200,2.481
22.9600,2.514
23.0000,2.441
23.0400,2.469
23.0800,2.405
23.1200,2.461
23.1600,2.419
23.2000,2.436
23.2400,2.394
23.2800,2.448
23.3200,2.454
23.3600,2.421
23.4000,2.450
23.4400,2.385
23.4800,2.403
23.5200,2.390
23.5600,2.370
23.6000,2.396
23.6400,2.393
23.6800,2.402
23.7200,2.360
23.7600,2.438
23.8000,2.377
23.8400,2.393
23.8800,2.364
23.9200,2.419
23.9600,2.430
24.0000,2.332
24.0400,2.318
24.0800,2.394
24.1200,2.301
24.1600,2.367
24.2000,2.326
24.2400,2.336
24.2800,2.301
24.3200,2.276
24.3600,2.381
24.4000,2.356
24.4400,2.340
24.4800,2.285
24.5200,2.348
24.5600,2.393
24.6000,2.296
24.6400,2.347
24.6800,2.282
24.7200,2.347
24.7600,2.352
24.8000,2.330
24.8400,2.338
24.8800,2.337
24.9200,2.273
24.9600,2.326
25.0000,2.348
25.0400,2.319
25.0800,2.303
25.1200,2.281
25.1600,2.231
25.2000,2.233
25.2400,2.242
25.2800,2.242
25.3200,2.279
25.3600,2.274
25.4000,2.239
25.4400,2.253
25.4800,2.187
25.5200,2.267
25.5600,2.235
25.6000,2.137
25.6400,2.275
25.6800,2.231
25.7200,2.220
25.7600,2.143
25.8000,2.213
25.8400,2.236
25.8800,2.260
25.9200,2.163
25.9600,2.200
26.0000,2.165
26.0400,2.195
26.0800,2.137
26.1200,2.254
26.1600,2.219
26.2000,2.225
26.2400,2.124
26.2800,2.184
26.3200,2.221
26.3600,2.140
26.4000,2.138
26.4400,2.130
26.4800,2.157
26.5200,2.163
26.5600,2.090
26.6000,2.130
26.6400,2.084
26.6800,2.129
26.7200,2.042
26.7600,2.078
26.8000,2.160
26.8400,2.188
26.8800,2.144
26.9200,2.187
26.9600,2.166
27.0000,2.074
27.0400,2.115
27.0800,2.044
27.1200,2.070
27.1600,2.074
27.2000,2.138
27.2400,2.148
27.2800,2.132
27.3200,2.059
27.3600,2.060
27.4000,2.055
27.4400,2.098
27.4800,2.079
27.5200,2.103
27.5600,2.031
27.6000,2.092
27.6400,2.119
27.6800,2.082
27.7200,2.052
27.7600,2.069
27.8000,2.051
27.8400,2.054
27.8800,2.023
27.9200,2.046
27.9600,1.990
28.0000,2.045
28.0400,2.034
28.0800,1.967
28.1200,2.047
28.1600,1.977
28.2000,2.005
28.2400,2.023
28.2800,1.973
28.3200,1.988
28.3600,1.964
28.4000,1.987
28.4400,1.947
28.4800,2.011
28.5200,2.061
28.5600,1.941
28.6000,1.938
28.6400,1.966
28.6800,1.987
28.7200,1.943
28.7600,2.028
28.8000,1.992
28.8400,1.965
28.8800,2.017
28.9200,1.974
28.9600,1.979
29.0000,1.952
29.0400,1.950
29.0800,1.907
29.1200,1.883
29.1600,1.951
29.2000,1.916
29.2400,1.992
29.2800,1.938
29.3200,1.955
29.3600,1.914
29.4000,1.904
29.4400,1.851
29.4800,1.898
29.5200,1.859
29.5600,1.880
29.6000,1.842
29.6400,1.891
29.6800,1.759
29.7200,1.849
29.7600,1.849
29.8000,1.887
29.8400,1.851
29.8800,1.931
29.9200,1.831
29.9600,1.906
30.0000,1.847
30.0400,1.850
30.0800,1.838
30.1200,1.872
30.1600,1.892
30.2000,1.791
30.2400,1.781
30.2800,1.860
30.3200,1.821
30.3600,1.865
30.4000,1.863
30.4400,1.859
30.4800,1.806
30.5200,1.852
30.5600,1.844
30.6000,1.840
30.6400,1.872
30.6800,1.840
30.7200,1.810
30.7600,1.808
30.8000,1.877
30.8400,1.810
30.8800,1.814
30.9200,1.854
30.9600,1.809
31.0000,1.845
31.0400,1.891
31.0800,1.800
31.1200,1.891
31.1600,1.859
31.2000,1.851
31.2400,1.834
31.2800,1.842
31.3200,1.856
31.3600,1.868
31.4000,1.900
31.4400,1.882
31.4800,1.829
31.5200,1.904
31.5600,1.939
31.6000,1.889
31.6400,2.011
31.6800,1.936
31.7200,1.840
31.7600,1.994
31.8000,1.895
31.8400,1.943
31.8800,1.907
31.9200,1.936
31.9600,1.934
32.0000,1.860
32.0400,1.879
32.0800,1.739
32.1200,1.882
32.1600,1.871
32.2000,1.900
32.2400,1.813
32.2800,1.869
32.3200,1.761
32.3600,1.712
32.4000,1.809
32.4400,1.823
32.4800,1.713
32.5200,1.762
32.5600,1.674
32.6000,1.723
32.6400,1.783
32.6800,1.757
32.7200,1.771
32.7600,1.726
32.8000,1.693
32.8400,1.718
32.8800,1.712
32.9200,1.678
32.9600,1.673
33.0000,1.650
33.0400,1.672
33.0800,1.608
33.1200,1.690
33.1600,1.688
33.2000,1.720
33.2400,1.651
33.2800,1.699
33.3200,1.629
33.3600,1.734
33.4000,1.647
33.4400,1.630
33.4800,1.602
33.5200,1.741
33.5600,1.661
33.6000,1.642
33.6400,1.690
33.6800,1.662
33.7200,1.608
33.7600,1.697
33.8000,1.654
33.8400,1.618
33.8800,1.656
33.9200,1.726
33.9600,1.593
34.0000,1.735
34.0400,1.705
34.0800,1.745
34.1200,1.729
34.1600,1.665
34.2000,1.721
34.2400,1.688
34.2800,1.701
34.3200,1.665
34.3600,1.691
34.4000,1.750
34.4400,1.747
34.4800,1.675
34.5200,1.700
34.5600,1.681
34.6000,1.624
34.6400,1.618
34.6800,1.634
34.7200,1.681
34.7600,1.692
34.8000,1.686
34.8400,1.589
34.8800,1.622
34.9200,1.608
34.9600,1.562
35.0000,1.616
35.0400,1.621
35.0800,1.625
35.1200,1.608
35.1600,1.652
35.2000,1.653
35.2400,1.615
35.2800,1.603
35.3200,1.647
35.3600,1.623
35.4000,1.647
35.4400,1.579
35.4800,1.636
35.5200,1.594
35.5600,1.659
35.6000,1.625
35.6400,1.680
35.6800,1.655
35.7200,1.716
35.7600,1.726
35.8000,1.711
35.8400,1.718
35.8800,1.770
35.9200,1.736
35.9600,1.776
36.0000,1.844
36.0400,1.746
36.0800,1.760
36.1200,1.788
36.1600,1.824
36.2000,1.864
36.2400,1.801
36.2800,1.739
36.3200,1.838
36.3600,1.825
36.4000,1.763
36.4400,1.739
36.4800,1.771
36.5200,1.752
36.5600,1.729
36.6000,1.780
36.6400,1.730
36.6800,1.654
36.7200,1.739
36.7600,1.700
36.8000,1.621
36.8400,1.635
36.8800,1.641
36.9200,1.633
36.9600,1.651
37.0000,1.629
37.0400,1.569
37.0800,1.607
37.1200,1.635
37.1600,1.649
37.2000,1.628
37.2400,1.661
37.2800,1.660
37.3200,1.650
37.3600,1.637
37.4000,1.644
37.4400,1.635
37.4800,1.690
37.5200,1.738
37.5600,1.739
37.6000,1.771
37.6400,1.844
37.6800,1.794
37.7200,1.897
37.7600,2.067
37.8000,2.143
37.8400,2.190
37.8800,2.473
37.9200,2.765
37.9600,2.995
38.0000,3.599
38.0400,4.402
38.0800,5.109
38.1200,5.677
38.1600,5.324
38.2000,4.892
38.2400,4.413
38.2800,3.597
38.3200,3.107
38.3600,2.642
38.4000,2.393
38.4400,2.255
38.4800,2.075
38.5200,1.958
38.5600,1.993
38.6000,1.832
38.6400,1.735
38.6800,1.707
38.7200,1.629
38.7600,1.605
38.8000,1.649
38.8400,1.561
38.8800,1.603
38.9200,1.516
38.9600,1.502
39.0000,1.470
39.0400,1.533
39.0800,1.473
39.1200,1.511
39.1600,1.477
39.2000,1.459
39.2400,1.493
39.2800,1.437
39.3200,1.472
39.3600,1.482
39.4000,1.465
39.4400,1.441
39.4800,1.454
39.5200,1.432
39.5600,1.412
39.6000,1.402
39.6400,1.392
39.6800,1.450
39.7200,1.429
39.7600,1.367
39.8000,1.404
39.8400,1.428
39.8800,1.403
39.9200,1.395
39.9600,1.398
40.0000,1.384
40.0400,1.356
40.0800,1.424
40.1200,1.361
40.1600,1.433
40.2000,1.335
40.2400,1.401
40.2800,1.423
40.3200,1.355
40.3600,1.445
40.4000,1.354
40.4400,1.378
40.4800,1.346
40.5200,1.362
40.5600,1.427
40.6000,1.385
40.6400,1.397
40.6800,1.454
40.7200,1.389
40.7600,1.344
40.8000,1.379
40.8400,1.348
40.8800,1.443
40.9200,1.400
40.9600,1.385
41.0000,1.399
41.0400,1.318
41.0800,1.395
41.1200,1.279
41.1600,1.328
41.2000,1.341
41.2400,1.329
41.2800,1.289
41.3200,1.331
41.3600,1.283
41.4000,1.238
41.4400,1.206
41.4800,1.268
41.5200,1.269
41.5600,1.294
41.6000,1.295
41.6400,1.224
41.6800,1.272
41.7200,1.273
41.7600,1.199
41.8000,1.218
41.8400,1.194
41.8800,1.227
41.9200,1.223
41.9600,1.204
42.0000,1.207
42.0400,1.244
42.0800,1.230
42.1200,1.177
42.1600,1.197
42.2000,1.249
42.2400,1.224
42.2800,1.154
42.3200,1.240
42.3600,1.175
42.4000,1.187
42.4400,1.177
42.4800,1.187
42.5200,1.246
42.5600,1.197
42.6000,1.240
42.6400,1.172
42.6800,1.150
42.7200,1.169
42.7600,1.133
42.8000,1.136
42.8400,1.189
42.8800,1.174
42.9200,1.138
42.9600,1.191
43.0000,1.189
43.0400,1.185
43.0800,1.170
43.1200,1.158
43.1600,1.193
43.2000,1.161
43.2400,1.130
43.2800,1.196
43.3200,1.178
43.3600,1.099
43.4000,1.201
43.4400,1.145
43.4800,1.191
43.5200,1.155
43.5600,1.138
43.6000,1.176
43.6400,1.193
43.6800,1.211
43.7200,1.174
43.7600,1.252
43.8000,1.287
43.8400,1.210
43.8800,1.208
43.9200,1.282
43.9600,1.372
44.0000,1.437
44.0400,1.434
44.0800,1.531
44.1200,1.602
44.1600,1.577
44.2000,1.657
44.2400,1.813
44.2800,1.816
44.3200,1.832
44.3600,1.776
44.4000,1.728
44.4400,1.697
44.4800,1.635
44.5200,1.514
44.5600,1.480
44.6000,1.349
44.6400,1.277
44.6800,1.315
44.7200,1.237
44.7600,1.220
44.8000,1.235
44.8400,1.187
44.8800,1.113
44.9200,1.161
44.9600,1.107
45.0000,1.113
45.0400,1.075
45.0800,1.024
45.1200,1.044
45.1600,1.026
45.2000,1.082
45.2400,0.982
45.2800,0.990
45.3200,0.992
45.3600,1.024
45.4000,1.002
45.4400,0.999
45.4800,1.004
45.5200,0.974
45.5600,1.010
45.6000,0.982
45.6400,0.991
45.6800,0.937
45.7200,0.967
45.7600,0.974
45.8000,1.006
45.8400,0.955
45.8800,0.999
45.9200,0.978
45.9600,0.959
46.0000,0.916
46.0400,0.934
46.0800,0.961
46.1200,0.999
46.1600,0.908
46.2000,0.957
46.2400,0.991
46.2800,0.966
46.3200,0.864
46.3600,0.895
46.4000,0.952
46.4400,0.981
46.4800,0.937
46.5200,0.953
46.5600,0.949
46.6000,0.967
46.6400,0.924
46.6800,0.949
46.7200,0.966
46.7600,0.961
46.8000,0.985
46.8400,0.958
46.8800,0.990
46.9200,0.957
46.9600,0.888
47.0000,0.901
47.0400,0.931
47.0800,0.932
47.1200,0.933
47.1600,0.920
47.2000,0.926
47.2400,0.951
47.2800,0.900
47.3200,0.911
47.3600,0.918
47.4000,0.909
47.4400,0.937
47.4800,0.922
47.5200,0.931
47.5600,0.944
47.6000,0.932
47.6400,0.902
47.6800,0.894
47.7200,0.851
47.7600,0.893
47.8000,0.867
47.8400,0.911
47.8800,0.935
47.9200,0.865
47.9600,0.873
48.0000,0.898
48.0400,0.849
48.0800,0.901
48.1200,0.927
48.1600,0.894
48.2000,0.875
48.2400,0.838
48.2800,0.841
48.3200,0.843
48.3600,0.859
48.4000,0.842
48.4400,0.918
48.4800,0.868
48.5200,0.876
48.5600,0.771
48.6000,0.829
48.6400,0.866
48.6800,0.834
48.7200,0.872
48.7600,0.832
48.8000,0.794
48.8400,0.839
48.8800,0.819
48.9200,0.835
48.9600,0.784
49.0000,0.818
49.0400,0.858
49.0800,0.844
49.1200,0.838
49.1600,0.859
49.2000,0.875
49.2400,0.875
49.2800,0.804
49.3200,0.862
49.3600,0.847
49.4000,0.833
49.4400,0.794
49.4800,0.814
49.5200,0.856
49.5600,0.816
49.6000,0.818
49.6400,0.801
49.6800,0.810
49.7200,0.810
49.7600,0.842
49.8000,0.840
49.8400,0.798
49.8800,0.773
49.9200,0.820
49.9600,0.823
50.0000,0.776
50.0400,0.760
50.0800,0.829
50.1200,0.787
50.1600,0.820
50.2000,0.816
50.2400,0.798
50.2800,0.782
50.3200,0.779
50.3600,0.822
50.4000,0.814
50.4400,0.795
50.4800,0.763
50.5200,0.769
50.5600,0.819
50.6000,0.731
50.6400,0.790
50.6800,0.755
50.7200,0.847
50.7600,0.800
50.8000,0.785
50.8400,0.774
50.8800,0.798
50.9200,0.758
50.9600,0.766
51.0000,0.784
51.0400,0.785
51.0800,0.751
51.1200,0.776
51.1600,0.835
51.2000,0.781
51.2400,0.717
51.2800,0.726
51.3200,0.772
51.3600,0.765
51.4000,0.778
51.4400,0.779
51.4800,0.764
51.5200,0.734
51.5600,0.793
51.6000,0.807
51.6400,0.709
51.6800,0.746
51.7200,0.735
51.7600,0.690
51.8000,0.705
51.8400,0.716
51.8800,0.736
51.9200,0.732
51.9600,0.781
52.0000,0.745
52.0400,0.716
52.0800,0.755
52.1200,0.755
52.1600,0.793
52.2000,0.739
52.2400,0.746
52.2800,0.772
52.3200,0.704
52.3600,0.707
52.4000,0.705
52.4400,0.720
52.4800,0.753
52.5200,0.746
52.5600,0.694
52.6000,0.767
52.6400,0.743
52.6800,0.716
52.7200,0.718
52.7600,0.707
52.8000,0.698
52.8400,0.683
52.8800,0.741
52.9200,0.716
52.9600,0.725
53.0000,0.734
53.0400,0.698
53.0800,0.703
53.1200,0.707
53.1600,0.703
53.2000,0.742
53.2400,0.720
53.2800,0.694
53.3200,0.757
53.3600,0.699
53.4000,0.711
53.4400,0.701
53.4800,0.734
53.5200,0.690
53.5600,0.728
53.6000,0.697
53.6400,0.745
53.6800,0.705
53.7200,0.683
53.7600,0.671
53.8000,0.752
53.8400,0.706
53.8800,0.706
53.9200,0.692
53.9600,0.664
54.0000,0.705
54.0400,0.709
54.0800,0.720
54.1200,0.720
54.1600,0.665
54.2000,0.708
54.2400,0.668
54.2800,0.669
54.3200,0.684
54.3600,0.681
54.4000,0.697
54.4400,0.678
54.4800,0.645
54.5200,0.695
54.5600,0.713
54.6000,0.673
54.6400,0.693
54.6800,0.670
54.7200,0.687
54.7600,0.686
54.8000,0.675
54.8400,0.663
54.8800,0.674
54.9200,0.630
54.9600,0.729
55.0000,0.657
55.0400,0.647
55.0800,0.713
55.1200,0.680
55.1600,0.679
55.2000,0.652
55.2400,0.677
55.2800,0.664
55.3200,0.671
55.3600,0.660
55.4000,0.671
55.4400,0.657
55.4800,0.686
55.5200,0.618
55.5600,0.683
55.6000,0.669
55.6400,0.653
55.6800,0.679
55.7200,0.656
55.7600,0.638
55.8000,0.611
55.8400,0.631
55.8800,0.685
55.9200,0.661
55.9600,0.671
56.0000,0.629
56.0400,0.697
56.0800,0.678
56.1200,0.675
56.1600,0.640
56.2000,0.654
56.2400,0.674
56.2800,0.640
56.3200,0.720
56.3600,0.722
56.4000,0.684
56.4400,0.721
56.4800,0.696
56.5200,0.679
56.5600,0.701
56.6000,0.673
56.6400,0.699
56.6800,0.699
56.7200,0.698
56.7600,0.728
56.8000,0.694
56.8400,0.670
56.8800,0.703
56.9200,0.661
56.9600,0.666
57.0000,0.690
57.0400,0.713
57.0800,0.750
57.1200,0.693
57.1600,0.675
57.2000,0.642
57.2400,0.679
57.2800,0.690
57.3200,0.667
57.3600,0.657
57.4000,0.661
57.4400,0.604
57.4800,0.676
57.5200,0.643
57.5600,0.665
57.6000,0.600
57.6400,0.690
57.6800,0.614
57.7200,0.616
57.7600,0.619
57.8000,0.659
57.8400,0.583
57.8800,0.598
57.9200,0.605
57.9600,0.665
58.0000,0.620
58.0400,0.655
58.0800,0.633
58.1200,0.660
58.1600,0.652
58.2000,0.602
58.2400,0.605
58.2800,0.592
58.3200,0.593
58.3600,0.678
58.4000,0.633
58.4400,0.599
58.4800,0.573
58.5200,0.599
58.5600,0.635
58.6000,0.572
58.6400,0.588
58.6800,0.604
58.7200,0.613
58.7600,0.590
58.8000,0.577
58.8400,0.667
58.8800,0.600
58.9200,0.589
58.9600,0.595
59.0000,0.586
59.0400,0.605
59.0800,0.572
59.1200,0.590
59.1600,0.616
59.2000,0.585
59.2400,0.614
59.2800,0.652
59.3200,0.595
59.3600,0.552
59.4000,0.599
59.4400,0.590
59.4800,0.603
59.5200,0.601
59.5600,0.656
59.6000,0.588
59.6400,0.573
59.6800,0.609
59.7200,0.606
59.7600,0.602
59.8000,0.624
59.8400,0.616
59.8800,0.604
59.9200,0.574
59.9600,0.622
60.0000,0.579
60.0400,0.607
60.0800,0.597
60.1200,0.562
60.1600,0.571
60.2000,0.591
60.2400,0.581
60.2800,0.573
60.3200,0.582
60.3600,0.554
60.4000,0.584
60.4400,0.595
60.4800,0.587
60.5200,0.565
60.5600,0.583
60.6000,0.616
60.6400,0.589
60.6800,0.547
60.7200,0.564
60.7600,0.566
60.8000,0.565
60.8400,0.570
60.8800,0.560
60.9200,0.527
60.9600,0.596
61.0000,0.566
61.0400,0.597
61.0800,0.562
61.1200,0.549
61.1600,0.551
61.2000,0.574
61.2400,0.564
61.2800,0.591
61.3200,0.562
61.3600,0.608
61.4000,0.546
61.4400,0.571
61.4800,0.548
61.5200,0.560
61.5600,0.593
61.6000,0.628
61.6400,0.647
61.6800,0.645
61.7200,0.618
61.7600,0.566
61.8000,0.578
61.8400,0.555
61.8800,0.548
61.9200,0.602
61.9600,0.551
62.0000,0.550
62.0400,0.543
62.0800,0.578
62.1200,0.547
62.1600,0.585
62.2000,0.590
62.2400,0.577
62.2800,0.578
62.3200,0.607
62.3600,0.555
62.4000,0.570
62.4400,0.528
62.4800,0.590
62.5200,0.565
62.5600,0.569
62.6000,0.574
62.6400,0.596
62.6800,0.594
62.7200,0.543
62.7600,0.544
62.8000,0.580
62.8400,0.585
62.8800,0.580
62.9200,0.580
62.9600,0.555
63.0000,0.546
63.0400,0.639
63.0800,0.556
63.1200,0.580
63.1600,0.575
63.2000,0.606
63.2400,0.604
63.2800,0.589
63.3200,0.622
63.3600,0.636
63.4000,0.619
63.4400,0.580
63.4800,0.565
63.5200,0.594
63.5600,0.553
63.6000,0.606
63.6400,0.610
63.6800,0.590
63.7200,0.579
63.7600,0.633
63.8000,0.605
63.8400,0.599
63.8800,0.635
63.9200,0.644
63.9600,0.675
64.0000,0.647
64.0400,0.670
64.0800,0.673
64.1200,0.736
64.1600,0.725
64.2000,0.761
64.2400,0.734
64.2800,0.790
64.3200,0.889
64.3600,0.940
64.4000,1.008
64.4400,1.012
64.4800,1.020
64.5200,0.988
64.5600,0.988
64.6000,1.030
64.6400,0.943
64.6800,0.954
64.7200,0.858
64.7600,0.809
64.8000,0.788
64.8400,0.743
64.8800,0.733
64.9200,0.768
64.9600,0.694
65.0000,0.740
65.0400,0.714
65.0800,0.712
65.1200,0.669
65.1600,0.690
65.2000,0.673
65.2400,0.669
65.2800,0.698
65.3200,0.693
65.3600,0.722
65.4000,0.706
65.4400,0.648
65.4800,0.706
65.5200,0.700
65.5600,0.704
65.6000,0.728
65.6400,0.735
65.6800,0.750
65.7200,0.721
65.7600,0.696
65.8000,0.705
65.8400,0.748
65.8800,0.759
65.9200,0.792
65.9600,0.725
66.0000,0.774
66.0400,0.774
66.0800,0.726
66.1200,0.769
66.1600,0.837
66.2000,0.771
66.2400,0.814
66.2800,0.800
66.3200,0.834
66.3600,0.785
66.4000,0.870
66.4400,0.877
66.4800,0.854
66.5200,0.861
66.5600,0.875
66.6000,0.922
66.6400,0.915
66.6800,0.915
66.7200,0.895
66.7600,0.912
66.8000,0.956
66.8400,0.996
66.8800,0.935
66.9200,1.031
66.9600,1.041
67.0000,1.049
67.0400,1.032
67.0800,1.019
67.1200,1.138
67.1600,1.109
67.2000,1.113
67.2400,1.138
67.2800,1.142
67.3200,1.190
67.3600,1.168
67.4000,1.253
67.4400,1.269
67.4800,1.288
67.5200,1.349
67.5600,1.348
67.6000,1.452
67.6400,1.413
67.6800,1.488
67.7200,1.408
67.7600,1.469
67.8000,1.584
67.8400,1.559
67.8800,1.582
67.9200,1.618
67.9600,1.682
68.0000,1.782
68.0400,1.716
68.0800,1.821
68.1200,1.961
68.1600,1.889
68.2000,2.048
68.2400,2.024
68.2800,2.036
68.3200,2.136
68.3600,2.286
68.4000,2.312
68.4400,2.467
68.4800,2.565
68.5200,2.667
68.5600,2.829
68.6000,2.999
68.6400,3.336
68.6800,3.865
68.7200,4.867
68.7600,6.151
68.8000,7.413
68.8400,7.493
68.8800,7.591
68.9200,8.366
68.9600,10.884
69.0000,16.457
69.0400,33.708
69.0800,148.790
69.1200,484.004
69.1600,460.565
69.2000,140.864
69.2400,48.316
69.2800,100.057
69.3200,256.006
69.3600,227.533
69.4000,69.931
69.4400,20.630
69.4800,11.939
69.5200,8.528
69.5600,6.930
69.6000,5.768
69.6400,5.004
69.6800,4.408
69.7200,4.035
69.7600,3.709
69.8000,3.446
69.8400,3.187
69.8800,2.913
69.9200,2.852
69.9600,2.685
70.0000,2.647
70.0400,2.474
70.0800,2.368
70.1200,2.258
70.1600,2.120
70.2000,2.120
70.2400,2.064
70.2800,1.967
70.3200,1.916
70.3600,1.920
70.4000,1.768
70.4400,1.773
70.4800,1.670
70.5200,1.651
70.5600,1.538
70.6000,1.576
70.6400,1.536
70.6800,1.489
70.7200,1.437
70.7600,1.400
70.8000,1.387
70.8400,1.358
70.8800,1.347
70.9200,1.274
70.9600,1.269
71.0000,1.129
71.0400,1.152
71.0800,1.125
71.1200,1.135
71.1600,1.092
71.2000,1.075
71.2400,1.005
71.2800,0.993
71.3200,0.972
71.3600,1.017
71.4000,0.939
71.4400,0.995
71.4800,0.955
71.5200,0.916
71.5600,0.900
71.6000,0.827
71.6400,0.902
71.6800,0.889
71.7200,0.812
71.7600,0.860
71.8000,0.817
71.8400,0.781
71.8800,0.776
71.9200,0.767
71.9600,0.745
72.0000,0.710
72.0400,0.672
72.0800,0.656
72.1200,0.738
72.1600,0.712
72.2000,0.698
72.2400,0.677
72.2800,0.611
72.3200,0.633
72.3600,0.645
72.4000,0.647
72.4400,0.623
72.4800,0.604
72.5200,0.669
72.5600,0.617
72.6000,0.601
72.6400,0.568
72.6800,0.571
72.7200,0.577
72.7600,0.571
72.8000,0.585
72.8400,0.582
72.8800,0.560
72.9200,0.528
72.9600,0.519
73.0000,0.523
73.0400,0.514
73.0800,0.483
73.1200,0.555
73.1600,0.544
73.2000,0.537
73.2400,0.538
73.2800,0.509
73.3200,0.463
73.3600,0.492
73.4000,0.457
73.4400,0.475
73.4800,0.457
73.5200,0.477
73.5600,0.480
73.6000,0.480
73.6400,0.475
73.6800,0.484
73.7200,0.474
73.7600,0.441
73.8000,0.479
73.8400,0.497
73.8800,0.447
73.9200,0.457
73.9600,0.458
74.0000,0.481
74.0400,0.449
74.0800,0.440
74.1200,0.451
74.1600,0.429
74.2000,0.392
74.2400,0.441
74.2800,0.431
74.3200,0.443
74.3600,0.423
74.4000,0.425
74.4400,0.468
74.4800,0.440
74.5200,0.420
74.5600,0.399
74.6000,0.443
74.6400,0.396
74.6800,0.404
74.7200,0.387
74.7600,0.384
74.8000,0.423
74.8400,0.392
74.8800,0.370
74.9200,0.368
74.9600,0.427
75.0000,0.385
75.0400,0.391
75.0800,0.427
75.1200,0.385
75.1600,0.397
75.2000,0.387
75.2400,0.391
75.2800,0.392
75.3200,0.395
75.3600,0.390
75.4000,0.414
75.4400,0.387
75.4800,0.361
75.5200,0.380
75.5600,0.339
75.6000,0.386
75.6400,0.357
75.6800,0.365
75.7200,0.377
75.7600,0.363
75.8000,0.365
75.8400,0.395
75.8800,0.403
75.9200,0.371
75.9600,0.375
76.0000,0.379
76.0400,0.391
76.0800,0.380
76.1200,0.380
76.1600,0.404
76.2000,0.366
76.2400,0.368
76.2800,0.372
76.3200,0.356
76.3600,0.339
76.4000,0.333
76.4400,0.374
76.4800,0.381
76.5200,0.331
76.5600,0.394
76.6000,0.384
76.6400,0.401
76.6800,0.390
76.7200,0.400
76.7600,0.385
76.8000,0.395
76.8400,0.392
76.8800,0.433
76.9200,0.380
76.9600,0.442
77.0000,0.454
77.0400,0.435
77.0800,0.490
77.1200,0.478
77.1600,0.490
77.2000,0.548
77.2400,0.493
77.2800,0.589
77.3200,0.666
77.3600,0.696
77.4000,0.717
77.4400,0.700
77.4800,0.711
77.5200,0.656
77.5600,0.605
77.6000,0.652
77.6400,0.616
77.6800,0.578
77.7200,0.503
77.7600,0.496
77.8000,0.477
77.8400,0.490
77.8800,0.432
77.9200,0.406
77.9600,0.401
78.0000,0.393
78.0400,0.398
78.0800,0.424
78.1200,0.357
78.1600,0.364
78.2000,0.393
78.2400,0.376
78.2800,0.347
78.3200,0.390
78.3600,0.352
78.4000,0.331
78.4400,0.338
78.4800,0.353
78.5200,0.340
78.5600,0.353
78.6000,0.312
78.6400,0.351
78.6800,0.369
78.7200,0.348
78.7600,0.367
78.8000,0.309
78.8400,0.329
78.8800,0.329
78.9200,0.316
78.9600,0.327
79.0000,0.346
79.0400,0.332
79.0800,0.322
79.1200,0.308
79.1600,0.343
79.2000,0.343
79.2400,0.341
79.2800,0.317
79.3200,0.312
79.3600,0.317
79.4000,0.312
79.4400,0.308
79.4800,0.307
79.5200,0.305
79.5600,0.334
79.6000,0.290
79.6400,0.313
79.6800,0.311
79.7200,0.305
79.7600,0.299
79.8000,0.312
79.8400,0.307
79.8800,0.315
79.9200,0.324
79.9600,0.314
80.0000,0.295
