theta,intensity
5.0000,2.936
5.0400,3.021
5.0800,2.848
5.1200,2.898
5.1600,2.979
5.2000,2.980
5.2400,2.971
5.2800,2.858
5.3200,2.823
5.3600,2.851
5.4000,2.772
5.4400,2.791
5.4800,2.723
5.5200,2.652
5.5600,2.731
5.6000,2.735
5.6400,2.602
5.6800,2.634
5.7200,2.606
5.7600,2.580
5.8000,2.517
5.8400,2.513
5.8800,2.535
5.9200,2.482
5.9600,2.497
6.0000,2.371
6.0400,2.315
6.0800,2.384
6.1200,2.345
6.1600,2.274
6.2000,2.339
6.2400,2.227
6.2800,2.223
6.3200,2.193
6.3600,2.103
6.4000,2.130
6.4400,2.105
6.4800,2.050
6.5200,1.978
6.5600,1.932
6.6000,1.964
6.6400,1.877
6.6800,1.883
6.7200,1.848
6.7600,1.779
6.8000,1.809
6.8400,1.830
6.8800,1.770
6.9200,1.744
6.9600,1.681
7.0000,1.657
7.0400,1.631
7.0800,1.661
7.1200,1.666
7.1600,1.608
7.2000,1.631
7.2400,1.610
7.2800,1.620
7.3200,1.611
7.3600,1.600
7.4000,1.562
7.4400,1.551
7.4800,1.507
7.5200,1.523
7.5600,1.481
7.6000,1.470
7.6400,1.480
7.6800,1.474
7.7200,1.451
7.7600,1.415
7.8000,1.397
7.8400,1.411
7.8800,1.366
7.9200,1.428
7.9600,1.370
8.0000,1.393
8.0400,1.362
8.0800,1.342
8.1200,1.356
8.1600,1.417
8.2000,1.355
8.2400,1.361
8.2800,1.396
8.3200,1.379
8.3600,1.354
8.4000,1.319
8.4400,1.365
8.4800,1.387
8.5200,1.412
8.5600,1.370
8.6000,1.322
8.6400,1.378
8.6800,1.348
8.7200,1.350
8.7600,1.313
8.8000,1.400
8.8400,1.359
8.8800,1.330
8.9200,1.354
8.9600,1.363
9.0000,1.332
9.0400,1.319
9.0800,1.304
9.1200,1.308
9.1600,1.327
9.2000,1.292
9.2400,1.296
9.2800,1.314
9.3200,1.299
9.3600,1.282
9.4000,1.281
9.4400,1.344
9.4800,1.316
9.5200,1.277
9.5600,1.302
9.6000,1.294
9.6400,1.322
9.6800,1.281
9.7200,1.282
9.7600,1.290
9.8000,1.302
9.8400,1.238
9.8800,1.306
9.9200,1.299
9.9600,1.306
10.0000,1.314
10.0400,1.273
10.0800,1.272
10.1200,1.263
10.1600,1.261
10.2000,1.251
10.2400,1.286
10.2800,1.278
10.3200,1.320
10.3600,1.254
10.4000,1.292
10.4400,1.267
10.4800,1.302
10.5200,1.263
10.5600,1.280
10.6000,1.226
10.6400,1.199
10.6800,1.213
10.7200,1.215
10.7600,1.286
10.8000,1.213
10.8400,1.272
10.8800,1.254
10.9200,1.212
10.9600,1.262
11.0000,1.234
11.0400,1.247
11.0800,1.253
11.1200,1.243
11.1600,1.214
11.2000,1.222
11.2400,1.220
11.2800,1.277
11.3200,1.263
11.3600,1.252
11.4000,1.243
11.4400,1.264
11.4800,1.244
11.5200,1.238
11.5600,1.189
11.6000,1.223
11.6400,1.198
11.6800,1.241
11.7200,1.203
11.7600,1.228
11.8000,1.234
11.8400,1.221
11.8800,1.209
11.9200,1.249
11.9600,1.183
12.0000,1.208
12.0400,1.221
12.0800,1.261
12.1200,1.184
12.1600,1.215
12.2000,1.223
12.2400,1.224
12.2800,1.227
12.3200,1.200
12.3600,1.196
12.4000,1.234
12.4400,1.182
12.4800,1.231
12.5200,1.213
12.5600,1.213
12.6000,1.188
12.6400,1.178
12.6800,1.194
12.7200,1.225
12.7600,1.193
12.8000,1.219
12.8400,1.162
12.8800,1.204
12.9200,1.174
12.9600,1.172
13.0000,1.144
13.0400,1.187
13.0800,1.202
13.1200,1.184
13.1600,1.181
13.2000,1.145
13.2400,1.166
13.2800,1.169
13.3200,1.142
13.3600,1.185
13.4000,1.130
13.4400,1.163
13.4800,1.240
13.5200,1.199
13.5600,1.192
13.6000,1.218
13.6400,1.154
13.6800,1.143
13.7200,1.151
13.7600,1.175
13.8000,1.121
13.8400,1.131
13.8800,1.162
13.9200,1.154
13.9600,1.171
14.0000,1.164
14.0400,1.166
14.0800,1.130
14.1200,1.179
14.1600,1.138
14.2000,1.156
14.2400,1.127
14.2800,1.140
14.3200,1.128
14.3600,1.111
14.4000,1.200
14.4400,1.173
14.4800,1.117
14.5200,1.163
14.5600,1.121
14.6000,1.150
14.6400,1.144
14.6800,1.175
14.7200,1.132
14.7600,1.155
14.8000,1.148
14.8400,1.093
14.8800,1.108
14.9200,1.085
14.9600,1.152
15.0000,1.130
15.0400,1.134
15.0800,1.121
15.1200,1.102
15.1600,1.123
15.2000,1.085
15.2400,1.108
15.2800,1.132
15.3200,1.118
15.3600,1.075
15.4000,1.075
15.4400,1.098
15.4800,1.092
15.5200,1.131
15.5600,1.102
15.6000,1.128
15.6400,1.136
15.6800,1.076
15.7200,1.119
15.7600,1.120
15.8000,1.139
15.8400,1.102
15.8800,1.129
15.9200,1.078
15.9600,1.090
16.0000,1.114
16.0400,1.084
16.0800,1.081
16.1200,1.057
16.1600,1.063
16.2000,1.060
16.2400,1.070
16.2800,1.062
16.3200,1.072
16.3600,1.092
16.4000,1.050
16.4400,1.070
16.4800,1.089
16.5200,1.047
16.5600,1.080
16.6000,1.059
16.6400,1.091
16.6800,1.068
16.7200,1.098
16.7600,1.068
16.8000,1.045
16.8400,1.056
16.8800,1.056
16.9200,1.064
16.9600,1.082
17.0000,1.069
17.0400,1.064
17.0800,1.041
17.1200,1.012
17.1600,1.059
17.2000,1.056
17.2400,1.049
17.2800,1.031
17.3200,1.016
17.3600,1.037
17.4000,1.024
17.4400,1.073
17.4800,1.002
17.5200,1.004
17.5600,1.020
17.6000,1.028
17.6400,1.054
17.6800,1.062
17.7200,1.030
17.7600,0.966
17.8000,1.052
17.8400,1.016
17.8800,1.012
17.9200,0.998
17.9600,1.029
18.0000,1.032
18.0400,1.022
18.0800,1.019
18.1200,0.990
18.1600,1.018
18.2000,1.063
18.2400,1.039
18.2800,1.045
18.3200,1.028
18.3600,0.985
18.4000,1.035
18.4400,0.999
18.4800,0.993
18.5200,1.015
18.5600,1.000
18.6000,0.976
18.6400,0.982
18.6800,0.969
18.7200,1.007
18.7600,1.012
18.8000,0.972
18.8400,0.975
18.8800,0.997
18.9200,0.979
18.9600,0.987
19.0000,1.014
19.0400,0.986
19.0800,1.017
19.1200,0.987
19.1600,0.956
19.2000,0.947
19.2400,1.009
19.2800,0.961
19.3200,1.007
19.3600,0.957
19.4000,0.941
19.4400,0.951
19.4800,0.977
19.5200,0.901
19.5600,0.948
19.6000,0.938
19.6400,0.940
19.6800,0.910
19.7200,0.946
19.7600,0.933
19.8000,0.939
19.8400,0.982
19.8800,0.954
19.9200,0.954
19.9600,0.926
20.0000,0.925
20.0400,0.958
20.0800,0.952
20.1200,0.946
20.1600,0.918
20.2000,0.885
20.2400,0.909
20.2800,0.968
20.3200,0.963
20.3600,0.917
20.4000,0.934
20.4400,0.895
20.4800,0.924
20.5200,0.942
20.5600,0.935
20.6000,0.937
20.6400,0.956
20.6800,0.920
20.7200,0.947
20.7600,0.897
20.8000,0.885
20.8400,0.908
20.8800,0.886
20.9200,0.887
20.9600,0.928
21.0000,0.960
21.0400,0.928
21.0800,0.928
21.1200,0.895
21.1600,0.924
21.2000,0.910
21.2400,0.878
21.2800,0.916
21.3200,0.926
21.3600,0.915
21.4000,0.871
21.4400,0.891
21.4800,0.920
21.5200,0.904
21.5600,0.927
21.6000,0.923
21.6400,0.873
21.6800,0.902
21.7200,0.868
21.7600,0.890
21.8000,0.837
21.8400,0.863
21.8800,0.873
21.9200,0.908
21.9600,0.875
22.0000,0.927
22.0400,0.919
22.0800,0.846
22.1200,0.893
22.1600,0.869
22.2000,0.840
22.2400,0.861
22.2800,0.816
22.3200,0.892
22.3600,0.851
22.4000,0.809
22.4400,0.871
22.4800,0.887
22.5200,0.866
22.5600,0.848
22.6000,0.904
22.6400,0.868
22.6800,0.860
22.7200,0.877
22.7600,0.831
22.8000,0.829
22.8400,0.881
22.8800,0.883
22.9200,0.840
22.9600,0.834
23.0000,0.918
23.0400,0.847
23.0800,0.897
23.1200,0.796
23.1600,0.864
23.2000,0.840
23.2400,0.851
23.2800,0.858
23.3200,0.832
23.3600,0.850
23.4000,0.798
23.4400,0.824
23.4800,0.826
23.5200,0.859
23.5600,0.819
23.6000,0.820
23.6400,0.800
23.6800,0.826
23.7200,0.824
23.7600,0.791
23.8000,0.785
23.8400,0.820
23.8800,0.810
23.9200,0.891
23.9600,0.793
24.0000,0.823
24.0400,0.803
24.0800,0.804
24.1200,0.821
24.1600,0.787
24.2000,0.824
24.2400,0.790
24.2800,0.810
24.3200,0.821
24.3600,0.801
24.4000,0.818
24.4400,0.806
24.4800,0.781
24.5200,0.812
24.5600,0.765
24.6000,0.799
24.6400,0.746
24.6800,0.764
24.7200,0.797
24.7600,0.807
24.8000,0.765
24.8400,0.760
24.8800,0.807
24.9200,0.782
24.9600,0.809
25.0000,0.768
25.0400,0.768
25.0800,0.736
25.1200,0.781
25.1600,0.771
25.2000,0.762
25.2400,0.811
25.2800,0.758
25.3200,0.775
25.3600,0.780
25.4000,0.758
25.4400,0.745
25.4800,0.773
25.5200,0.773
25.5600,0.746
25.6000,0.768
25.6400,0.755
25.6800,0.767
25.7200,0.783
25.7600,0.762
25.8000,0.760
25.8400,0.806
25.8800,0.766
25.9200,0.735
25.9600,0.776
26.0000,0.737
26.0400,0.728
26.0800,0.756
26.1200,0.738
26.1600,0.766
26.2000,0.762
26.2400,0.701
26.2800,0.708
26.3200,0.740
26.3600,0.735
26.4000,0.744
26.4400,0.732
26.4800,0.708
26.5200,0.740
26.5600,0.767
26.6000,0.731
26.6400,0.723
26.6800,0.702
26.7200,0.723
26.7600,0.705
26.8000,0.718
26.8400,0.725
26.8800,0.723
26.9200,0.764
26.9600,0.700
27.0000,0.725
27.0400,0.706
27.0800,0.715
27.1200,0.721
27.1600,0.709
27.2000,0.723
27.2400,0.723
27.2800,0.695
27.3200,0.710
27.3600,0.715
27.4000,0.686
27.4400,0.685
27.4800,0.713
27.5200,0.646
27.5600,0.714
27.6000,0.702
27.6400,0.681
27.6800,0.686
27.7200,0.715
27.7600,0.631
27.8000,0.708
27.8400,0.704
27.8800,0.702
27.9200,0.638
27.9600,0.665
28.0000,0.698
28.0400,0.689
28.0800,0.655
28.1200,0.636
28.1600,0.692
28.2000,0.716
28.2400,0.668
28.2800,0.678
28.3200,0.694
28.3600,0.699
28.4000,0.670
28.4400,0.638
28.4800,0.669
28.5200,0.682
28.5600,0.691
28.6000,0.675
28.6400,0.675
28.6800,0.648
28.7200,0.663
28.7600,0.643
28.8000,0.676
28.8400,0.667
28.8800,0.672
28.9200,0.671
28.9600,0.665
29.0000,0.660
29.0400,0.647
29.0800,0.631
29.1200,0.641
29.1600,0.670
29.2000,0.618
29.2400,0.618
29.2800,0.633
29.3200,0.640
29.3600,0.637
29.4000,0.635
29.4400,0.648
29.4800,0.631
29.5200,0.637
29.5600,0.619
29.6000,0.618
29.6400,0.630
29.6800,0.637
29.7200,0.640
29.7600,0.637
29.8000,0.635
29.8400,0.586
29.8800,0.620
29.9200,0.634
29.9600,0.613
30.0000,0.638
30.0400,0.634
30.0800,0.600
30.1200,0.627
30.1600,0.644
30.2000,0.597
30.2400,0.620
30.2800,0.608
30.3200,0.632
30.3600,0.614
30.4000,0.590
30.4400,0.578
30.4800,0.627
30.5200,0.643
30.5600,0.617
30.6000,0.621
30.6400,0.567
30.6800,0.616
30.7200,0.602
30.7600,0.600
30.8000,0.617
30.8400,0.599
30.8800,0.576
30.9200,0.613
30.9600,0.618
31.0000,0.602
31.0400,0.592
31.0800,0.568
31.1200,0.562
31.1600,0.567
31.2000,0.572
31.2400,0.594
31.2800,0.592
31.3200,0.559
31.3600,0.557
31.4000,0.575
31.4400,0.558
31.4800,0.563
31.5200,0.591
31.5600,0.502
31.6000,0.558
31.6400,0.583
31.6800,0.599
31.7200,0.593
31.7600,0.562
31.8000,0.579
31.8400,0.569
31.8800,0.579
31.9200,0.582
31.9600,0.536
32.0000,0.567
32.0400,0.564
32.0800,0.558
32.1200,0.596
32.1600,0.576
32.2000,0.559
32.2400,0.557
32.2800,0.583
32.3200,0.552
32.3600,0.567
32.4000,0.589
32.4400,0.552
32.4800,0.553
32.5200,0.559
32.5600,0.562
32.6000,0.570
32.6400,0.559
32.6800,0.562
32.7200,0.554
32.7600,0.547
32.8000,0.536
32.8400,0.572
32.8800,0.533
32.9200,0.547
32.9600,0.541
33.0000,0.548
33.0400,0.566
33.0800,0.567
33.1200,0.520
33.1600,0.530
33.2000,0.558
33.2400,0.533
33.2800,0.552
33.3200,0.527
33.3600,0.552
33.4000,0.539
33.4400,0.552
33.4800,0.520
33.5200,0.553
33.5600,0.547
33.6000,0.569
33.6400,0.556
33.6800,0.569
33.7200,0.518
33.7600,0.532
33.8000,0.515
33.8400,0.540
33.8800,0.539
33.9200,0.506
33.9600,0.528
34.0000,0.513
34.0400,0.548
34.0800,0.524
34.1200,0.509
34.1600,0.493
34.2000,0.530
34.2400,0.515
34.2800,0.481
34.3200,0.519
34.3600,0.518
34.4000,0.509
34.4400,0.503
34.4800,0.533
34.5200,0.487
34.5600,0.533
34.6000,0.504
34.6400,0.539
34.6800,0.523
34.7200,0.509
34.7600,0.510
34.8000,0.535
34.8400,0.528
34.8800,0.513
34.9200,0.499
34.9600,0.531
35.0000,0.513
35.0400,0.494
35.0800,0.505
35.1200,0.477
35.1600,0.515
35.2000,0.509
35.2400,0.496
35.2800,0.480
35.3200,0.497
35.3600,0.475
35.4000,0.493
35.4400,0.522
35.4800,0.507
35.5200,0.516
35.5600,0.490
35.6000,0.491
35.6400,0.483
35.6800,0.498
35.7200,0.509
35.7600,0.512
35.8000,0.503
35.8400,0.494
35.8800,0.520
35.9200,0.530
35.9600,0.482
36.0000,0.529
36.0400,0.540
36.0800,0.499
36.1200,0.525
36.1600,0.489
36.2000,0.527
36.2400,0.546
36.2800,0.495
36.3200,0.526
36.3600,0.493
36.4000,0.515
36.4400,0.520
36.4800,0.523
36.5200,0.534
36.5600,0.514
36.6000,0.522
36.6400,0.506
36.6800,0.546
36.7200,0.510
36.7600,0.532
36.8000,0.513
36.8400,0.516
36.8800,0.548
36.9200,0.509
36.9600,0.560
37.0000,0.581
37.0400,0.548
37.0800,0.529
37.1200,0.558
37.1600,0.560
37.2000,0.561
37.2400,0.550
37.2800,0.582
37.3200,0.624
37.3600,0.601
37.4000,0.617
37.4400,0.642
37.4800,0.651
37.5200,0.633
37.5600,0.679
37.6000,0.730
37.6400,0.762
37.6800,0.789
37.7200,0.819
37.7600,0.910
37.8000,0.980
37.8400,1.045
37.8800,1.202
37.9200,1.382
37.9600,1.527
38.0000,1.939
38.0400,2.473
38.0800,3.268
38.1200,4.757
38.1600,7.709
38.2000,12.232
38.2400,17.567
38.2800,21.015
38.3200,21.390
38.3600,19.055
38.4000,15.117
38.4400,10.958
38.4800,7.230
38.5200,4.793
38.5600,3.240
38.6000,2.402
38.6400,1.902
38.6800,1.580
38.7200,1.390
38.7600,1.193
38.8000,1.111
38.8400,1.001
38.8800,0.922
38.9200,0.902
38.9600,0.838
39.0000,0.765
39.0400,0.732
39.0800,0.698
39.1200,0.710
39.1600,0.636
39.2000,0.630
39.2400,0.613
39.2800,0.608
39.3200,0.571
39.3600,0.610
39.4000,0.566
39.4400,0.560
39.4800,0.561
39.5200,0.537
39.5600,0.541
39.6000,0.533
39.6400,0.493
39.6800,0.490
39.7200,0.495
39.7600,0.514
39.8000,0.524
39.8400,0.460
39.8800,0.475
39.9200,0.474
39.9600,0.470
40.0000,0.477
40.0400,0.500
40.0800,0.451
40.1200,0.488
40.1600,0.484
40.2000,0.481
40.2400,0.453
40.2800,0.487
40.3200,0.460
40.3600,0.463
40.4000,0.438
40.4400,0.462
40.4800,0.443
40.5200,0.416
40.5600,0.429
40.6000,0.437
40.6400,0.420
40.6800,0.440
40.7200,0.449
40.7600,0.434
40.8000,0.410
40.8400,0.424
40.8800,0.430
40.9200,0.418
40.9600,0.402
41.0000,0.409
41.0400,0.423
41.0800,0.443
41.1200,0.417
41.1600,0.403
41.2000,0.437
41.2400,0.422
41.2800,0.406
41.3200,0.448
41.3600,0.435
41.4000,0.425
41.4400,0.402
41.4800,0.441
41.5200,0.436
41.5600,0.401
41.6000,0.402
41.6400,0.427
41.6800,0.414
41.7200,0.401
41.7600,0.405
41.8000,0.410
41.8400,0.417
41.8800,0.384
41.9200,0.403
41.9600,0.410
42.0000,0.409
42.0400,0.404
42.0800,0.429
42.1200,0.390
42.1600,0.409
42.2000,0.401
42.2400,0.388
42.2800,0.391
42.3200,0.401
42.3600,0.387
42.4000,0.395
42.4400,0.392
42.4800,0.397
42.5200,0.394
42.5600,0.395
42.6000,0.418
42.6400,0.384
42.6800,0.382
42.7200,0.391
42.7600,0.423
42.8000,0.408
42.8400,0.391
42.8800,0.387
42.9200,0.402
42.9600,0.394
43.0000,0.384
43.0400,0.388
43.0800,0.406
43.1200,0.412
43.1600,0.400
43.2000,0.393
43.2400,0.392
43.2800,0.431
43.3200,0.420
43.3600,0.425
43.4000,0.444
43.4400,0.436
43.4800,0.423
43.5200,0.443
43.5600,0.458
43.6000,0.448
43.6400,0.459
43.6800,0.469
43.7200,0.495
43.7600,0.496
43.8000,0.501
43.8400,0.521
43.8800,0.514
43.9200,0.581
43.9600,0.599
44.0000,0.589
44.0400,0.626
44.0800,0.695
44.1200,0.763
44.1600,0.846
44.2000,0.914
44.2400,1.043
44.2800,1.280
44.3200,1.550
44.3600,1.888
44.4000,2.375
44.4400,3.029
44.4800,3.702
44.5200,4.548
44.5600,4.987
44.6000,5.215
44.6400,4.947
44.6800,4.304
44.7200,3.540
44.7600,2.910
44.8000,2.318
44.8400,1.726
44.8800,1.376
44.9200,1.173
44.9600,0.954
45.0000,0.832
45.0400,0.791
45.0800,0.667
45.1200,0.638
45.1600,0.608
45.2000,0.549
45.2400,0.529
45.2800,0.505
45.3200,0.476
45.3600,0.460
45.4000,0.427
45.4400,0.443
45.4800,0.414
45.5200,0.409
45.5600,0.384
45.6000,0.400
45.6400,0.396
45.6800,0.380
45.7200,0.358
45.7600,0.363
45.8000,0.352
45.8400,0.352
45.8800,0.354
45.9200,0.339
45.9600,0.347
46.0000,0.348
46.0400,0.333
46.0800,0.321
46.1200,0.310
46.1600,0.340
46.2000,0.337
46.2400,0.337
46.2800,0.327
46.3200,0.327
46.3600,0.324
46.4000,0.325
46.4400,0.316
46.4800,0.330
46.5200,0.331
46.5600,0.316
46.6000,0.322
46.6400,0.299
46.6800,0.287
46.7200,0.298
46.7600,0.328
46.8000,0.298
46.8400,0.323
46.8800,0.294
46.9200,0.315
46.9600,0.294
47.0000,0.295
47.0400,0.301
47.0800,0.305
47.1200,0.295
47.1600,0.284
47.2000,0.306
47.2400,0.308
47.2800,0.290
47.3200,0.276
47.3600,0.286
47.4000,0.314
47.4400,0.308
47.4800,0.301
47.5200,0.301
47.5600,0.288
47.6000,0.290
47.6400,0.275
47.6800,0.286
47.7200,0.270
47.7600,0.273
47.8000,0.252
47.8400,0.275
47.8800,0.276
47.9200,0.276
47.9600,0.281
48.0000,0.274
48.0400,0.300
48.0800,0.261
48.1200,0.273
48.1600,0.288
48.2000,0.276
48.2400,0.266
48.2800,0.256
48.3200,0.299
48.3600,0.300
48.4000,0.273
48.4400,0.277
48.4800,0.260
48.5200,0.277
48.5600,0.263
48.6000,0.274
48.6400,0.278
48.6800,0.292
48.7200,0.266
48.7600,0.286
48.8000,0.274
48.8400,0.263
48.8800,0.271
48.9200,0.267
48.9600,0.278
49.0000,0.267
49.0400,0.266
49.0800,0.265
49.1200,0.271
49.1600,0.251
49.2000,0.271
49.2400,0.272
49.2800,0.249
49.3200,0.263
49.3600,0.255
49.4000,0.261
49.4400,0.261
49.4800,0.263
49.5200,0.243
49.5600,0.240
49.6000,0.263
49.6400,0.243
49.6800,0.251
49.7200,0.251
49.7600,0.247
49.8000,0.254
49.8400,0.276
49.8800,0.260
49.9200,0.260
49.9600,0.244
50.0000,0.249
50.0400,0.255
50.0800,0.272
50.1200,0.255
50.1600,0.246
50.2000,0.237
50.2400,0.236
50.2800,0.242
50.3200,0.258
50.3600,0.261
50.4000,0.260
50.4400,0.248
50.4800,0.233
50.5200,0.242
50.5600,0.263
50.6000,0.242
50.6400,0.264
50.6800,0.236
50.7200,0.248
50.7600,0.224
50.8000,0.229
50.8400,0.235
50.8800,0.252
50.9200,0.235
50.9600,0.237
51.0000,0.232
51.0400,0.253
51.0800,0.250
51.1200,0.267
51.1600,0.252
51.2000,0.267
51.2400,0.253
51.2800,0.243
51.3200,0.247
51.3600,0.243
51.4000,0.247
51.4400,0.246
51.4800,0.233
51.5200,0.213
51.5600,0.242
51.6000,0.240
51.6400,0.246
51.6800,0.235
51.7200,0.240
51.7600,0.232
51.8000,0.224
51.8400,0.236
51.8800,0.252
51.9200,0.241
51.9600,0.236
52.0000,0.239
52.0400,0.260
52.0800,0.239
52.1200,0.245
52.1600,0.235
52.2000,0.241
52.2400,0.237
52.2800,0.251
52.3200,0.219
52.3600,0.213
52.4000,0.218
52.4400,0.223
52.4800,0.244
52.5200,0.222
52.5600,0.207
52.6000,0.257
52.6400,0.230
52.6800,0.237
52.7200,0.244
52.7600,0.250
52.8000,0.230
52.8400,0.242
52.8800,0.224
52.9200,0.258
52.9600,0.245
53.0000,0.221
53.0400,0.225
53.0800,0.233
53.1200,0.220
53.1600,0.206
53.2000,0.231
53.2400,0.205
53.2800,0.203
53.3200,0.221
53.3600,0.233
53.4000,0.232
53.4400,0.225
53.4800,0.228
53.5200,0.218
53.5600,0.210
53.6000,0.230
53.6400,0.234
53.6800,0.219
53.7200,0.216
53.7600,0.194
53.8000,0.238
53.8400,0.225
53.8800,0.223
53.9200,0.229
53.9600,0.219
54.0000,0.223
54.0400,0.224
54.0800,0.225
54.1200,0.223
54.1600,0.215
54.2000,0.216
54.2400,0.227
54.2800,0.231
54.3200,0.209
54.3600,0.231
54.4000,0.234
54.4400,0.212
54.4800,0.216
54.5200,0.228
54.5600,0.217
54.6000,0.246
54.6400,0.213
54.6800,0.218
54.7200,0.210
54.7600,0.224
54.8000,0.225
54.8400,0.227
54.8800,0.218
54.9200,0.207
54.9600,0.217
55.0000,0.224
55.0400,0.216
55.0800,0.213
55.1200,0.228
55.1600,0.213
55.2000,0.211
55.2400,0.219
55.2800,0.205
55.3200,0.237
55.3600,0.215
55.4000,0.213
55.4400,0.214
55.4800,0.218
55.5200,0.222
55.5600,0.208
55.6000,0.220
55.6400,0.220
55.6800,0.215
55.7200,0.206
55.7600,0.202
55.8000,0.196
55.8400,0.192
55.8800,0.212
55.9200,0.230
55.9600,0.214
56.0000,0.196
56.0400,0.219
56.0800,0.222
56.1200,0.201
56.1600,0.204
56.2000,0.207
56.2400,0.203
56.2800,0.205
56.3200,0.211
56.3600,0.226
56.4000,0.206
56.4400,0.221
56.4800,0.198
56.5200,0.202
56.5600,0.214
56.6000,0.222
56.6400,0.195
56.6800,0.197
56.7200,0.200
56.7600,0.189
56.8000,0.222
56.8400,0.229
56.8800,0.243
56.9200,0.211
56.9600,0.200
57.0000,0.215
57.0400,0.206
57.0800,0.218
57.1200,0.194
57.1600,0.190
57.2000,0.210
57.2400,0.210
57.2800,0.200
57.3200,0.201
57.3600,0.232
57.4000,0.202
57.4400,0.222
57.4800,0.202
57.5200,0.217
57.5600,0.205
57.6000,0.211
57.6400,0.213
57.6800,0.195
57.7200,0.190
57.7600,0.195
57.8000,0.188
57.8400,0.187
57.8800,0.186
57.9200,0.197
57.9600,0.209
58.0000,0.196
58.0400,0.187
58.0800,0.200
58.1200,0.211
58.1600,0.217
58.2000,0.204
58.2400,0.186
58.2800,0.197
58.3200,0.196
58.3600,0.199
58.4000,0.201
58.4400,0.203
58.4800,0.208
58.5200,0.210
58.5600,0.199
58.6000,0.199
58.6400,0.180
58.6800,0.190
58.7200,0.172
58.7600,0.208
58.8000,0.195
58.8400,0.204
58.8800,0.200
58.9200,0.198
58.9600,0.208
59.0000,0.191
59.0400,0.214
59.0800,0.201
59.1200,0.178
59.1600,0.196
59.2000,0.201
59.2400,0.214
59.2800,0.200
59.3200,0.194
59.3600,0.225
59.4000,0.191
59.4400,0.189
59.4800,0.202
59.5200,0.198
59.5600,0.196
59.6000,0.203
59.6400,0.210
59.6800,0.202
59.7200,0.213
59.7600,0.203
59.8000,0.223
59.8400,0.206
59.8800,0.197
59.9200,0.202
59.9600,0.231
60.0000,0.193
60.0400,0.194
60.0800,0.214
60.1200,0.204
60.1600,0.202
60.2000,0.213
60.2400,0.214
60.2800,0.214
60.3200,0.185
60.3600,0.207
60.4000,0.210
60.4400,0.214
60.4800,0.207
60.5200,0.207
60.5600,0.208
60.6000,0.213
60.6400,0.188
60.6800,0.218
60.7200,0.197
60.7600,0.197
60.8000,0.214
60.8400,0.214
60.8800,0.197
60.9200,0.199
60.9600,0.217
61.0000,0.215
61.0400,0.215
61.0800,0.202
61.1200,0.226
61.1600,0.215
61.2000,0.184
61.2400,0.199
61.2800,0.192
61.3200,0.195
61.3600,0.199
61.4000,0.221
61.4400,0.195
61.4800,0.207
61.5200,0.180
61.5600,0.198
61.6000,0.212
61.6400,0.206
61.6800,0.211
61.7200,0.206
61.7600,0.219
61.8000,0.209
61.8400,0.235
61.8800,0.219
61.9200,0.196
61.9600,0.212
62.0000,0.204
62.0400,0.190
62.0800,0.201
62.1200,0.203
62.1600,0.220
62.2000,0.240
62.2400,0.206
62.2800,0.204
62.3200,0.191
62.3600,0.219
62.4000,0.239
62.4400,0.209
62.4800,0.219
62.5200,0.201
62.5600,0.209
62.6000,0.245
62.6400,0.212
62.6800,0.195
62.7200,0.221
62.7600,0.212
62.8000,0.241
62.8400,0.243
62.8800,0.211
62.9200,0.195
62.9600,0.214
63.0000,0.226
63.0400,0.233
63.0800,0.235
63.1200,0.238
63.1600,0.229
63.2000,0.229
63.2400,0.232
63.2800,0.236
63.3200,0.229
63.3600,0.241
63.4000,0.226
63.4400,0.218
63.4800,0.237
63.5200,0.259
63.5600,0.258
63.6000,0.255
63.6400,0.261
63.6800,0.264
63.7200,0.250
63.7600,0.258
63.8000,0.279
63.8400,0.292
63.8800,0.271
63.9200,0.280
63.9600,0.292
64.0000,0.289
64.0400,0.342
64.0800,0.316
64.1200,0.327
64.1600,0.341
64.2000,0.377
64.2400,0.356
64.2800,0.411
64.3200,0.434
64.3600,0.452
64.4000,0.509
64.4400,0.579
64.4800,0.690
64.5200,0.825
64.5600,1.054
64.6000,1.351
64.6400,1.729
64.6800,2.169
64.7200,2.553
64.7600,2.822
64.8000,2.810
64.8400,2.648
64.8800,2.405
64.9200,2.150
64.9600,1.947
65.0000,1.608
65.0400,1.308
65.0800,0.966
65.1200,0.801
65.1600,0.685
65.2000,0.568
65.2400,0.512
65.2800,0.502
65.3200,0.429
65.3600,0.437
65.4000,0.414
65.4400,0.362
65.4800,0.370
65.5200,0.351
65.5600,0.340
65.6000,0.355
65.6400,0.363
65.6800,0.337
65.7200,0.325
65.7600,0.318
65.8000,0.321
65.8400,0.329
65.8800,0.308
65.9200,0.307
65.9600,0.312
66.0000,0.330
66.0400,0.332
66.0800,0.340
66.1200,0.334
66.1600,0.320
66.2000,0.294
66.2400,0.330
66.2800,0.352
66.3200,0.331
66.3600,0.328
66.4000,0.332
66.4400,0.311
66.4800,0.323
66.5200,0.365
66.5600,0.343
66.6000,0.357
66.6400,0.355
66.6800,0.347
66.7200,0.337
66.7600,0.345
66.8000,0.341
66.8400,0.377
66.8800,0.360
66.9200,0.353
66.9600,0.389
67.0000,0.365
67.0400,0.365
67.0800,0.393
67.1200,0.375
67.1600,0.381
67.2000,0.390
67.2400,0.395
67.2800,0.399
67.3200,0.398
67.3600,0.438
67.4000,0.435
67.4400,0.422
67.4800,0.422
67.5200,0.438
67.5600,0.434
67.6000,0.459
67.6400,0.460
67.6800,0.462
67.7200,0.505
67.7600,0.501
67.8000,0.486
67.8400,0.482
67.8800,0.503
67.9200,0.538
67.9600,0.552
68.0000,0.524
68.0400,0.532
68.0800,0.526
68.1200,0.560
68.1600,0.568
68.2000,0.567
68.2400,0.572
68.2800,0.612
68.3200,0.650
68.3600,0.682
68.4000,0.654
68.4400,0.716
68.4800,0.727
68.5200,0.744
68.5600,0.786
68.6000,0.840
68.6400,0.878
68.6800,0.982
68.7200,1.205
68.7600,1.385
68.8000,1.623
68.8400,1.848
68.8800,1.945
68.9200,2.133
68.9600,2.706
69.0000,4.213
69.0400,10.406
69.0800,37.282
69.1200,65.113
69.1600,77.301
69.2000,70.114
69.2400,40.201
69.2800,28.381
69.3200,37.913
69.3600,42.072
69.4000,35.946
69.4400,18.004
69.4800,5.512
69.5200,2.887
69.5600,2.099
69.6000,1.653
69.6400,1.463
69.6800,1.314
69.7200,1.119
69.7600,1.094
69.8000,1.009
69.8400,0.958
69.8800,0.925
69.9200,0.886
69.9600,0.827
70.0000,0.813
70.0400,0.763
70.0800,0.762
70.1200,0.727
70.1600,0.680
70.2000,0.671
70.2400,0.690
70.2800,0.669
70.3200,0.661
70.3600,0.653
70.4000,0.595
70.4400,0.585
70.4800,0.586
70.5200,0.554
70.5600,0.563
70.6000,0.571
70.6400,0.544
70.6800,0.529
70.7200,0.523
70.7600,0.504
70.8000,0.484
70.8400,0.491
70.8800,0.479
70.9200,0.450
70.9600,0.467
71.0000,0.442
71.0400,0.434
71.0800,0.460
71.1200,0.422
71.1600,0.446
71.2000,0.405
71.2400,0.389
71.2800,0.425
71.3200,0.398
71.3600,0.422
71.4000,0.398
71.4400,0.365
71.4800,0.360
71.5200,0.371
71.5600,0.389
71.6000,0.362
71.6400,0.368
71.6800,0.376
71.7200,0.367
71.7600,0.338
71.8000,0.316
71.8400,0.333
71.8800,0.313
71.9200,0.307
71.9600,0.309
72.0000,0.335
72.0400,0.314
72.0800,0.324
72.1200,0.319
72.1600,0.327
72.2000,0.296
72.2400,0.290
72.2800,0.261
72.3200,0.287
72.3600,0.281
72.4000,0.306
72.4400,0.283
72.4800,0.272
72.5200,0.243
72.5600,0.259
72.6000,0.270
72.6400,0.271
72.6800,0.262
72.7200,0.249
72.7600,0.265
72.8000,0.250
72.8400,0.247
72.8800,0.254
72.9200,0.247
72.9600,0.233
73.0000,0.257
73.0400,0.232
73.0800,0.270
73.1200,0.236
73.1600,0.271
73.2000,0.254
73.2400,0.240
73.2800,0.232
73.3200,0.252
73.3600,0.225
73.4000,0.233
73.4400,0.227
73.4800,0.232
73.5200,0.220
73.5600,0.217
73.6000,0.220
73.6400,0.242
73.6800,0.232
73.7200,0.227
73.7600,0.217
73.8000,0.223
73.8400,0.215
73.8800,0.223
73.9200,0.201
73.9600,0.224
74.0000,0.227
74.0400,0.200
74.0800,0.219
74.1200,0.220
74.1600,0.216
74.2000,0.204
74.2400,0.223
74.2800,0.205
74.3200,0.216
74.3600,0.210
74.4000,0.215
74.4400,0.207
74.4800,0.200
74.5200,0.217
74.5600,0.199
74.6000,0.204
74.6400,0.198
74.6800,0.195
74.7200,0.196
74.7600,0.204
74.8000,0.212
74.8400,0.186
74.8800,0.199
74.9200,0.199
74.9600,0.189
75.0000,0.215
75.0400,0.200
75.0800,0.192
75.1200,0.194
75.1600,0.191
75.2000,0.200
75.2400,0.181
75.2800,0.174
75.3200,0.193
75.3600,0.189
75.4000,0.207
75.4400,0.195
75.4800,0.194
75.5200,0.195
75.5600,0.187
75.6000,0.199
75.6400,0.204
75.6800,0.183
75.7200,0.190
75.7600,0.196
75.8000,0.195
75.8400,0.177
75.8800,0.208
75.9200,0.182
75.9600,0.205
76.0000,0.200
76.0400,0.198
76.0800,0.200
76.1200,0.200
76.1600,0.208
76.2000,0.194
76.2400,0.186
76.2800,0.194
76.3200,0.213
76.3600,0.207
76.4000,0.202
76.4400,0.202
76.4800,0.193
76.5200,0.202
76.5600,0.206
76.6000,0.205
76.6400,0.189
76.6800,0.201
76.7200,0.229
76.7600,0.205
76.8000,0.237
76.8400,0.228
76.8800,0.228
76.9200,0.215
76.9600,0.236
77.0000,0.236
77.0400,0.223
77.0800,0.251
77.1200,0.242
77.1600,0.254
77.2000,0.264
77.2400,0.292
77.2800,0.305
77.3200,0.335
77.3600,0.334
77.4000,0.334
77.4400,0.426
77.4800,0.481
77.5200,0.523
77.5600,0.664
77.6000,0.784
77.6400,1.011
77.6800,1.253
77.7200,1.523
77.7600,1.921
77.8000,2.102
77.8400,2.171
77.8800,2.131
77.9200,2.028
77.9600,1.807
78.0000,1.708
78.0400,1.644
78.0800,1.435
78.1200,1.246
78.1600,1.067
78.2000,0.869
78.2400,0.678
78.2800,0.540
78.3200,0.456
78.3600,0.437
78.4000,0.342
78.4400,0.319
78.4800,0.294
78.5200,0.296
78.5600,0.261
78.6000,0.253
78.6400,0.225
78.6800,0.246
78.7200,0.257
78.7600,0.236
78.8000,0.210
78.8400,0.202
78.8800,0.201
78.9200,0.202
78.9600,0.205
79.0000,0.204
79.0400,0.173
79.0800,0.192
79.1200,0.193
79.1600,0.200
79.2000,0.188
79.2400,0.184
79.2800,0.186
79.3200,0.183
79.3600,0.187
79.4000,0.172
79.4400,0.174
79.4800,0.156
79.5200,0.188
79.5600,0.161
79.6000,0.169
79.6400,0.193
79.6800,0.193
79.7200,0.180
79.7600,0.173
79.8000,0.174
79.8400,0.161
79.8800,0.167
79.9200,0.164
79.9600,0.161
80.0000,0.173
