theta,intensity
5.0000,6.285
5.0400,6.333
5.0800,6.184
5.1200,6.238
5.1600,6.058
5.2000,5.922
5.2400,5.897
5.2800,5.841
5.3200,5.839
5.3600,5.778
5.4000,5.707
5.4400,5.545
5.4800,5.394
5.5200,5.326
5.5600,5.233
5.6000,5.295
5.6400,5.235
5.6800,5.195
5.7200,5.106
5.7600,4.925
5.8000,4.824
5.8400,4.761
5.8800,4.727
5.9200,4.626
5.9600,4.621
6.0000,4.496
6.0400,4.489
6.0800,4.386
6.1200,4.286
6.1600,4.469
6.2000,4.429
6.2400,4.335
6.2800,4.281
6.3200,4.335
6.3600,4.403
6.4000,4.408
6.4400,4.368
6.4800,4.440
6.5200,4.343
6.5600,4.309
6.6000,4.278
6.6400,4.245
6.6800,4.147
6.7200,4.295
6.7600,4.147
6.8000,4.196
6.8400,4.390
6.8800,4.212
6.9200,4.228
6.9600,4.235
7.0000,4.108
7.0400,4.248
7.0800,4.075
7.1200,4.176
7.1600,4.110
7.2000,4.096
7.2400,4.232
7.2800,4.188
7.3200,4.064
7.3600,4.165
7.4000,4.052
7.4400,4.172
7.4800,4.064
7.5200,4.137
7.5600,4.119
7.6000,3.993
7.6400,4.093
7.6800,4.061
7.7200,4.093
7.7600,4.074
7.8000,4.010
7.8400,3.998
7.8800,3.962
7.9200,4.037
7.9600,3.998
8.0000,4.004
8.0400,3.979
8.0800,4.081
8.1200,4.126
8.1600,3.967
8.2000,3.940
8.2400,4.126
8.2800,4.121
8.3200,4.031
8.3600,3.961
8.4000,3.927
8.4400,3.908
8.4800,3.825
8.5200,3.944
8.5600,3.986
8.6000,3.886
8.6400,3.909
8.6800,3.948
8.7200,3.901
8.7600,4.028
8.8000,3.965
8.8400,3.826
8.8800,3.869
8.9200,3.946
8.9600,3.908
9.0000,3.845
9.0400,3.770
9.0800,3.898
9.1200,3.909
9.1600,3.854
9.2000,3.754
9.2400,3.776
9.2800,3.856
9.3200,3.891
9.3600,3.907
9.4000,3.809
9.4400,3.832
9.4800,3.753
9.5200,3.829
9.5600,3.659
9.6000,3.792
9.6400,3.759
9.6800,3.844
9.7200,3.876
9.7600,3.903
9.8000,3.855
9.8400,3.860
9.8800,3.727
9.9200,3.739
9.9600,3.745
10.0000,3.762
10.0400,3.760
10.0800,3.734
10.1200,3.696
10.1600,3.691
10.2000,3.661
10.2400,3.732
10.2800,3.703
10.3200,3.616
10.3600,3.673
10.4000,3.655
10.4400,3.760
10.4800,3.592
10.5200,3.657
10.5600,3.682
10.6000,3.622
10.6400,3.693
10.6800,3.673
10.7200,3.613
10.7600,3.748
10.8000,3.674
10.8400,3.591
10.8800,3.599
10.9200,3.764
10.9600,3.820
11.0000,3.692
11.0400,3.664
11.0800,3.519
11.1200,3.557
11.1600,3.696
11.2000,3.557
11.2400,3.674
11.2800,3.615
11.3200,3.549
11.3600,3.608
11.4000,3.719
11.4400,3.625
11.4800,3.587
11.5200,3.551
11.5600,3.565
11.6000,3.604
11.6400,3.519
11.6800,3.556
11.7200,3.583
11.7600,3.471
11.8000,3.524
11.8400,3.571
11.8800,3.567
11.9200,3.547
11.9600,3.518
12.0000,3.556
12.0400,3.621
12.0800,3.526
12.1200,3.471
12.1600,3.456
12.2000,3.509
12.2400,3.429
12.2800,3.534
12.3200,3.486
12.3600,3.495
12.4000,3.576
12.4400,3.463
12.4800,3.549
12.5200,3.587
12.5600,3.491
12.6000,3.475
12.6400,3.477
12.6800,3.363
12.7200,3.323
12.7600,3.467
12.8000,3.491
12.8400,3.412
12.8800,3.389
12.9200,3.481
12.9600,3.499
13.0000,3.435
13.0400,3.428
13.0800,3.530
13.1200,3.404
13.1600,3.373
13.2000,3.444
13.2400,3.385
13.2800,3.434
13.3200,3.460
13.3600,3.445
13.4000,3.383
13.4400,3.436
13.4800,3.327
13.5200,3.429
13.5600,3.348
13.6000,3.376
13.6400,3.352
13.6800,3.333
13.7200,3.369
13.7600,3.330
13.8000,3.399
13.8400,3.265
13.8800,3.410
13.9200,3.358
13.9600,3.258
14.0000,3.351
14.0400,3.324
14.0800,3.265
14.1200,3.329
14.1600,3.338
14.2000,3.305
14.2400,3.361
14.2800,3.306
14.3200,3.298
14.3600,3.272
14.4000,3.347
14.4400,3.278
14.4800,3.239
14.5200,3.343
14.5600,3.252
14.6000,3.298
14.6400,3.291
14.6800,3.218
14.7200,3.233
14.7600,3.257
14.8000,3.219
14.8400,3.298
14.8800,3.246
14.9200,3.141
14.9600,3.309
15.0000,3.147
15.0400,3.161
15.0800,3.250
15.1200,3.233
15.1600,3.225
15.2000,3.143
15.2400,3.292
15.2800,3.092
15.3200,3.158
15.3600,3.236
15.4000,3.264
15.4400,3.209
15.4800,3.052
15.5200,3.212
15.5600,3.176
15.6000,3.165
15.6400,3.197
15.6800,3.303
15.7200,3.122
15.7600,3.170
15.8000,3.083
15.8400,3.199
15.8800,3.147
15.9200,3.169
15.9600,3.145
16.0000,3.067
16.0400,3.088
16.0800,3.150
16.1200,3.042
16.1600,3.011
16.2000,3.063
16.2400,3.056
16.2800,3.117
16.3200,3.115
16.3600,3.111
16.4000,3.116
16.4400,3.129
16.4800,3.041
16.5200,3.128
16.5600,3.046
16.6000,3.068
16.6400,3.102
16.6800,3.067
16.7200,3.027
16.7600,3.140
16.8000,3.036
16.8400,3.046
16.8800,3.098
16.9200,3.103
16.9600,3.085
17.0000,2.951
17.0400,3.071
17.0800,2.955
17.1200,3.011
17.1600,3.047
17.2000,2.980
17.2400,3.001
17.2800,3.037
17.3200,3.042
17.3600,2.856
17.4000,2.998
17.4400,2.983
17.4800,2.975
17.5200,2.910
17.5600,3.004
17.6000,3.082
17.6400,3.151
17.6800,2.964
17.7200,2.946
17.7600,2.890
17.8000,2.946
17.8400,3.010
17.8800,2.962
17.9200,2.972
17.9600,2.990
18.0000,2.911
18.0400,2.969
18.0800,2.899
18.1200,2.991
18.1600,3.007
18.2000,2.986
18.2400,2.928
18.2800,3.007
18.3200,2.953
18.3600,2.887
18.4000,2.809
18.4400,2.896
18.4800,2.861
18.5200,2.870
18.5600,2.989
18.6000,2.957
18.6400,2.973
18.6800,2.896
18.7200,2.886
18.7600,2.926
18.8000,3.023
18.8400,2.823
18.8800,2.804
18.9200,2.867
18.9600,2.807
19.0000,2.813
19.0400,2.915
19.0800,2.823
19.1200,2.871
19.1600,2.865
19.2000,2.987
19.2400,2.863
19.2800,2.859
19.3200,2.820
19.3600,2.835
19.4000,2.841
19.4400,2.785
19.4800,2.760
19.5200,2.771
19.5600,2.770
19.6000,2.813
19.6400,2.862
19.6800,2.771
19.7200,2.805
19.7600,2.748
19.8000,2.727
19.8400,2.794
19.8800,2.820
19.9200,2.791
19.9600,2.760
20.0000,2.740
20.0400,2.826
20.0800,2.742
20.1200,2.737
20.1600,2.851
20.2000,2.821
20.2400,2.775
20.2800,2.742
20.3200,2.714
20.3600,2.723
20.4000,2.771
20.4400,2.649
20.4800,2.692
20.5200,2.769
20.5600,2.843
20.6000,2.655
20.6400,2.666
20.6800,2.703
20.7200,2.703
20.7600,2.657
20.8000,2.632
20.8400,2.656
20.8800,2.600
20.9200,2.701
20.9600,2.615
21.0000,2.682
21.0400,2.657
21.0800,2.663
21.1200,2.675
21.1600,2.728
21.2000,2.629
21.2400,2.680
21.2800,2.729
21.3200,2.596
21.3600,2.635
21.4000,2.748
21.4400,2.656
21.4800,2.603
21.5200,2.689
21.5600,2.634
21.6000,2.710
21.6400,2.605
21.6800,2.652
21.7200,2.674
21.7600,2.667
21.8000,2.678
21.8400,2.524
21.8800,2.645
21.9200,2.536
21.9600,2.577
22.0000,2.510
22.0400,2.693
22.0800,2.514
22.1200,2.624
22.1600,2.682
22.2000,2.557
22.2400,2.593
22.2800,2.614
22.3200,2.556
22.3600,2.575
22.4000,2.637
22.4400,2.624
22.4800,2.546
22.5200,2.603
22.5600,2.542
22.6000,2.641
22.6400,2.519
22.6800,2.510
22.7200,2.563
22.7600,2.499
22.8000,2.561
22.8400,2.587
22.8800,2.566
22.9200,2.502
22.9600,2.492
23.0000,2.575
23.0400,2.591
23.0800,2.598
23.1200,2.513
23.1600,2.579
23.2000,2.479
23.2400,2.589
23.2800,2.435
23.3200,2.543
23.3600,2.602
23.4000,2.531
23.4400,2.554
23.4800,2.546
23.5200,2.572
23.5600,2.568
23.6000,2.551
23.6400,2.483
23.6800,2.505
23.7200,2.574
23.7600,2.473
23.8000,2.449
23.8400,2.392
23.8800,2.509
23.9200,2.466
23.9600,2.476
24.0000,2.461
24.0400,2.400
24.0800,2.553
24.1200,2.464
24.1600,2.548
24.2000,2.443
24.2400,2.458
24.2800,2.427
24.3200,2.470
24.3600,2.456
24.4000,2.420
24.4400,2.407
24.4800,2.375
24.5200,2.400
24.5600,2.402
24.6000,2.457
24.6400,2.379
24.6800,2.376
24.7200,2.438
24.7600,2.489
24.8000,2.431
24.8400,2.302
24.8800,2.424
24.9200,2.351
24.9600,2.355
25.0000,2.244
25.0400,2.402
25.0800,2.442
25.1200,2.362
25.1600,2.382
25.2000,2.341
25.2400,2.312
25.2800,2.350
25.3200,2.377
25.3600,2.339
25.4000,2.321
25.4400,2.245
25.4800,2.298
25.5200,2.298
25.5600,2.332
25.6000,2.358
25.6400,2.325
25.6800,2.320
25.7200,2.435
25.7600,2.371
25.8000,2.342
25.8400,2.219
25.8800,2.340
25.9200,2.370
25.9600,2.278
26.0000,2.294
26.0400,2.318
26.0800,2.256
26.1200,2.289
26.1600,2.371
26.2000,2.339
26.2400,2.355
26.2800,2.281
26.3200,2.365
26.3600,2.350
26.4000,2.313
26.4400,2.316
26.4800,2.283
26.5200,2.281
26.5600,2.320
26.6000,2.284
26.6400,2.298
26.6800,2.294
26.7200,2.314
26.7600,2.258
26.8000,2.309
26.8400,2.315
26.8800,2.270
26.9200,2.332
26.9600,2.275
27.0000,2.265
27.0400,2.308
27.0800,2.279
27.1200,2.352
27.1600,2.333
27.2000,2.378
27.2400,2.376
27.2800,2.295
27.3200,2.314
27.3600,2.327
27.4000,2.295
27.4400,2.308
27.4800,2.397
27.5200,2.407
27.5600,2.396
27.6000,2.355
27.6400,2.470
27.6800,2.431
27.7200,2.534
27.7600,2.600
27.8000,2.584
27.8400,2.632
27.8800,2.727
27.9200,2.862
27.9600,2.907
28.0000,2.997
28.0400,3.136
28.0800,3.262
28.1200,3.482
28.1600,3.598
28.2000,3.705
28.2400,3.922
28.2800,4.045
28.3200,3.978
28.3600,4.078
28.4000,3.751
28.4400,3.772
28.4800,3.580
28.5200,3.329
28.5600,3.186
28.6000,3.089
28.6400,2.936
28.6800,2.741
28.7200,2.686
28.7600,2.583
28.8000,2.567
28.8400,2.430
28.8800,2.396
28.9200,2.367
28.9600,2.320
29.0000,2.370
29.0400,2.198
29.0800,2.166
29.1200,2.171
29.1600,2.203
29.2000,2.235
29.2400,2.223
29.2800,2.134
29.3200,2.045
29.3600,2.118
29.4000,2.138
29.4400,2.147
29.4800,2.191
29.5200,2.117
29.5600,2.064
29.6000,2.077
29.6400,2.030
29.6800,2.095
29.7200,2.097
29.7600,2.057
29.8000,2.026
29.8400,1.998
29.8800,2.137
29.9200,1.978
29.9600,2.034
30.0000,2.046
30.0400,2.045
30.0800,2.020
30.1200,1.933
30.1600,2.108
30.2000,2.055
30.2400,1.981
30.2800,2.001
30.3200,2.023
30.3600,2.014
30.4000,1.931
30.4400,1.951
30.4800,1.945
30.5200,2.045
30.5600,1.963
30.6000,2.021
30.6400,1.987
30.6800,1.961
30.7200,1.981
30.7600,2.048
30.8000,2.043
30.8400,2.015
30.8800,2.025
30.9200,1.982
30.9600,2.070
31.0000,2.078
31.0400,2.049
31.0800,2.093
31.1200,2.112
31.1600,2.080
31.2000,2.207
31.2400,2.254
31.2800,2.205
31.3200,2.244
31.3600,2.295
31.4000,2.381
31.4400,2.393
31.4800,2.448
31.5200,2.489
31.5600,2.627
31.6000,2.606
31.6400,2.715
31.6800,2.773
31.7200,2.865
31.7600,3.020
31.8000,3.044
31.8400,3.157
31.8800,2.993
31.9200,2.902
31.9600,2.933
32.0000,2.770
32.0400,2.694
32.0800,2.520
32.1200,2.537
32.1600,2.591
32.2000,2.497
32.2400,2.276
32.2800,2.329
32.3200,2.249
32.3600,2.212
32.4000,2.168
32.4400,2.179
32.4800,2.161
32.5200,2.063
32.5600,2.135
32.6000,2.108
32.6400,1.994
32.6800,2.018
32.7200,1.970
32.7600,2.045
32.8000,2.028
32.8400,1.968
32.8800,1.990
32.9200,2.029
32.9600,2.017
33.0000,1.941
33.0400,1.907
33.0800,1.943
33.1200,2.074
33.1600,1.945
33.2000,2.016
33.2400,1.954
33.2800,1.904
33.3200,1.867
33.3600,1.945
33.4000,1.989
33.4400,1.941
33.4800,1.942
33.5200,2.057
33.5600,1.960
33.6000,1.943
33.6400,1.861
33.6800,2.075
33.7200,1.989
33.7600,1.999
33.8000,2.072
33.8400,1.982
33.8800,2.142
33.9200,2.143
33.9600,2.099
34.0000,2.156
34.0400,2.195
34.0800,2.231
34.1200,2.268
34.1600,2.268
34.2000,2.338
34.2400,2.295
34.2800,2.415
34.3200,2.401
34.3600,2.307
34.4000,2.381
34.4400,2.419
34.4800,2.375
34.5200,2.409
34.5600,2.356
34.6000,2.300
34.6400,2.306
34.6800,2.324
34.7200,2.328
34.7600,2.195
34.8000,2.199
34.8400,2.238
34.8800,2.194
34.9200,2.111
34.9600,2.115
35.0000,2.081
35.0400,2.123
35.0800,2.049
35.1200,2.026
35.1600,2.059
35.2000,2.066
35.2400,2.025
35.2800,2.009
35.3200,2.022
35.3600,2.022
35.4000,2.034
35.4400,2.071
35.4800,2.082
35.5200,2.080
35.5600,2.191
35.6000,2.111
35.6400,2.189
35.6800,2.226
35.7200,2.303
35.7600,2.303
35.8000,2.323
35.8400,2.366
35.8800,2.479
35.9200,2.559
35.9600,2.581
36.0000,2.587
36.0400,2.664
36.0800,2.824
36.1200,3.050
36.1600,3.094
36.2000,3.145
36.2400,3.129
36.2800,3.165
36.3200,3.171
36.3600,3.153
36.4000,3.012
36.4400,3.025
36.4800,2.769
36.5200,2.795
36.5600,2.701
36.6000,2.581
36.6400,2.612
36.6800,2.483
36.7200,2.345
36.7600,2.397
36.8000,2.311
36.8400,2.272
36.8800,2.238
36.9200,2.119
36.9600,2.068
37.0000,2.059
37.0400,2.049
37.0800,1.922
37.1200,1.949
37.1600,1.972
37.2000,2.017
37.2400,1.973
37.2800,1.897
37.3200,1.885
37.3600,1.907
37.4000,1.880
37.4400,1.886
37.4800,1.821
37.5200,1.853
37.5600,1.804
37.6000,1.871
37.6400,1.795
37.6800,1.837
37.7200,1.874
37.7600,1.812
37.8000,1.821
37.8400,1.865
37.8800,1.732
37.9200,1.826
37.9600,1.820
38.0000,1.857
38.0400,1.850
38.0800,1.852
38.1200,1.826
38.1600,1.827
38.2000,1.850
38.2400,1.854
38.2800,1.811
38.3200,1.859
38.3600,1.830
38.4000,1.875
38.4400,1.906
38.4800,1.912
38.5200,1.976
38.5600,1.855
38.6000,1.913
38.6400,1.982
38.6800,1.927
38.7200,1.940
38.7600,1.943
38.8000,1.980
38.8400,2.048
38.8800,1.969
38.9200,2.061
38.9600,2.027
39.0000,1.966
39.0400,2.040
39.0800,2.082
39.1200,2.082
39.1600,2.104
39.2000,2.141
39.2400,2.165
39.2800,2.168
39.3200,2.261
39.3600,2.333
39.4000,2.362
39.4400,2.400
39.4800,2.441
39.5200,2.566
39.5600,2.619
39.6000,2.737
39.6400,2.837
39.6800,2.881
39.7200,2.994
39.7600,3.139
39.8000,3.335
39.8400,3.585
39.8800,3.869
39.9200,4.208
39.9600,4.687
40.0000,4.981
40.0400,5.479
40.0800,6.100
40.1200,6.607
40.1600,7.346
40.2000,7.935
40.2400,8.541
40.2800,8.723
40.3200,8.951
40.3600,9.131
40.4000,9.103
40.4400,8.489
40.4800,8.004
40.5200,7.363
40.5600,6.616
40.6000,6.043
40.6400,5.114
40.6800,4.640
40.7200,4.154
40.7600,3.822
40.8000,3.524
40.8400,3.264
40.8800,2.969
40.9200,2.801
40.9600,2.659
41.0000,2.487
41.0400,2.375
41.0800,2.269
41.1200,2.245
41.1600,2.309
41.2000,2.152
41.2400,2.109
41.2800,2.072
41.3200,1.936
41.3600,1.881
41.4000,1.915
41.4400,1.949
41.4800,1.778
41.5200,1.776
41.5600,1.801
41.6000,1.731
41.6400,1.646
41.6800,1.621
41.7200,1.678
41.7600,1.613
41.8000,1.574
41.8400,1.480
41.8800,1.540
41.9200,1.534
41.9600,1.530
42.0000,1.456
42.0400,1.430
42.0800,1.480
42.1200,1.401
42.1600,1.440
42.2000,1.467
42.2400,1.360
42.2800,1.439
42.3200,1.445
42.3600,1.393
42.4000,1.421
42.4400,1.367
42.4800,1.372
42.5200,1.363
42.5600,1.362
42.6000,1.311
42.6400,1.298
42.6800,1.325
42.7200,1.278
42.7600,1.388
42.8000,1.330
42.8400,1.336
42.8800,1.359
42.9200,1.269
42.9600,1.307
43.0000,1.338
43.0400,1.252
43.0800,1.265
43.1200,1.255
43.1600,1.247
43.2000,1.284
43.2400,1.267
43.2800,1.217
43.3200,1.252
43.3600,1.260
43.4000,1.212
43.4400,1.239
43.4800,1.170
43.5200,1.216
43.5600,1.228
43.6000,1.233
43.6400,1.259
43.6800,1.209
43.7200,1.227
43.7600,1.220
43.8000,1.184
43.8400,1.190
43.8800,1.227
43.9200,1.158
43.9600,1.120
44.0000,1.157
44.0400,1.154
44.0800,1.183
44.1200,1.188
44.1600,1.151
44.2000,1.194
44.2400,1.144
44.2800,1.151
44.3200,1.165
44.3600,1.142
44.4000,1.083
44.4400,1.124
44.4800,1.200
44.5200,1.156
44.5600,1.165
44.6000,1.095
44.6400,1.147
44.6800,1.094
44.7200,1.086
44.7600,1.059
44.8000,1.095
44.8400,1.117
44.8800,1.128
44.9200,1.108
44.9600,1.120
45.0000,1.078
45.0400,1.097
45.0800,1.098
45.1200,1.101
45.1600,1.134
45.2000,1.135
45.2400,1.139
45.2800,1.070
45.3200,1.086
45.3600,1.124
45.4000,1.107
45.4400,1.090
45.4800,1.120
45.5200,1.131
45.5600,1.101
45.6000,1.114
45.6400,1.045
45.6800,1.052
45.7200,1.058
45.7600,1.097
45.8000,1.109
45.8400,1.124
45.8800,1.104
45.9200,1.166
45.9600,1.100
46.0000,1.081
46.0400,1.069
46.0800,1.057
46.1200,1.062
46.1600,1.085
46.2000,1.135
46.2400,1.086
46.2800,1.084
46.3200,1.052
46.3600,1.075
46.4000,1.068
46.4400,1.081
46.4800,1.103
46.5200,1.100
46.5600,1.080
46.6000,1.084
46.6400,1.085
46.6800,1.038
46.7200,1.034
46.7600,1.087
46.8000,1.073
46.8400,1.034
46.8800,1.120
46.9200,1.097
46.9600,1.060
47.0000,1.099
47.0400,1.100
47.0800,1.042
47.1200,1.078
47.1600,1.134
47.2000,1.017
47.2400,1.120
47.2800,1.088
47.3200,1.084
47.3600,1.150
47.4000,1.109
47.4400,1.129
47.4800,1.111
47.5200,1.142
47.5600,1.108
47.6000,1.169
47.6400,1.083
47.6800,1.096
47.7200,1.074
47.7600,1.046
47.8000,1.052
47.8400,1.070
47.8800,1.029
47.9200,1.048
47.9600,1.058
48.0000,1.102
48.0400,1.060
48.0800,1.034
48.1200,1.003
48.1600,0.971
48.2000,1.006
48.2400,0.987
48.2800,1.009
48.3200,1.025
48.3600,1.037
48.4000,1.025
48.4400,0.986
48.4800,0.956
48.5200,0.968
48.5600,0.996
48.6000,1.015
48.6400,0.954
48.6800,0.941
48.7200,0.945
48.7600,0.958
48.8000,1.059
48.8400,0.950
48.8800,0.973
48.9200,0.963
48.9600,0.960
49.0000,0.979
49.0400,0.936
49.0800,0.996
49.1200,0.932
49.1600,0.976
49.2000,0.894
49.2400,0.944
49.2800,0.975
49.3200,0.932
49.3600,0.909
49.4000,0.984
49.4400,0.958
49.4800,0.959
49.5200,0.955
49.5600,0.992
49.6000,0.973
49.6400,1.017
49.6800,1.052
49.7200,1.065
49.7600,1.176
49.8000,1.222
49.8400,1.203
49.8800,1.204
49.9200,1.232
49.9600,1.174
50.0000,1.162
50.0400,1.154
50.0800,1.105
50.1200,1.118
50.1600,1.061
50.2000,1.068
50.2400,1.024
50.2800,0.958
50.3200,0.963
50.3600,0.941
50.4000,0.908
50.4400,0.906
50.4800,0.881
50.5200,0.956
50.5600,0.925
50.6000,0.906
50.6400,0.924
50.6800,0.870
50.7200,0.864
50.7600,0.909
50.8000,0.910
50.8400,0.883
50.8800,0.906
50.9200,0.833
50.9600,0.854
51.0000,0.868
51.0400,0.878
51.0800,0.960
51.1200,0.882
51.1600,0.849
51.2000,0.853
51.2400,0.855
51.2800,0.829
51.3200,0.894
51.3600,0.876
51.4000,0.887
51.4400,0.874
51.4800,0.891
51.5200,0.851
51.5600,0.838
51.6000,0.810
51.6400,0.821
51.6800,0.833
51.7200,0.855
51.7600,0.832
51.8000,0.802
51.8400,0.856
51.8800,0.824
51.9200,0.809
51.9600,0.850
52.0000,0.808
52.0400,0.801
52.0800,0.788
52.1200,0.864
52.1600,0.794
52.2000,0.779
52.2400,0.783
52.2800,0.796
52.3200,0.769
52.3600,0.782
52.4000,0.777
52.4400,0.795
52.4800,0.772
52.5200,0.809
52.5600,0.821
52.6000,0.827
52.6400,0.791
52.6800,0.787
52.7200,0.795
52.7600,0.754
52.8000,0.827
52.8400,0.836
52.8800,0.826
52.9200,0.834
52.9600,0.792
53.0000,0.799
53.0400,0.772
53.0800,0.809
53.1200,0.803
53.1600,0.763
53.2000,0.827
53.2400,0.779
53.2800,0.795
53.3200,0.718
53.3600,0.795
53.4000,0.754
53.4400,0.807
53.4800,0.821
53.5200,0.798
53.5600,0.785
53.6000,0.778
53.6400,0.737
53.6800,0.780
53.7200,0.766
53.7600,0.789
53.8000,0.769
53.8400,0.745
53.8800,0.790
53.9200,0.777
53.9600,0.779
54.0000,0.733
54.0400,0.811
54.0800,0.798
54.1200,0.735
54.1600,0.770
54.2000,0.752
54.2400,0.762
54.2800,0.735
54.3200,0.779
54.3600,0.769
54.4000,0.738
54.4400,0.746
54.4800,0.740
54.5200,0.732
54.5600,0.719
54.6000,0.759
54.6400,0.728
54.6800,0.749
54.7200,0.765
54.7600,0.744
54.8000,0.754
54.8400,0.771
54.8800,0.754
54.9200,0.781
54.9600,0.769
55.0000,0.729
55.0400,0.780
55.0800,0.766
55.1200,0.759
55.1600,0.760
55.2000,0.760
55.2400,0.734
55.2800,0.764
55.3200,0.763
55.3600,0.769
55.4000,0.741
55.4400,0.796
55.4800,0.770
55.5200,0.768
55.5600,0.769
55.6000,0.763
55.6400,0.789
55.6800,0.763
55.7200,0.785
55.7600,0.780
55.8000,0.799
55.8400,0.822
55.8800,0.818
55.9200,0.802
55.9600,0.836
56.0000,0.809
56.0400,0.820
56.0800,0.815
56.1200,0.817
56.1600,0.838
56.2000,0.848
56.2400,0.901
56.2800,0.912
56.3200,0.923
56.3600,0.886
56.4000,0.918
56.4400,0.993
56.4800,0.955
56.5200,0.994
56.5600,1.015
56.6000,0.985
56.6400,1.121
56.6800,1.062
56.7200,1.059
56.7600,1.013
56.8000,1.029
56.8400,1.034
56.8800,0.972
56.9200,0.999
56.9600,0.928
57.0000,0.978
57.0400,0.945
57.0800,0.900
57.1200,0.866
57.1600,0.910
57.2000,0.927
57.2400,0.889
57.2800,0.870
57.3200,0.864
57.3600,0.848
57.4000,0.834
57.4400,0.881
57.4800,0.823
57.5200,0.843
57.5600,0.844
57.6000,0.855
57.6400,0.842
57.6800,0.856
57.7200,0.836
57.7600,0.904
57.8000,0.900
57.8400,0.844
57.8800,0.856
57.9200,0.817
57.9600,0.879
58.0000,0.891
58.0400,0.922
58.0800,0.938
58.1200,0.920
58.1600,0.932
58.2000,0.905
58.2400,0.931
58.2800,0.973
58.3200,0.962
58.3600,0.995
58.4000,1.070
58.4400,1.001
58.4800,1.003
58.5200,1.027
58.5600,0.976
58.6000,1.007
58.6400,0.975
58.6800,0.960
58.7200,0.991
58.7600,1.003
58.8000,0.946
58.8400,0.911
58.8800,0.923
58.9200,0.857
58.9600,0.904
59.0000,0.928
59.0400,0.862
59.0800,0.852
59.1200,0.858
59.1600,0.859
59.2000,0.811
59.2400,0.788
59.2800,0.804
59.3200,0.792
59.3600,0.789
59.4000,0.795
59.4400,0.715
59.4800,0.709
59.5200,0.768
59.5600,0.750
59.6000,0.733
59.6400,0.745
59.6800,0.708
59.7200,0.746
59.7600,0.737
59.8000,0.706
59.8400,0.752
59.8800,0.669
59.9200,0.711
59.9600,0.697
60.0000,0.668
60.0400,0.676
60.0800,0.692
60.1200,0.684
60.1600,0.734
60.2000,0.718
60.2400,0.680
60.2800,0.688
60.3200,0.731
60.3600,0.693
60.4000,0.654
60.4400,0.676
60.4800,0.693
60.5200,0.679
60.5600,0.632
60.6000,0.642
60.6400,0.670
60.6800,0.651
60.7200,0.667
60.7600,0.688
60.8000,0.668
60.8400,0.650
60.8800,0.606
60.9200,0.598
60.9600,0.663
61.0000,0.705
61.0400,0.663
61.0800,0.622
61.1200,0.641
61.1600,0.628
61.2000,0.649
61.2400,0.661
61.2800,0.619
61.3200,0.625
61.3600,0.680
61.4000,0.631
61.4400,0.651
61.4800,0.623
61.5200,0.644
61.5600,0.661
61.6000,0.706
61.6400,0.712
61.6800,0.730
61.7200,0.700
61.7600,0.679
61.8000,0.679
61.8400,0.626
61.8800,0.639
61.9200,0.674
61.9600,0.687
62.0000,0.681
62.0400,0.655
62.0800,0.649
62.1200,0.688
62.1600,0.695
62.2000,0.703
62.2400,0.739
62.2800,0.705
62.3200,0.732
62.3600,0.712
62.4000,0.673
62.4400,0.744
62.4800,0.703
62.5200,0.760
62.5600,0.720
62.6000,0.798
62.6400,0.748
62.6800,0.766
62.7200,0.740
62.7600,0.770
62.8000,0.824
62.8400,0.709
62.8800,0.743
62.9200,0.758
62.9600,0.755
63.0000,0.786
63.0400,0.743
63.0800,0.767
63.1200,0.783
63.1600,0.746
63.2000,0.719
63.2400,0.785
63.2800,0.754
63.3200,0.727
63.3600,0.712
63.4000,0.715
63.4400,0.736
63.4800,0.716
63.5200,0.648
63.5600,0.699
63.6000,0.729
63.6400,0.664
63.6800,0.651
63.7200,0.663
63.7600,0.645
63.8000,0.755
63.8400,0.741
63.8800,0.732
63.9200,0.689
63.9600,0.659
64.0000,0.657
64.0400,0.642
64.0800,0.667
64.1200,0.669
64.1600,0.654
64.2000,0.680
64.2400,0.633
64.2800,0.657
64.3200,0.676
64.3600,0.671
64.4000,0.681
64.4400,0.616
64.4800,0.670
64.5200,0.669
64.5600,0.721
64.6000,0.675
64.6400,0.682
64.6800,0.600
64.7200,0.667
64.7600,0.670
64.8000,0.641
64.8400,0.687
64.8800,0.705
64.9200,0.683
64.9600,0.700
65.0000,0.663
65.0400,0.657
65.0800,0.704
65.1200,0.676
65.1600,0.756
65.2000,0.703
65.2400,0.699
65.2800,0.734
65.3200,0.738
65.3600,0.773
65.4000,0.718
65.4400,0.797
65.4800,0.786
65.5200,0.789
65.5600,0.791
65.6000,0.789
65.6400,0.815
65.6800,0.832
65.7200,0.836
65.7600,0.831
65.8000,0.839
65.8400,0.840
65.8800,0.823
65.9200,0.875
65.9600,0.884
66.0000,0.981
66.0400,0.970
66.0800,0.930
66.1200,0.975
66.1600,0.895
66.2000,0.954
66.2400,0.969
66.2800,0.982
66.3200,0.973
66.3600,0.976
66.4000,1.011
66.4400,0.990
66.4800,0.996
66.5200,1.049
66.5600,1.044
66.6000,1.065
66.6400,1.027
66.6800,1.027
66.7200,1.048
66.7600,1.046
66.8000,1.025
66.8400,1.053
66.8800,1.066
66.9200,1.097
66.9600,1.099
67.0000,1.099
67.0400,1.090
67.0800,1.163
67.1200,1.210
67.1600,1.174
67.2000,1.220
67.2400,1.201
67.2800,1.235
67.3200,1.294
67.3600,1.257
67.4000,1.347
67.4400,1.381
67.4800,1.339
67.5200,1.400
67.5600,1.452
67.6000,1.420
67.6400,1.475
67.6800,1.491
67.7200,1.459
67.7600,1.499
67.8000,1.625
67.8400,1.584
67.8800,1.744
67.9200,1.741
67.9600,1.768
68.0000,1.888
68.0400,1.877
68.0800,1.878
68.1200,1.893
68.1600,1.966
68.2000,1.985
68.2400,2.104
68.2800,2.176
68.3200,2.136
68.3600,2.287
68.4000,2.342
68.4400,2.508
68.4800,2.615
68.5200,2.698
68.5600,2.849
68.6000,3.092
68.6400,3.323
68.6800,3.801
68.7200,4.984
68.7600,6.250
68.8000,7.280
68.8400,7.671
68.8800,7.761
68.9200,9.067
68.9600,11.879
69.0000,18.781
69.0400,41.091
69.0800,186.167
69.1200,485.129
69.1600,401.517
69.2000,113.716
69.2400,49.854
69.2800,117.672
69.3200,254.929
69.3600,198.762
69.4000,57.165
69.4400,18.941
69.4800,11.170
69.5200,8.309
69.5600,6.835
69.6000,5.733
69.6400,4.803
69.6800,4.319
69.7200,3.968
69.7600,3.689
69.8000,3.423
69.8400,3.130
69.8800,2.994
69.9200,2.723
69.9600,2.613
70.0000,2.529
70.0400,2.460
70.0800,2.318
70.1200,2.302
70.1600,2.195
70.2000,2.130
70.2400,2.066
70.2800,2.029
70.3200,1.950
70.3600,1.882
70.4000,1.805
70.4400,1.789
70.4800,1.657
70.5200,1.624
70.5600,1.696
70.6000,1.608
70.6400,1.482
70.6800,1.540
70.7200,1.482
70.7600,1.431
70.8000,1.410
70.8400,1.364
70.8800,1.350
70.9200,1.285
70.9600,1.306
71.0000,1.212
71.0400,1.133
71.0800,1.195
71.1200,1.175
71.1600,1.223
71.2000,1.149
71.2400,1.162
71.2800,1.117
71.3200,1.037
71.3600,0.954
71.4000,1.024
71.4400,1.014
71.4800,0.951
71.5200,0.994
71.5600,0.981
71.6000,0.921
71.6400,0.953
71.6800,0.920
71.7200,0.908
71.7600,0.910
71.8000,0.865
71.8400,0.848
71.8800,0.881
71.9200,0.867
71.9600,0.896
72.0000,0.836
72.0400,0.851
72.0800,0.814
72.1200,0.814
72.1600,0.786
72.2000,0.814
72.2400,0.808
72.2800,0.802
72.3200,0.844
72.3600,0.830
72.4000,0.789
72.4400,0.829
72.4800,0.782
72.5200,0.785
72.5600,0.882
72.6000,0.788
72.6400,0.794
72.6800,0.838
72.7200,0.837
72.7600,0.854
72.8000,0.873
72.8400,0.919
72.8800,0.964
72.9200,0.940
72.9600,0.910
73.0000,0.938
73.0400,0.987
73.0800,0.989
73.1200,0.982
73.1600,1.036
73.2000,1.086
73.2400,1.084
73.2800,1.089
73.3200,1.134
73.3600,1.081
73.4000,1.077
73.4400,1.075
73.4800,1.127
73.5200,1.085
73.5600,1.067
73.6000,1.037
73.6400,1.066
73.6800,0.982
73.7200,0.919
73.7600,0.880
73.8000,0.843
73.8400,0.828
73.8800,0.846
73.9200,0.777
73.9600,0.723
74.0000,0.751
74.0400,0.692
74.0800,0.695
74.1200,0.668
74.1600,0.702
74.2000,0.670
74.2400,0.642
74.2800,0.602
74.3200,0.638
74.3600,0.604
74.4000,0.615
74.4400,0.608
74.4800,0.561
74.5200,0.537
74.5600,0.556
74.6000,0.529
74.6400,0.527
74.6800,0.546
74.7200,0.515
74.7600,0.540
74.8000,0.543
74.8400,0.520
74.8800,0.544
74.9200,0.509
74.9600,0.506
75.0000,0.502
75.0400,0.491
75.0800,0.481
75.1200,0.467
75.1600,0.487
75.2000,0.541
75.2400,0.504
75.2800,0.484
75.3200,0.466
75.3600,0.465
75.4000,0.484
75.4400,0.429
75.4800,0.476
75.5200,0.446
75.5600,0.471
75.6000,0.454
75.6400,0.433
75.6800,0.455
75.7200,0.460
75.7600,0.471
75.8000,0.476
75.8400,0.463
75.8800,0.457
75.9200,0.473
75.9600,0.436
76.0000,0.458
76.0400,0.460
76.0800,0.481
76.1200,0.443
76.1600,0.476
76.2000,0.416
76.2400,0.447
76.2800,0.477
76.3200,0.444
76.3600,0.429
76.4000,0.433
76.4400,0.429
76.4800,0.438
76.5200,0.467
76.5600,0.434
76.6000,0.438
76.6400,0.450
76.6800,0.390
76.7200,0.442
76.7600,0.431
76.8000,0.457
76.8400,0.414
76.8800,0.425
76.9200,0.419
76.9600,0.433
77.0000,0.420
77.0400,0.434
77.0800,0.431
77.1200,0.439
77.1600,0.456
77.2000,0.399
77.2400,0.428
77.2800,0.427
77.3200,0.450
77.3600,0.406
77.4000,0.418
77.4400,0.433
77.4800,0.410
77.5200,0.456
77.5600,0.376
77.6000,0.387
77.6400,0.416
77.6800,0.372
77.7200,0.371
77.7600,0.396
77.8000,0.392
77.8400,0.396
77.8800,0.414
77.9200,0.399
77.9600,0.371
78.0000,0.405
78.0400,0.420
78.0800,0.391
78.1200,0.383
78.1600,0.360
78.2000,0.396
78.2400,0.363
78.2800,0.425
78.3200,0.389
78.3600,0.393
78.4000,0.367
78.4400,0.373
78.4800,0.374
78.5200,0.361
78.5600,0.378
78.6000,0.388
78.6400,0.368
78.6800,0.348
78.7200,0.378
78.7600,0.361
78.8000,0.395
78.8400,0.414
78.8800,0.375
78.9200,0.360
78.9600,0.354
79.0000,0.380
79.0400,0.394
79.0800,0.350
79.1200,0.373
79.1600,0.381
79.2000,0.361
79.2400,0.376
79.2800,0.393
79.3200,0.362
79.3600,0.353
79.4000,0.366
79.4400,0.380
79.4800,0.364
79.5200,0.403
79.5600,0.366
79.6000,0.370
79.6400,0.346
79.6800,0.372
79.7200,0.352
79.7600,0.331
79.8000,0.339
79.8400,0.342
79.8800,0.363
79.9200,0.374
79.9600,0.343
80.0000,0.358
