theta,intensity
5.0000,3.334
5.0400,3.321
5.0800,3.198
5.1200,3.263
5.1600,3.176
5.2000,3.067
5.2400,3.021
5.2800,3.100
5.3200,2.928
5.3600,3.004
5.4000,2.933
5.4400,2.867
5.4800,2.834
5.5200,2.745
5.5600,2.749
5.6000,2.688
5.6400,2.601
5.6800,2.609
5.7200,2.523
5.7600,2.465
5.8000,2.490
5.8400,2.465
5.8800,2.397
5.9200,2.329
5.9600,2.284
6.0000,2.268
6.0400,2.176
6.0800,2.214
6.1200,2.173
6.1600,2.162
6.2000,2.130
6.2400,2.108
6.2800,2.021
6.3200,1.961
6.3600,1.954
6.4000,1.891
6.4400,1.844
6.4800,1.850
6.5200,1.797
6.5600,1.772
6.6000,1.738
6.6400,1.731
6.6800,1.631
6.7200,1.637
6.7600,1.636
6.8000,1.640
6.8400,1.584
6.8800,1.565
6.9200,1.548
6.9600,1.590
7.0000,1.514
7.0400,1.459
7.0800,1.491
7.1200,1.492
7.1600,1.396
7.2000,1.425
7.2400,1.361
7.2800,1.481
7.3200,1.431
7.3600,1.427
7.4000,1.440
7.4400,1.436
7.4800,1.446
7.5200,1.383
7.5600,1.432
7.6000,1.434
7.6400,1.461
7.6800,1.402
7.7200,1.405
7.7600,1.406
7.8000,1.385
7.8400,1.424
7.8800,1.393
7.9200,1.385
7.9600,1.356
8.0000,1.372
8.0400,1.352
8.0800,1.331
8.1200,1.368
8.1600,1.385
8.2000,1.409
8.2400,1.432
8.2800,1.388
8.3200,1.397
8.3600,1.366
8.4000,1.287
8.4400,1.382
8.4800,1.377
8.5200,1.364
8.5600,1.374
8.6000,1.362
8.6400,1.373
8.6800,1.378
8.7200,1.372
8.7600,1.364
8.8000,1.355
8.8400,1.371
8.8800,1.308
8.9200,1.355
8.9600,1.333
9.0000,1.369
9.0400,1.363
9.0800,1.348
9.1200,1.366
9.1600,1.338
9.2000,1.368
9.2400,1.323
9.2800,1.368
9.3200,1.312
9.3600,1.319
9.4000,1.308
9.4400,1.315
9.4800,1.323
9.5200,1.296
9.5600,1.324
9.6000,1.315
9.6400,1.333
9.6800,1.349
9.7200,1.315
9.7600,1.326
9.8000,1.312
9.8400,1.275
9.8800,1.333
9.9200,1.343
9.9600,1.311
10.0000,1.339
10.0400,1.310
10.0800,1.321
10.1200,1.292
10.1600,1.257
10.2000,1.241
10.2400,1.325
10.2800,1.259
10.3200,1.289
10.3600,1.330
10.4000,1.292
10.4400,1.259
10.4800,1.263
10.5200,1.267
10.5600,1.262
10.6000,1.260
10.6400,1.302
10.6800,1.306
10.7200,1.271
10.7600,1.299
10.8000,1.288
10.8400,1.305
10.8800,1.282
10.9200,1.242
10.9600,1.229
11.0000,1.268
11.0400,1.248
11.0800,1.247
11.1200,1.252
11.1600,1.301
11.2000,1.300
11.2400,1.267
11.2800,1.261
11.3200,1.218
11.3600,1.294
11.4000,1.302
11.4400,1.233
11.4800,1.262
11.5200,1.208
11.5600,1.235
11.6000,1.267
11.6400,1.184
11.6800,1.241
11.7200,1.250
11.7600,1.221
11.8000,1.277
11.8400,1.245
11.8800,1.220
11.9200,1.207
11.9600,1.245
12.0000,1.242
12.0400,1.210
12.0800,1.226
12.1200,1.224
12.1600,1.184
12.2000,1.199
12.2400,1.233
12.2800,1.210
12.3200,1.174
12.3600,1.205
12.4000,1.205
12.4400,1.232
12.4800,1.244
12.5200,1.265
12.5600,1.186
12.6000,1.225
12.6400,1.211
12.6800,1.143
12.7200,1.196
12.7600,1.233
12.8000,1.222
12.8400,1.201
12.8800,1.222
12.9200,1.212
12.9600,1.193
13.0000,1.207
13.0400,1.173
13.0800,1.170
13.1200,1.170
13.1600,1.198
13.2000,1.154
13.2400,1.211
13.2800,1.188
13.3200,1.236
13.3600,1.154
13.4000,1.187
13.4400,1.226
13.4800,1.160
13.5200,1.170
13.5600,1.178
13.6000,1.149
13.6400,1.160
13.6800,1.201
13.7200,1.170
13.7600,1.225
13.8000,1.227
13.8400,1.178
13.8800,1.150
13.9200,1.205
13.9600,1.209
14.0000,1.196
14.0400,1.151
14.0800,1.171
14.1200,1.191
14.1600,1.169
14.2000,1.155
14.2400,1.187
14.2800,1.174
14.3200,1.168
14.3600,1.132
14.4000,1.158
14.4400,1.115
14.4800,1.098
14.5200,1.119
14.5600,1.123
14.6000,1.086
14.6400,1.140
14.6800,1.150
14.7200,1.126
14.7600,1.105
14.8000,1.141
14.8400,1.092
14.8800,1.133
14.9200,1.125
14.9600,1.133
15.0000,1.105
15.0400,1.114
15.0800,1.142
15.1200,1.126
15.1600,1.122
15.2000,1.120
15.2400,1.119
15.2800,1.099
15.3200,1.071
15.3600,1.052
15.4000,1.106
15.4400,1.093
15.4800,1.083
15.5200,1.093
15.5600,1.128
15.6000,1.113
15.6400,1.074
15.6800,1.096
15.7200,1.063
15.7600,1.110
15.8000,1.125
15.8400,1.090
15.8800,1.070
15.9200,1.067
15.9600,1.056
16.0000,1.082
16.0400,1.084
16.0800,1.053
16.1200,1.080
16.1600,1.093
16.2000,1.143
16.2400,1.085
16.2800,1.072
16.3200,1.067
16.3600,1.081
16.4000,1.079
16.4400,1.003
16.4800,1.028
16.5200,1.082
16.5600,1.036
16.6000,1.052
16.6400,1.033
16.6800,1.040
16.7200,1.086
16.7600,1.039
16.8000,1.058
16.8400,1.102
16.8800,1.069
16.9200,1.046
16.9600,1.026
17.0000,1.035
17.0400,1.062
17.0800,1.007
17.1200,1.048
17.1600,1.084
17.2000,1.107
17.2400,1.073
17.2800,1.044
17.3200,1.048
17.3600,1.039
17.4000,1.052
17.4400,1.021
17.4800,1.029
17.5200,1.056
17.5600,1.054
17.6000,1.005
17.6400,1.020
17.6800,0.982
17.7200,1.015
17.7600,1.021
17.8000,1.005
17.8400,0.983
17.8800,1.020
17.9200,1.025
17.9600,1.006
18.0000,1.031
18.0400,1.023
18.0800,1.058
18.1200,1.010
18.1600,1.005
18.2000,1.026
18.2400,1.029
18.2800,1.013
18.3200,1.009
18.3600,1.022
18.4000,1.025
18.4400,0.989
18.4800,1.001
18.5200,0.977
18.5600,0.972
18.6000,0.957
18.6400,1.006
18.6800,1.009
18.7200,0.973
18.7600,0.970
18.8000,0.965
18.8400,1.048
18.8800,1.005
18.9200,0.961
18.9600,0.959
19.0000,0.927
19.0400,1.007
19.0800,1.004
19.1200,0.966
19.1600,0.947
19.2000,0.970
19.2400,0.928
19.2800,0.994
19.3200,0.998
19.3600,1.028
19.4000,0.992
19.4400,0.949
19.4800,0.963
19.5200,0.971
19.5600,0.994
19.6000,0.956
19.6400,0.935
19.6800,0.989
19.7200,0.941
19.7600,0.997
19.8000,0.958
19.8400,0.923
19.8800,0.933
19.9200,0.977
19.9600,0.956
20.0000,0.914
20.0400,0.955
20.0800,0.915
20.1200,0.931
20.1600,0.948
20.2000,0.948
20.2400,0.929
20.2800,0.918
20.3200,0.956
20.3600,0.914
20.4000,0.945
20.4400,0.961
20.4800,0.942
20.5200,0.893
20.5600,0.957
20.6000,0.899
20.6400,0.935
20.6800,0.955
20.7200,0.933
20.7600,0.945
20.8000,0.897
20.8400,0.889
20.8800,0.937
20.9200,0.933
20.9600,0.862
21.0000,0.913
21.0400,0.892
21.0800,0.932
21.1200,0.941
21.1600,0.930
21.2000,0.905
21.2400,0.900
21.2800,0.932
21.3200,0.937
21.3600,0.919
21.4000,0.916
21.4400,0.925
21.4800,0.918
21.5200,0.919
21.5600,0.896
21.6000,0.876
21.6400,0.892
21.6800,0.871
21.7200,0.933
21.7600,0.893
21.8000,0.908
21.8400,0.844
21.8800,0.859
21.9200,0.884
21.9600,0.906
22.0000,0.879
22.0400,0.860
22.0800,0.893
22.1200,0.890
22.1600,0.914
22.2000,0.895
22.2400,0.866
22.2800,0.836
22.3200,0.878
22.3600,0.830
22.4000,0.860
22.4400,0.847
22.4800,0.855
22.5200,0.853
22.5600,0.858
22.6000,0.838
22.6400,0.858
22.6800,0.839
22.7200,0.892
22.7600,0.856
22.8000,0.863
22.8400,0.858
22.8800,0.827
22.9200,0.829
22.9600,0.854
23.0000,0.862
23.0400,0.877
23.0800,0.850
23.1200,0.864
23.1600,0.837
23.2000,0.861
23.2400,0.815
23.2800,0.835
23.3200,0.795
23.3600,0.836
23.4000,0.811
23.4400,0.830
23.4800,0.801
23.5200,0.785
23.5600,0.831
23.6000,0.825
23.6400,0.806
23.6800,0.826
23.7200,0.845
23.7600,0.798
23.8000,0.795
23.8400,0.834
23.8800,0.831
23.9200,0.809
23.9600,0.752
24.0000,0.856
24.0400,0.822
24.0800,0.816
24.1200,0.803
24.1600,0.822
24.2000,0.810
24.2400,0.799
24.2800,0.814
24.3200,0.798
24.3600,0.802
24.4000,0.802
24.4400,0.801
24.4800,0.791
24.5200,0.788
24.5600,0.827
24.6000,0.821
24.6400,0.835
24.6800,0.800
24.7200,0.741
24.7600,0.795
24.8000,0.816
24.8400,0.796
24.8800,0.795
24.9200,0.812
24.9600,0.792
25.0000,0.793
25.0400,0.761
25.0800,0.770
25.1200,0.741
25.1600,0.760
25.2000,0.764
25.2400,0.772
25.2800,0.741
25.3200,0.768
25.3600,0.771
25.4000,0.782
25.4400,0.771
25.4800,0.759
25.5200,0.769
25.5600,0.755
25.6000,0.715
25.6400,0.737
25.6800,0.746
25.7200,0.779
25.7600,0.761
25.8000,0.755
25.8400,0.766
25.8800,0.741
25.9200,0.748
25.9600,0.763
26.0000,0.722
26.0400,0.696
26.0800,0.733
26.1200,0.731
26.1600,0.742
26.2000,0.771
26.2400,0.735
26.2800,0.722
26.3200,0.698
26.3600,0.743
26.4000,0.712
26.4400,0.731
26.4800,0.698
26.5200,0.705
26.5600,0.687
26.6000,0.753
26.6400,0.737
26.6800,0.688
26.7200,0.710
26.7600,0.711
26.8000,0.710
26.8400,0.694
26.8800,0.695
26.9200,0.719
26.9600,0.727
27.0000,0.762
27.0400,0.730
27.0800,0.706
27.1200,0.735
27.1600,0.731
27.2000,0.703
27.2400,0.684
27.2800,0.701
27.3200,0.674
27.3600,0.673
27.4000,0.702
27.4400,0.676
27.4800,0.695
27.5200,0.673
27.5600,0.711
27.6000,0.712
27.6400,0.713
27.6800,0.736
27.7200,0.708
27.7600,0.708
27.8000,0.684
27.8400,0.719
27.8800,0.718
27.9200,0.699
27.9600,0.710
28.0000,0.690
28.0400,0.680
28.0800,0.662
28.1200,0.665
28.1600,0.655
28.2000,0.699
28.2400,0.692
28.2800,0.676
28.3200,0.654
28.3600,0.669
28.4000,0.642
28.4400,0.662
28.4800,0.644
28.5200,0.658
28.5600,0.659
28.6000,0.645
28.6400,0.682
28.6800,0.682
28.7200,0.674
28.7600,0.669
28.8000,0.688
28.8400,0.650
28.8800,0.636
28.9200,0.629
28.9600,0.646
29.0000,0.638
29.0400,0.600
29.0800,0.609
29.1200,0.607
29.1600,0.628
29.2000,0.651
29.2400,0.639
29.2800,0.650
29.3200,0.665
29.3600,0.646
29.4000,0.636
29.4400,0.639
29.4800,0.639
29.5200,0.654
29.5600,0.636
29.6000,0.618
29.6400,0.613
29.6800,0.623
29.7200,0.606
29.7600,0.622
29.8000,0.653
29.8400,0.638
29.8800,0.627
29.9200,0.622
29.9600,0.646
30.0000,0.587
30.0400,0.640
30.0800,0.637
30.1200,0.613
30.1600,0.588
30.2000,0.628
30.2400,0.602
30.2800,0.625
30.3200,0.587
30.3600,0.610
30.4000,0.603
30.4400,0.616
30.4800,0.568
30.5200,0.591
30.5600,0.592
30.6000,0.593
30.6400,0.604
30.6800,0.613
30.7200,0.631
30.7600,0.659
30.8000,0.601
30.8400,0.598
30.8800,0.578
30.9200,0.600
30.9600,0.581
31.0000,0.609
31.0400,0.596
31.0800,0.584
31.1200,0.603
31.1600,0.587
31.2000,0.587
31.2400,0.590
31.2800,0.577
31.3200,0.542
31.3600,0.591
31.4000,0.556
31.4400,0.574
31.4800,0.588
31.5200,0.575
31.5600,0.566
31.6000,0.603
31.6400,0.567
31.6800,0.569
31.7200,0.593
31.7600,0.567
31.8000,0.581
31.8400,0.595
31.8800,0.572
31.9200,0.581
31.9600,0.562
32.0000,0.546
32.0400,0.602
32.0800,0.590
32.1200,0.542
32.1600,0.573
32.2000,0.551
32.2400,0.578
32.2800,0.549
32.3200,0.563
32.3600,0.551
32.4000,0.567
32.4400,0.526
32.4800,0.530
32.5200,0.550
32.5600,0.548
32.6000,0.561
32.6400,0.547
32.6800,0.570
32.7200,0.537
32.7600,0.557
32.8000,0.581
32.8400,0.539
32.8800,0.526
32.9200,0.550
32.9600,0.549
33.0000,0.532
33.0400,0.537
33.0800,0.543
33.1200,0.533
33.1600,0.528
33.2000,0.527
33.2400,0.525
33.2800,0.527
33.3200,0.551
33.3600,0.516
33.4000,0.545
33.4400,0.536
33.4800,0.480
33.5200,0.549
33.5600,0.542
33.6000,0.511
33.6400,0.527
33.6800,0.524
33.7200,0.548
33.7600,0.528
33.8000,0.509
33.8400,0.537
33.8800,0.497
33.9200,0.525
33.9600,0.502
34.0000,0.522
34.0400,0.526
34.0800,0.506
34.1200,0.493
34.1600,0.508
34.2000,0.519
34.2400,0.506
34.2800,0.497
34.3200,0.496
34.3600,0.522
34.4000,0.545
34.4400,0.531
34.4800,0.502
34.5200,0.511
34.5600,0.496
34.6000,0.476
34.6400,0.519
34.6800,0.518
34.7200,0.520
34.7600,0.499
34.8000,0.514
34.8400,0.502
34.8800,0.507
34.9200,0.516
34.9600,0.497
35.0000,0.497
35.0400,0.462
35.0800,0.491
35.1200,0.509
35.1600,0.534
35.2000,0.467
35.2400,0.512
35.2800,0.493
35.3200,0.466
35.3600,0.472
35.4000,0.460
35.4400,0.512
35.4800,0.485
35.5200,0.489
35.5600,0.495
35.6000,0.480
35.6400,0.494
35.6800,0.474
35.7200,0.474
35.7600,0.464
35.8000,0.467
35.8400,0.491
35.8800,0.469
35.9200,0.472
35.9600,0.460
36.0000,0.514
36.0400,0.518
36.0800,0.492
36.1200,0.539
36.1600,0.475
36.2000,0.520
36.2400,0.492
36.2800,0.527
36.3200,0.489
36.3600,0.487
36.4000,0.506
36.4400,0.523
36.4800,0.506
36.5200,0.511
36.5600,0.485
36.6000,0.486
36.6400,0.509
36.6800,0.480
36.7200,0.500
36.7600,0.504
36.8000,0.500
36.8400,0.509
36.8800,0.489
36.9200,0.512
36.9600,0.511
37.0000,0.530
37.0400,0.553
37.0800,0.528
37.1200,0.516
37.1600,0.516
37.2000,0.518
37.2400,0.533
37.2800,0.577
37.3200,0.561
37.3600,0.577
37.4000,0.634
37.4400,0.603
37.4800,0.591
37.5200,0.608
37.5600,0.666
37.6000,0.656
37.6400,0.673
37.6800,0.727
37.7200,0.785
37.7600,0.785
37.8000,0.853
37.8400,0.960
37.8800,1.050
37.9200,1.227
37.9600,1.439
38.0000,1.808
38.0400,2.327
38.0800,3.243
38.1200,5.025
38.1600,8.012
38.2000,11.991
38.2400,15.529
38.2800,16.915
38.3200,15.721
38.3600,12.897
38.4000,9.490
38.4400,6.333
38.4800,4.071
38.5200,2.761
38.5600,2.071
38.6000,1.684
38.6400,1.343
38.6800,1.222
38.7200,1.073
38.7600,0.912
38.8000,0.854
38.8400,0.820
38.8800,0.788
38.9200,0.756
38.9600,0.666
39.0000,0.659
39.0400,0.661
39.0800,0.625
39.1200,0.597
39.1600,0.589
39.2000,0.594
39.2400,0.516
39.2800,0.564
39.3200,0.539
39.3600,0.538
39.4000,0.504
39.4400,0.523
39.4800,0.498
39.5200,0.502
39.5600,0.485
39.6000,0.472
39.6400,0.482
39.6800,0.481
39.7200,0.456
39.7600,0.452
39.8000,0.477
39.8400,0.449
39.8800,0.442
39.9200,0.435
39.9600,0.457
40.0000,0.455
40.0400,0.443
40.0800,0.444
40.1200,0.464
40.1600,0.457
40.2000,0.475
40.2400,0.430
40.2800,0.433
40.3200,0.436
40.3600,0.397
40.4000,0.424
40.4400,0.443
40.4800,0.411
40.5200,0.385
40.5600,0.423
40.6000,0.428
40.6400,0.444
40.6800,0.403
40.7200,0.394
40.7600,0.416
40.8000,0.405
40.8400,0.415
40.8800,0.441
40.9200,0.420
40.9600,0.393
41.0000,0.397
41.0400,0.394
41.0800,0.378
41.1200,0.412
41.1600,0.414
41.2000,0.378
41.2400,0.388
41.2800,0.406
41.3200,0.401
41.3600,0.393
41.4000,0.396
41.4400,0.393
41.4800,0.370
41.5200,0.353
41.5600,0.383
41.6000,0.397
41.6400,0.389
41.6800,0.385
41.7200,0.400
41.7600,0.368
41.8000,0.385
41.8400,0.399
41.8800,0.391
41.9200,0.403
41.9600,0.407
42.0000,0.398
42.0400,0.395
42.0800,0.383
42.1200,0.401
42.1600,0.399
42.2000,0.377
42.2400,0.379
42.2800,0.379
42.3200,0.379
42.3600,0.393
42.4000,0.386
42.4400,0.389
42.4800,0.411
42.5200,0.373
42.5600,0.361
42.6000,0.376
42.6400,0.393
42.6800,0.417
42.7200,0.410
42.7600,0.398
42.8000,0.387
42.8400,0.387
42.8800,0.392
42.9200,0.385
42.9600,0.409
43.0000,0.367
43.0400,0.375
43.0800,0.382
43.1200,0.385
43.1600,0.408
43.2000,0.377
43.2400,0.398
43.2800,0.410
43.3200,0.391
43.3600,0.389
43.4000,0.404
43.4400,0.402
43.4800,0.410
43.5200,0.414
43.5600,0.423
43.6000,0.430
43.6400,0.439
43.6800,0.421
43.7200,0.443
43.7600,0.419
43.8000,0.461
43.8400,0.470
43.8800,0.474
43.9200,0.510
43.9600,0.528
44.0000,0.511
44.0400,0.597
44.0800,0.608
44.1200,0.698
44.1600,0.744
44.2000,0.801
44.2400,0.917
44.2800,1.105
44.3200,1.324
44.3600,1.605
44.4000,1.995
44.4400,2.545
44.4800,3.071
44.5200,3.631
44.5600,3.848
44.6000,3.781
44.6400,3.537
44.6800,3.049
44.7200,2.590
44.7600,2.038
44.8000,1.573
44.8400,1.246
44.8800,0.999
44.9200,0.914
44.9600,0.758
45.0000,0.636
45.0400,0.606
45.0800,0.556
45.1200,0.491
45.1600,0.480
45.2000,0.485
45.2400,0.429
45.2800,0.455
45.3200,0.432
45.3600,0.412
45.4000,0.399
45.4400,0.406
45.4800,0.410
45.5200,0.356
45.5600,0.369
45.6000,0.379
45.6400,0.347
45.6800,0.352
45.7200,0.333
45.7600,0.358
45.8000,0.337
45.8400,0.344
45.8800,0.346
45.9200,0.356
45.9600,0.322
46.0000,0.341
46.0400,0.311
46.0800,0.308
46.1200,0.292
46.1600,0.330
46.2000,0.312
46.2400,0.329
46.2800,0.304
46.3200,0.317
46.3600,0.304
46.4000,0.325
46.4400,0.307
46.4800,0.327
46.5200,0.296
46.5600,0.293
46.6000,0.289
46.6400,0.287
46.6800,0.300
46.7200,0.270
46.7600,0.292
46.8000,0.299
46.8400,0.308
46.8800,0.298
46.9200,0.299
46.9600,0.296
47.0000,0.300
47.0400,0.284
47.0800,0.275
47.1200,0.276
47.1600,0.281
47.2000,0.290
47.2400,0.289
47.2800,0.279
47.3200,0.287
47.3600,0.285
47.4000,0.285
47.4400,0.289
47.4800,0.261
47.5200,0.302
47.5600,0.277
47.6000,0.274
47.6400,0.285
47.6800,0.278
47.7200,0.284
47.7600,0.282
47.8000,0.282
47.8400,0.277
47.8800,0.258
47.9200,0.285
47.9600,0.284
48.0000,0.256
48.0400,0.269
48.0800,0.271
48.1200,0.284
48.1600,0.274
48.2000,0.283
48.2400,0.287
48.2800,0.282
48.3200,0.276
48.3600,0.254
48.4000,0.283
48.4400,0.277
48.4800,0.266
48.5200,0.278
48.5600,0.286
48.6000,0.287
48.6400,0.274
48.6800,0.261
48.7200,0.279
48.7600,0.265
48.8000,0.251
48.8400,0.269
48.8800,0.263
48.9200,0.284
48.9600,0.261
49.0000,0.258
49.0400,0.269
49.0800,0.264
49.1200,0.249
49.1600,0.262
49.2000,0.248
49.2400,0.261
49.2800,0.254
49.3200,0.258
49.3600,0.274
49.4000,0.272
49.4400,0.267
49.4800,0.276
49.5200,0.249
49.5600,0.249
49.6000,0.258
49.6400,0.244
49.6800,0.259
49.7200,0.253
49.7600,0.262
49.8000,0.257
49.8400,0.236
49.8800,0.268
49.9200,0.286
49.9600,0.268
50.0000,0.252
50.0400,0.261
50.0800,0.232
50.1200,0.247
50.1600,0.250
50.2000,0.221
50.2400,0.241
50.2800,0.250
50.3200,0.232
50.3600,0.246
50.4000,0.237
50.4400,0.249
50.4800,0.266
50.5200,0.272
50.5600,0.249
50.6000,0.230
50.6400,0.240
50.6800,0.246
50.7200,0.243
50.7600,0.229
50.8000,0.238
50.8400,0.233
50.8800,0.246
50.9200,0.281
50.9600,0.251
51.0000,0.251
51.0400,0.253
51.0800,0.237
51.1200,0.246
51.1600,0.260
51.2000,0.243
51.2400,0.223
51.2800,0.233
51.3200,0.251
51.3600,0.236
51.4000,0.230
51.4400,0.227
51.4800,0.240
51.5200,0.233
51.5600,0.261
51.6000,0.236
51.6400,0.237
51.6800,0.237
51.7200,0.229
51.7600,0.223
51.8000,0.237
51.8400,0.237
51.8800,0.240
51.9200,0.212
51.9600,0.219
52.0000,0.221
52.0400,0.233
52.0800,0.243
52.1200,0.257
52.1600,0.233
52.2000,0.233
52.2400,0.213
52.2800,0.226
52.3200,0.226
52.3600,0.237
52.4000,0.244
52.4400,0.244
52.4800,0.240
52.5200,0.233
52.5600,0.217
52.6000,0.216
52.6400,0.225
52.6800,0.226
52.7200,0.242
52.7600,0.238
52.8000,0.229
52.8400,0.230
52.8800,0.211
52.9200,0.215
52.9600,0.242
53.0000,0.232
53.0400,0.241
53.0800,0.207
53.1200,0.212
53.1600,0.228
53.2000,0.220
53.2400,0.242
53.2800,0.219
53.3200,0.230
53.3600,0.201
53.4000,0.214
53.4400,0.235
53.4800,0.230
53.5200,0.223
53.5600,0.217
53.6000,0.232
53.6400,0.222
53.6800,0.220
53.7200,0.231
53.7600,0.223
53.8000,0.226
53.8400,0.218
53.8800,0.208
53.9200,0.211
53.9600,0.194
54.0000,0.216
54.0400,0.216
54.0800,0.235
54.1200,0.227
54.1600,0.228
54.2000,0.230
54.2400,0.231
54.2800,0.224
54.3200,0.194
54.3600,0.219
54.4000,0.212
54.4400,0.237
54.4800,0.223
54.5200,0.213
54.5600,0.213
54.6000,0.216
54.6400,0.227
54.6800,0.201
54.7200,0.210
54.7600,0.213
54.8000,0.220
54.8400,0.212
54.8800,0.211
54.9200,0.228
54.9600,0.207
55.0000,0.226
55.0400,0.221
55.0800,0.233
55.1200,0.198
55.1600,0.231
55.2000,0.228
55.2400,0.212
55.2800,0.215
55.3200,0.206
55.3600,0.208
55.4000,0.212
55.4400,0.230
55.4800,0.206
55.5200,0.205
55.5600,0.218
55.6000,0.214
55.6400,0.208
55.6800,0.226
55.7200,0.212
55.7600,0.217
55.8000,0.179
55.8400,0.206
55.8800,0.221
55.9200,0.204
55.9600,0.202
56.0000,0.205
56.0400,0.200
56.0800,0.201
56.1200,0.219
56.1600,0.199
56.2000,0.199
56.2400,0.189
56.2800,0.199
56.3200,0.212
56.3600,0.200
56.4000,0.191
56.4400,0.200
56.4800,0.211
56.5200,0.204
56.5600,0.213
56.6000,0.213
56.6400,0.218
56.6800,0.200
56.7200,0.211
56.7600,0.206
56.8000,0.223
56.8400,0.216
56.8800,0.210
56.9200,0.206
56.9600,0.212
57.0000,0.209
57.0400,0.199
57.0800,0.206
57.1200,0.197
57.1600,0.205
57.2000,0.193
57.2400,0.187
57.2800,0.179
57.3200,0.214
57.3600,0.186
57.4000,0.214
57.4400,0.212
57.4800,0.207
57.5200,0.204
57.5600,0.194
57.6000,0.209
57.6400,0.184
57.6800,0.213
57.7200,0.181
57.7600,0.207
57.8000,0.214
57.8400,0.219
57.8800,0.203
57.9200,0.199
57.9600,0.218
58.0000,0.220
58.0400,0.194
58.0800,0.189
58.1200,0.203
58.1600,0.185
58.2000,0.215
58.2400,0.199
58.2800,0.174
58.3200,0.197
58.3600,0.207
58.4000,0.194
58.4400,0.211
58.4800,0.194
58.5200,0.200
58.5600,0.207
58.6000,0.194
58.6400,0.210
58.6800,0.185
58.7200,0.182
58.7600,0.195
58.8000,0.205
58.8400,0.198
58.8800,0.197
58.9200,0.203
58.9600,0.214
59.0000,0.208
59.0400,0.201
59.0800,0.204
59.1200,0.212
59.1600,0.222
59.2000,0.206
59.2400,0.200
59.2800,0.188
59.3200,0.209
59.3600,0.215
59.4000,0.203
59.4400,0.213
59.4800,0.206
59.5200,0.201
59.5600,0.186
59.6000,0.208
59.6400,0.197
59.6800,0.186
59.7200,0.195
59.7600,0.224
59.8000,0.220
59.8400,0.191
59.8800,0.198
59.9200,0.188
59.9600,0.205
60.0000,0.186
60.0400,0.222
60.0800,0.219
60.1200,0.194
60.1600,0.215
60.2000,0.192
60.2400,0.190
60.2800,0.199
60.3200,0.191
60.3600,0.185
60.4000,0.210
60.4400,0.193
60.4800,0.204
60.5200,0.196
60.5600,0.173
60.6000,0.203
60.6400,0.209
60.6800,0.199
60.7200,0.214
60.7600,0.197
60.8000,0.204
60.8400,0.206
60.8800,0.202
60.9200,0.198
60.9600,0.214
61.0000,0.191
61.0400,0.208
61.0800,0.212
61.1200,0.204
61.1600,0.208
61.2000,0.211
61.2400,0.206
61.2800,0.209
61.3200,0.187
61.3600,0.193
61.4000,0.203
61.4400,0.206
61.4800,0.218
61.5200,0.202
61.5600,0.168
61.6000,0.209
61.6400,0.204
61.6800,0.220
61.7200,0.228
61.7600,0.198
61.8000,0.220
61.8400,0.216
61.8800,0.206
61.9200,0.203
61.9600,0.211
62.0000,0.208
62.0400,0.222
62.0800,0.197
62.1200,0.198
62.1600,0.191
62.2000,0.217
62.2400,0.214
62.2800,0.226
62.3200,0.207
62.3600,0.215
62.4000,0.201
62.4400,0.211
62.4800,0.213
62.5200,0.226
62.5600,0.229
62.6000,0.224
62.6400,0.224
62.6800,0.225
62.7200,0.197
62.7600,0.221
62.8000,0.214
62.8400,0.223
62.8800,0.230
62.9200,0.214
62.9600,0.218
63.0000,0.222
63.0400,0.219
63.0800,0.223
63.1200,0.217
63.1600,0.230
63.2000,0.238
63.2400,0.220
63.2800,0.233
63.3200,0.251
63.3600,0.230
63.4000,0.208
63.4400,0.235
63.4800,0.224
63.5200,0.253
63.5600,0.239
63.6000,0.274
63.6400,0.230
63.6800,0.254
63.7200,0.245
63.7600,0.271
63.8000,0.257
63.8400,0.255
63.8800,0.266
63.9200,0.282
63.9600,0.284
64.0000,0.283
64.0400,0.285
64.0800,0.300
64.1200,0.315
64.1600,0.295
64.2000,0.316
64.2400,0.357
64.2800,0.374
64.3200,0.374
64.3600,0.435
64.4000,0.477
64.4400,0.523
64.4800,0.588
64.5200,0.731
64.5600,0.863
64.6000,1.141
64.6400,1.466
64.6800,1.878
64.7200,2.065
64.7600,2.190
64.8000,2.156
64.8400,1.938
64.8800,1.748
64.9200,1.597
64.9600,1.388
65.0000,1.134
65.0400,0.906
65.0800,0.719
65.1200,0.601
65.1600,0.564
65.2000,0.472
65.2400,0.447
65.2800,0.403
65.3200,0.374
65.3600,0.363
65.4000,0.369
65.4400,0.347
65.4800,0.366
65.5200,0.315
65.5600,0.326
65.6000,0.315
65.6400,0.335
65.6800,0.327
65.7200,0.336
65.7600,0.321
65.8000,0.364
65.8400,0.310
65.8800,0.329
65.9200,0.322
65.9600,0.329
66.0000,0.348
66.0400,0.334
66.0800,0.335
66.1200,0.326
66.1600,0.329
66.2000,0.353
66.2400,0.326
66.2800,0.342
66.3200,0.340
66.3600,0.338
66.4000,0.338
66.4400,0.363
66.4800,0.348
66.5200,0.359
66.5600,0.346
66.6000,0.367
66.6400,0.359
66.6800,0.360
66.7200,0.361
66.7600,0.378
66.8000,0.339
66.8400,0.370
66.8800,0.362
66.9200,0.380
66.9600,0.376
67.0000,0.406
67.0400,0.394
67.0800,0.392
67.1200,0.405
67.1600,0.405
67.2000,0.406
67.2400,0.410
67.2800,0.437
67.3200,0.440
67.3600,0.424
67.4000,0.430
67.4400,0.455
67.4800,0.443
67.5200,0.479
67.5600,0.488
67.6000,0.486
67.6400,0.519
67.6800,0.503
67.7200,0.500
67.7600,0.489
67.8000,0.523
67.8400,0.545
67.8800,0.526
67.9200,0.523
67.9600,0.509
68.0000,0.576
68.0400,0.573
68.0800,0.613
68.1200,0.596
68.1600,0.588
68.2000,0.631
68.2400,0.637
68.2800,0.664
68.3200,0.688
68.3600,0.725
68.4000,0.736
68.4400,0.777
68.4800,0.816
68.5200,0.817
68.5600,0.866
68.6000,0.916
68.6400,1.074
68.6800,1.216
68.7200,1.448
68.7600,1.730
68.8000,1.927
68.8400,2.090
68.8800,2.269
68.9200,2.712
68.9600,3.943
69.0000,8.622
69.0400,33.077
69.0800,67.615
69.1200,83.691
69.1600,80.292
69.2000,51.601
69.2400,30.179
69.2800,39.786
69.3200,46.159
69.3600,41.876
69.4000,24.054
69.4400,7.415
69.4800,3.351
69.5200,2.370
69.5600,1.916
69.6000,1.624
69.6400,1.377
69.6800,1.309
69.7200,1.186
69.7600,1.064
69.8000,1.005
69.8400,1.002
69.8800,0.901
69.9200,0.852
69.9600,0.856
70.0000,0.835
70.0400,0.808
70.0800,0.746
70.1200,0.778
70.1600,0.751
70.2000,0.699
70.2400,0.680
70.2800,0.702
70.3200,0.633
70.3600,0.654
70.4000,0.643
70.4400,0.636
70.4800,0.610
70.5200,0.575
70.5600,0.579
70.6000,0.555
70.6400,0.593
70.6800,0.518
70.7200,0.543
70.7600,0.555
70.8000,0.524
70.8400,0.513
70.8800,0.472
70.9200,0.504
70.9600,0.508
71.0000,0.464
71.0400,0.449
71.0800,0.445
71.1200,0.433
71.1600,0.455
71.2000,0.434
71.2400,0.419
71.2800,0.433
71.3200,0.400
71.3600,0.410
71.4000,0.417
71.4400,0.384
71.4800,0.370
71.5200,0.369
71.5600,0.366
71.6000,0.391
71.6400,0.365
71.6800,0.339
71.7200,0.352
71.7600,0.345
71.8000,0.358
71.8400,0.328
71.8800,0.348
71.9200,0.359
71.9600,0.351
72.0000,0.323
72.0400,0.324
72.0800,0.318
72.1200,0.302
72.1600,0.295
72.2000,0.293
72.2400,0.302
72.2800,0.286
72.3200,0.306
72.3600,0.285
72.4000,0.295
72.4400,0.265
72.4800,0.286
72.5200,0.282
72.5600,0.262
72.6000,0.292
72.6400,0.269
72.6800,0.258
72.7200,0.296
72.7600,0.268
72.8000,0.257
72.8400,0.266
72.8800,0.282
72.9200,0.273
72.9600,0.262
73.0000,0.265
73.0400,0.248
73.0800,0.258
73.1200,0.236
73.1600,0.237
73.2000,0.250
73.2400,0.216
73.2800,0.236
73.3200,0.238
73.3600,0.239
73.4000,0.234
73.4400,0.236
73.4800,0.226
73.5200,0.236
73.5600,0.218
73.6000,0.226
73.6400,0.227
73.6800,0.214
73.7200,0.212
73.7600,0.232
73.8000,0.215
73.8400,0.246
73.8800,0.205
73.9200,0.221
73.9600,0.213
74.0000,0.225
74.0400,0.239
74.0800,0.222
74.1200,0.204
74.1600,0.223
74.2000,0.208
74.2400,0.209
74.2800,0.212
74.3200,0.237
74.3600,0.216
74.4000,0.200
74.4400,0.216
74.4800,0.219
74.5200,0.188
74.5600,0.214
74.6000,0.228
74.6400,0.197
74.6800,0.192
74.7200,0.180
74.7600,0.195
74.8000,0.213
74.8400,0.207
74.8800,0.196
74.9200,0.215
74.9600,0.194
75.0000,0.200
75.0400,0.205
75.0800,0.193
75.1200,0.182
75.1600,0.182
75.2000,0.206
75.2400,0.203
75.2800,0.187
75.3200,0.181
75.3600,0.191
75.4000,0.189
75.4400,0.196
75.4800,0.208
75.5200,0.204
75.5600,0.179
75.6000,0.180
75.6400,0.178
75.6800,0.185
75.7200,0.198
75.7600,0.178
75.8000,0.194
75.8400,0.193
75.8800,0.182
75.9200,0.174
75.9600,0.173
76.0000,0.181
76.0400,0.185
76.0800,0.190
76.1200,0.196
76.1600,0.191
76.2000,0.182
76.2400,0.197
76.2800,0.192
76.3200,0.185
76.3600,0.175
76.4000,0.190
76.4400,0.188
76.4800,0.190
76.5200,0.182
76.5600,0.195
76.6000,0.183
76.6400,0.185
76.6800,0.202
76.7200,0.172
76.7600,0.193
76.8000,0.209
76.8400,0.205
76.8800,0.197
76.9200,0.200
76.9600,0.200
77.0000,0.204
77.0400,0.213
77.0800,0.219
77.1200,0.203
77.1600,0.241
77.2000,0.247
77.2400,0.265
77.2800,0.242
77.3200,0.289
77.3600,0.287
77.4000,0.318
77.4400,0.356
77.4800,0.378
77.5200,0.421
77.5600,0.527
77.6000,0.638
77.6400,0.735
77.6800,0.988
77.7200,1.195
77.7600,1.470
77.8000,1.653
77.8400,1.645
77.8800,1.611
77.9200,1.429
77.9600,1.377
78.0000,1.270
78.0400,1.229
78.0800,1.054
78.1200,0.927
78.1600,0.762
78.2000,0.637
78.2400,0.492
78.2800,0.427
78.3200,0.378
78.3600,0.326
78.4000,0.294
78.4400,0.272
78.4800,0.257
78.5200,0.266
78.5600,0.228
78.6000,0.215
78.6400,0.226
78.6800,0.198
78.7200,0.225
78.7600,0.187
78.8000,0.206
78.8400,0.203
78.8800,0.207
78.9200,0.221
78.9600,0.175
79.0000,0.191
79.0400,0.173
79.0800,0.181
79.1200,0.167
79.1600,0.159
79.2000,0.172
79.2400,0.161
79.2800,0.187
79.3200,0.180
79.3600,0.179
79.4000,0.177
79.4400,0.158
79.4800,0.149
79.5200,0.168
79.5600,0.152
79.6000,0.148
79.6400,0.164
79.6800,0.169
79.7200,0.161
79.7600,0.170
79.8000,0.175
79.8400,0.155
79.8800,0.170
79.9200,0.142
79.9600,0.147
80.0000,0.166
