theta,intensity
5.0000,6.282
5.0400,6.226
5.0800,6.040
5.1200,6.014
5.1600,6.036
5.2000,5.906
5.2400,5.781
5.2800,5.655
5.3200,5.778
5.3600,5.565
5.4000,5.448
5.4400,5.289
5.4800,5.481
5.5200,5.212
5.5600,5.074
5.6000,4.937
5.6400,4.939
5.6800,4.886
5.7200,4.783
5.7600,4.668
5.8000,4.419
5.8400,4.554
5.8800,4.513
5.9200,4.404
5.9600,4.459
6.0000,4.325
6.0400,4.412
6.0800,4.322
6.1200,4.429
6.1600,4.199
6.2000,4.392
6.2400,4.310
6.2800,4.372
6.3200,4.291
6.3600,4.258
6.4000,4.232
6.4400,4.344
6.4800,4.297
6.5200,4.284
6.5600,4.326
6.6000,4.198
6.6400,4.242
6.6800,4.182
6.7200,4.201
6.7600,4.221
6.8000,4.230
6.8400,4.081
6.8800,4.231
6.9200,4.113
6.9600,4.266
7.0000,4.093
7.0400,4.182
7.0800,4.197
7.1200,4.078
7.1600,4.097
7.2000,3.924
7.2400,4.193
7.2800,4.121
7.3200,4.071
7.3600,4.159
7.4000,4.247
7.4400,4.034
7.4800,4.193
7.5200,4.050
7.5600,3.981
7.6000,4.031
7.6400,3.905
7.6800,4.059
7.7200,4.024
7.7600,4.010
7.8000,4.052
7.8400,3.994
7.8800,4.097
7.9200,3.977
7.9600,3.928
8.0000,4.044
8.0400,3.990
8.0800,3.963
8.1200,3.877
8.1600,3.889
8.2000,3.902
8.2400,3.849
8.2800,4.025
8.3200,3.950
8.3600,3.867
8.4000,3.903
8.4400,3.867
8.4800,3.808
8.5200,3.957
8.5600,3.953
8.6000,3.919
8.6400,3.901
8.6800,3.843
8.7200,3.831
8.7600,3.918
8.8000,3.970
8.8400,3.917
8.8800,4.007
8.9200,3.814
8.9600,4.011
9.0000,3.833
9.0400,3.811
9.0800,3.924
9.1200,3.824
9.1600,3.776
9.2000,3.898
9.2400,3.873
9.2800,3.822
9.3200,3.801
9.3600,3.927
9.4000,3.801
9.4400,3.769
9.4800,3.830
9.5200,3.857
9.5600,3.650
9.6000,3.754
9.6400,3.794
9.6800,3.919
9.7200,3.643
9.7600,3.755
9.8000,3.718
9.8400,3.787
9.8800,3.735
9.9200,3.809
9.9600,3.715
10.0000,3.888
10.0400,3.698
10.0800,3.722
10.1200,3.725
10.1600,3.694
10.2000,3.739
10.2400,3.613
10.2800,3.768
10.3200,3.684
10.3600,3.576
10.4000,3.688
10.4400,3.684
10.4800,3.645
10.5200,3.690
10.5600,3.724
10.6000,3.761
10.6400,3.690
10.6800,3.669
10.7200,3.664
10.7600,3.772
10.8000,3.754
10.8400,3.668
10.8800,3.623
10.9200,3.555
10.9600,3.583
11.0000,3.457
11.0400,3.676
11.0800,3.530
11.1200,3.606
11.1600,3.602
11.2000,3.724
11.2400,3.660
11.2800,3.617
11.3200,3.596
11.3600,3.619
11.4000,3.627
11.4400,3.595
11.4800,3.579
11.5200,3.603
11.5600,3.523
11.6000,3.566
11.6400,3.579
11.6800,3.596
11.7200,3.481
11.7600,3.621
11.8000,3.512
11.8400,3.497
11.8800,3.493
11.9200,3.584
11.9600,3.441
12.0000,3.490
12.0400,3.658
12.0800,3.474
12.1200,3.519
12.1600,3.492
12.2000,3.683
12.2400,3.541
12.2800,3.548
12.3200,3.441
12.3600,3.451
12.4000,3.482
12.4400,3.400
12.4800,3.515
12.5200,3.384
12.5600,3.455
12.6000,3.444
12.6400,3.393
12.6800,3.448
12.7200,3.530
12.7600,3.340
12.8000,3.499
12.8400,3.519
12.8800,3.488
12.9200,3.408
12.9600,3.430
13.0000,3.383
13.0400,3.388
13.0800,3.412
13.1200,3.460
13.1600,3.437
13.2000,3.351
13.2400,3.403
13.2800,3.460
13.3200,3.373
13.3600,3.428
13.4000,3.376
13.4400,3.404
13.4800,3.418
13.5200,3.394
13.5600,3.385
13.6000,3.407
13.6400,3.402
13.6800,3.354
13.7200,3.377
13.7600,3.300
13.8000,3.323
13.8400,3.321
13.8800,3.377
13.9200,3.318
13.9600,3.398
14.0000,3.251
14.0400,3.284
14.0800,3.183
14.1200,3.305
14.1600,3.272
14.2000,3.405
14.2400,3.367
14.2800,3.301
14.3200,3.229
14.3600,3.257
14.4000,3.325
14.4400,3.294
14.4800,3.301
14.5200,3.230
14.5600,3.278
14.6000,3.295
14.6400,3.258
14.6800,3.270
14.7200,3.363
14.7600,3.178
14.8000,3.310
14.8400,3.207
14.8800,3.249
14.9200,3.317
14.9600,3.157
15.0000,3.244
15.0400,3.283
15.0800,3.152
15.1200,3.262
15.1600,3.196
15.2000,3.159
15.2400,3.241
15.2800,3.160
15.3200,3.134
15.3600,3.071
15.4000,3.176
15.4400,3.154
15.4800,3.200
15.5200,3.153
15.5600,3.216
15.6000,3.200
15.6400,3.203
15.6800,3.270
15.7200,3.179
15.7600,3.175
15.8000,3.137
15.8400,3.170
15.8800,3.148
15.9200,3.110
15.9600,3.114
16.0000,3.191
16.0400,3.196
16.0800,3.195
16.1200,3.126
16.1600,3.126
16.2000,3.101
16.2400,3.054
16.2800,3.070
16.3200,3.098
16.3600,3.085
16.4000,3.005
16.4400,3.149
16.4800,3.061
16.5200,3.081
16.5600,3.052
16.6000,2.983
16.6400,3.005
16.6800,3.061
16.7200,3.002
16.7600,3.187
16.8000,3.005
16.8400,3.034
16.8800,2.949
16.9200,3.230
16.9600,3.111
17.0000,2.995
17.0400,2.990
17.0800,3.023
17.1200,3.018
17.1600,3.011
17.2000,3.046
17.2400,2.947
17.2800,3.105
17.3200,2.930
17.3600,3.011
17.4000,3.043
17.4400,3.017
17.4800,2.943
17.5200,3.040
17.5600,2.962
17.6000,2.977
17.6400,3.049
17.6800,2.954
17.7200,2.976
17.7600,2.981
17.8000,2.949
17.8400,2.994
17.8800,3.034
17.9200,2.991
17.9600,2.977
18.0000,2.925
18.0400,2.998
18.0800,2.912
18.1200,2.864
18.1600,2.969
18.2000,2.972
18.2400,2.937
18.2800,2.943
18.3200,2.882
18.3600,2.859
18.4000,2.942
18.4400,2.888
18.4800,2.901
18.5200,2.904
18.5600,2.918
18.6000,2.823
18.6400,2.817
18.6800,2.869
18.7200,2.779
18.7600,2.791
18.8000,2.828
18.8400,2.908
18.8800,2.872
18.9200,2.833
18.9600,2.913
19.0000,2.850
19.0400,2.954
19.0800,2.914
19.1200,2.734
19.1600,2.740
19.2000,2.897
19.2400,2.806
19.2800,2.833
19.3200,2.824
19.3600,2.806
19.4000,2.816
19.4400,2.723
19.4800,2.803
19.5200,2.782
19.5600,2.872
19.6000,2.703
19.6400,2.792
19.6800,2.805
19.7200,2.597
19.7600,2.677
19.8000,2.801
19.8400,2.654
19.8800,2.718
19.9200,2.667
19.9600,2.753
20.0000,2.752
20.0400,2.728
20.0800,2.765
20.1200,2.722
20.1600,2.656
20.2000,2.736
20.2400,2.735
20.2800,2.778
20.3200,2.698
20.3600,2.793
20.4000,2.669
20.4400,2.818
20.4800,2.784
20.5200,2.731
20.5600,2.635
20.6000,2.750
20.6400,2.713
20.6800,2.687
20.7200,2.783
20.7600,2.744
20.8000,2.728
20.8400,2.812
20.8800,2.710
20.9200,2.773
20.9600,2.812
21.0000,2.695
21.0400,2.813
21.0800,2.775
21.1200,2.819
21.1600,2.902
21.2000,2.857
21.2400,2.955
21.2800,2.916
21.3200,2.901
21.3600,2.987
21.4000,2.972
21.4400,3.070
21.4800,3.103
21.5200,3.025
21.5600,3.051
21.6000,2.897
21.6400,2.903
21.6800,2.919
21.7200,2.923
21.7600,2.859
21.8000,2.857
21.8400,2.839
21.8800,2.720
21.9200,2.680
21.9600,2.718
22.0000,2.614
22.0400,2.618
22.0800,2.699
22.1200,2.670
22.1600,2.598
22.2000,2.537
22.2400,2.634
22.2800,2.588
22.3200,2.591
22.3600,2.642
22.4000,2.626
22.4400,2.553
22.4800,2.622
22.5200,2.643
22.5600,2.527
22.6000,2.572
22.6400,2.439
22.6800,2.585
22.7200,2.459
22.7600,2.497
22.8000,2.487
22.8400,2.433
22.8800,2.489
22.9200,2.405
22.9600,2.426
23.0000,2.456
23.0400,2.428
23.0800,2.532
23.1200,2.479
23.1600,2.522
23.2000,2.446
23.2400,2.519
23.2800,2.502
23.3200,2.413
23.3600,2.382
23.4000,2.409
23.4400,2.404
23.4800,2.472
23.5200,2.444
23.5600,2.410
23.6000,2.460
23.6400,2.425
23.6800,2.504
23.7200,2.400
23.7600,2.497
23.8000,2.489
23.8400,2.409
23.8800,2.408
23.9200,2.397
23.9600,2.446
24.0000,2.408
24.0400,2.323
24.0800,2.421
24.1200,2.415
24.1600,2.294
24.2000,2.445
24.2400,2.265
24.2800,2.366
24.3200,2.254
24.3600,2.280
24.4000,2.311
24.4400,2.420
24.4800,2.390
24.5200,2.248
24.5600,2.282
24.6000,2.318
24.6400,2.417
24.6800,2.399
24.7200,2.304
24.7600,2.252
24.8000,2.217
24.8400,2.191
24.8800,2.292
24.9200,2.401
24.9600,2.440
25.0000,2.297
25.0400,2.271
25.0800,2.261
25.1200,2.226
25.1600,2.264
25.2000,2.303
25.2400,2.174
25.2800,2.321
25.3200,2.269
25.3600,2.263
25.4000,2.309
25.4400,2.316
25.4800,2.261
25.5200,2.308
25.5600,2.307
25.6000,2.300
25.6400,2.238
25.6800,2.188
25.7200,2.213
25.7600,2.176
25.8000,2.265
25.8400,2.273
25.8800,2.218
25.9200,2.249
25.9600,2.239
26.0000,2.138
26.0400,2.111
26.0800,2.197
26.1200,2.250
26.1600,2.305
26.2000,2.206
26.2400,2.145
26.2800,2.192
26.3200,2.223
26.3600,2.140
26.4000,2.196
26.4400,2.165
26.4800,2.182
26.5200,2.134
26.5600,2.133
26.6000,2.107
26.6400,2.177
26.6800,2.138
26.7200,2.192
26.7600,2.214
26.8000,2.165
26.8400,2.177
26.8800,2.188
26.9200,2.183
26.9600,1.990
27.0000,2.174
27.0400,2.126
27.0800,2.172
27.1200,2.074
27.1600,2.207
27.2000,2.158
27.2400,2.156
27.2800,2.140
27.3200,2.111
27.3600,2.157
27.4000,2.098
27.4400,2.144
27.4800,2.214
27.5200,2.179
27.5600,2.164
27.6000,2.119
27.6400,2.152
27.6800,2.030
27.7200,1.970
27.7600,2.082
27.8000,2.186
27.8400,2.084
27.8800,2.042
27.9200,1.993
27.9600,2.090
28.0000,2.061
28.0400,2.058
28.0800,2.094
28.1200,2.041
28.1600,1.994
28.2000,2.073
28.2400,2.122
28.2800,1.998
28.3200,2.092
28.3600,2.029
28.4000,2.070
28.4400,2.082
28.4800,2.073
28.5200,2.096
28.5600,2.067
28.6000,2.028
28.6400,2.162
28.6800,2.034
28.7200,2.081
28.7600,2.117
28.8000,2.057
28.8400,2.165
28.8800,2.188
28.9200,2.111
28.9600,2.014
29.0000,2.022
29.0400,2.172
29.0800,2.112
29.1200,2.120
29.1600,2.102
29.2000,2.168
29.2400,2.100
29.2800,2.155
29.3200,2.153
29.3600,2.144
29.4000,2.112
29.4400,2.182
29.4800,2.208
29.5200,2.240
29.5600,2.334
29.6000,2.399
29.6400,2.465
29.6800,2.459
29.7200,2.472
29.7600,2.471
29.8000,2.525
29.8400,2.577
29.8800,2.683
29.9200,2.696
29.9600,2.893
30.0000,2.899
30.0400,3.030
30.0800,3.288
30.1200,3.345
30.1600,3.573
30.2000,3.601
30.2400,3.933
30.2800,4.134
30.3200,4.297
30.3600,4.642
30.4000,4.824
30.4400,5.202
30.4800,5.286
30.5200,5.727
30.5600,5.798
30.6000,5.805
30.6400,5.697
30.6800,5.210
30.7200,5.093
30.7600,4.850
30.8000,4.580
30.8400,4.172
30.8800,3.909
30.9200,3.625
30.9600,3.470
31.0000,3.243
31.0400,3.118
31.0800,3.006
31.1200,2.880
31.1600,2.722
31.2000,2.641
31.2400,2.477
31.2800,2.373
31.3200,2.382
31.3600,2.376
31.4000,2.316
31.4400,2.187
31.4800,2.126
31.5200,2.131
31.5600,2.117
31.6000,2.071
31.6400,2.052
31.6800,2.019
31.7200,1.944
31.7600,1.949
31.8000,1.952
31.8400,1.931
31.8800,1.962
31.9200,1.884
31.9600,1.915
32.0000,1.875
32.0400,1.849
32.0800,1.802
32.1200,1.904
32.1600,1.853
32.2000,1.863
32.2400,1.946
32.2800,1.845
32.3200,1.798
32.3600,1.803
32.4000,1.798
32.4400,1.810
32.4800,1.786
32.5200,1.845
32.5600,1.738
32.6000,1.801
32.6400,1.828
32.6800,1.789
32.7200,1.813
32.7600,1.738
32.8000,1.774
32.8400,1.756
32.8800,1.732
32.9200,1.716
32.9600,1.708
33.0000,1.774
33.0400,1.721
33.0800,1.753
33.1200,1.753
33.1600,1.762
33.2000,1.759
33.2400,1.802
33.2800,1.735
33.3200,1.778
33.3600,1.722
33.4000,1.771
33.4400,1.648
33.4800,1.736
33.5200,1.777
33.5600,1.661
33.6000,1.729
33.6400,1.777
33.6800,1.783
33.7200,1.697
33.7600,1.699
33.8000,1.639
33.8400,1.617
33.8800,1.672
33.9200,1.641
33.9600,1.683
34.0000,1.710
34.0400,1.706
34.0800,1.778
34.1200,1.681
34.1600,1.599
34.2000,1.724
34.2400,1.706
34.2800,1.654
34.3200,1.716
34.3600,1.684
34.4000,1.666
34.4400,1.748
34.4800,1.715
34.5200,1.779
34.5600,1.743
34.6000,1.730
34.6400,1.688
34.6800,1.743
34.7200,1.779
34.7600,1.843
34.8000,1.864
34.8400,1.843
34.8800,1.802
34.9200,1.899
34.9600,1.872
35.0000,1.942
35.0400,2.094
35.0800,2.204
35.1200,2.129
35.1600,2.190
35.2000,2.295
35.2400,2.343
35.2800,2.454
35.3200,2.538
35.3600,2.625
35.4000,2.695
35.4400,2.726
35.4800,2.851
35.5200,2.977
35.5600,3.035
35.6000,3.211
35.6400,3.285
35.6800,3.552
35.7200,3.499
35.7600,3.623
35.8000,3.583
35.8400,3.343
35.8800,3.059
35.9200,2.835
35.9600,2.542
36.0000,2.387
36.0400,2.189
36.0800,2.103
36.1200,1.987
36.1600,1.987
36.2000,1.790
36.2400,1.781
36.2800,1.751
36.3200,1.714
36.3600,1.700
36.4000,1.735
36.4400,1.577
36.4800,1.583
36.5200,1.635
36.5600,1.631
36.6000,1.571
36.6400,1.566
36.6800,1.544
36.7200,1.530
36.7600,1.628
36.8000,1.601
36.8400,1.645
36.8800,1.593
36.9200,1.465
36.9600,1.507
37.0000,1.581
37.0400,1.521
37.0800,1.516
37.1200,1.582
37.1600,1.545
37.2000,1.539
37.2400,1.672
37.2800,1.541
37.3200,1.660
37.3600,1.609
37.4000,1.667
37.4400,1.657
37.4800,1.777
37.5200,1.761
37.5600,1.799
37.6000,1.837
37.6400,2.131
37.6800,2.256
37.7200,2.651
37.7600,3.092
37.8000,3.348
37.8400,3.611
37.8800,3.662
37.9200,3.333
37.9600,3.103
38.0000,2.817
38.0400,2.376
38.0800,2.139
38.1200,1.993
38.1600,1.844
38.2000,1.809
38.2400,1.701
38.2800,1.653
38.3200,1.693
38.3600,1.606
38.4000,1.517
38.4400,1.493
38.4800,1.463
38.5200,1.528
38.5600,1.507
38.6000,1.554
38.6400,1.528
38.6800,1.517
38.7200,1.407
38.7600,1.385
38.8000,1.369
38.8400,1.423
38.8800,1.433
38.9200,1.363
38.9600,1.447
39.0000,1.424
39.0400,1.458
39.0800,1.402
39.1200,1.454
39.1600,1.342
39.2000,1.330
39.2400,1.423
39.2800,1.463
39.3200,1.407
39.3600,1.371
39.4000,1.445
39.4400,1.370
39.4800,1.408
39.5200,1.437
39.5600,1.478
39.6000,1.406
39.6400,1.438
39.6800,1.386
39.7200,1.429
39.7600,1.504
39.8000,1.475
39.8400,1.467
39.8800,1.517
39.9200,1.511
39.9600,1.540
40.0000,1.608
40.0400,1.618
40.0800,1.622
40.1200,1.654
40.1600,1.735
40.2000,1.829
40.2400,1.917
40.2800,2.069
40.3200,2.246
40.3600,2.575
40.4000,2.984
40.4400,3.445
40.4800,4.077
40.5200,4.676
40.5600,5.258
40.6000,5.680
40.6400,5.910
40.6800,5.841
40.7200,5.531
40.7600,4.990
40.8000,4.483
40.8400,3.879
40.8800,3.500
40.9200,2.955
40.9600,2.717
41.0000,2.371
41.0400,2.140
41.0800,1.996
41.1200,1.902
41.1600,1.751
41.2000,1.703
41.2400,1.643
41.2800,1.572
41.3200,1.527
41.3600,1.499
41.4000,1.492
41.4400,1.486
41.4800,1.439
41.5200,1.386
41.5600,1.456
41.6000,1.416
41.6400,1.476
41.6800,1.445
41.7200,1.418
41.7600,1.418
41.8000,1.377
41.8400,1.382
41.8800,1.350
41.9200,1.245
41.9600,1.370
42.0000,1.326
42.0400,1.352
42.0800,1.270
42.1200,1.211
42.1600,1.247
42.2000,1.139
42.2400,1.206
42.2800,1.216
42.3200,1.196
42.3600,1.197
42.4000,1.239
42.4400,1.198
42.4800,1.150
42.5200,1.183
42.5600,1.178
42.6000,1.189
42.6400,1.168
42.6800,1.100
42.7200,1.163
42.7600,1.169
42.8000,1.133
42.8400,1.165
42.8800,1.135
42.9200,1.116
42.9600,1.025
43.0000,1.123
43.0400,1.101
43.0800,1.134
43.1200,1.203
43.1600,1.100
43.2000,1.101
43.2400,1.131
43.2800,1.121
43.3200,1.104
43.3600,1.162
43.4000,1.101
43.4400,1.102
43.4800,1.108
43.5200,1.084
43.5600,1.081
43.6000,1.073
43.6400,1.027
43.6800,1.041
43.7200,1.088
43.7600,1.131
43.8000,1.112
43.8400,1.119
43.8800,1.054
43.9200,1.062
43.9600,1.137
44.0000,1.146
44.0400,1.078
44.0800,1.033
44.1200,1.082
44.1600,1.018
44.2000,1.024
44.2400,1.045
44.2800,1.074
44.3200,1.049
44.3600,1.100
44.4000,1.032
44.4400,1.029
44.4800,1.059
44.5200,1.052
44.5600,1.021
44.6000,1.107
44.6400,1.081
44.6800,0.991
44.7200,1.033
44.7600,1.017
44.8000,1.039
44.8400,1.068
44.8800,1.033
44.9200,1.086
44.9600,1.093
45.0000,1.049
45.0400,1.095
45.0800,1.042
45.1200,1.042
45.1600,1.073
45.2000,1.056
45.2400,1.082
45.2800,1.073
45.3200,1.135
45.3600,1.087
45.4000,1.186
45.4400,1.085
45.4800,1.141
45.5200,1.168
45.5600,1.115
45.6000,1.197
45.6400,1.155
45.6800,1.237
45.7200,1.216
45.7600,1.118
45.8000,1.117
45.8400,1.117
45.8800,1.107
45.9200,1.088
45.9600,1.080
46.0000,1.043
46.0400,1.084
46.0800,1.087
46.1200,1.011
46.1600,1.034
46.2000,1.003
46.2400,0.993
46.2800,0.967
46.3200,0.970
46.3600,1.031
46.4000,0.980
46.4400,0.945
46.4800,0.968
46.5200,0.954
46.5600,0.918
46.6000,0.920
46.6400,1.016
46.6800,0.967
46.7200,0.975
46.7600,0.922
46.8000,0.948
46.8400,0.918
46.8800,0.931
46.9200,0.965
46.9600,0.943
47.0000,0.922
47.0400,0.883
47.0800,0.916
47.1200,0.931
47.1600,0.926
47.2000,0.894
47.2400,0.918
47.2800,0.950
47.3200,0.903
47.3600,0.919
47.4000,0.935
47.4400,0.887
47.4800,0.845
47.5200,0.973
47.5600,0.888
47.6000,0.926
47.6400,0.876
47.6800,0.912
47.7200,0.879
47.7600,0.912
47.8000,0.850
47.8400,0.947
47.8800,0.876
47.9200,0.892
47.9600,0.921
48.0000,0.873
48.0400,0.931
48.0800,0.890
48.1200,0.884
48.1600,0.887
48.2000,0.808
48.2400,0.841
48.2800,0.884
48.3200,0.855
48.3600,0.890
48.4000,0.851
48.4400,0.891
48.4800,0.840
48.5200,0.884
48.5600,0.829
48.6000,0.899
48.6400,0.888
48.6800,0.901
48.7200,0.891
48.7600,0.830
48.8000,0.875
48.8400,0.947
48.8800,0.902
48.9200,0.902
48.9600,0.936
49.0000,0.882
49.0400,0.917
49.0800,0.954
49.1200,0.893
49.1600,0.885
49.2000,0.909
49.2400,0.955
49.2800,0.927
49.3200,0.916
49.3600,0.906
49.4000,0.933
49.4400,0.946
49.4800,0.926
49.5200,0.954
49.5600,0.843
49.6000,0.888
49.6400,0.912
49.6800,0.925
49.7200,0.902
49.7600,0.914
49.8000,0.952
49.8400,0.914
49.8800,0.898
49.9200,0.903
49.9600,0.970
50.0000,0.938
50.0400,0.971
50.0800,0.907
50.1200,0.916
50.1600,0.964
50.2000,1.006
50.2400,0.976
50.2800,1.029
50.3200,1.058
50.3600,1.020
50.4000,1.013
50.4400,1.108
50.4800,1.162
50.5200,1.071
50.5600,1.104
50.6000,1.172
50.6400,1.263
50.6800,1.307
50.7200,1.358
50.7600,1.409
50.8000,1.544
50.8400,1.538
50.8800,1.575
50.9200,1.600
50.9600,1.608
51.0000,1.708
51.0400,1.727
51.0800,1.596
51.1200,1.637
51.1600,1.545
51.2000,1.486
51.2400,1.467
51.2800,1.339
51.3200,1.389
51.3600,1.284
51.4000,1.255
51.4400,1.157
51.4800,1.098
51.5200,1.127
51.5600,1.088
51.6000,0.965
51.6400,1.014
51.6800,0.984
51.7200,1.000
51.7600,0.932
51.8000,0.883
51.8400,0.890
51.8800,0.830
51.9200,0.861
51.9600,0.884
52.0000,0.939
52.0400,0.906
52.0800,0.897
52.1200,0.856
52.1600,0.813
52.2000,0.846
52.2400,0.839
52.2800,0.852
52.3200,0.867
52.3600,0.895
52.4000,0.839
52.4400,0.875
52.4800,0.880
52.5200,0.884
52.5600,0.865
52.6000,0.884
52.6400,0.876
52.6800,0.950
52.7200,0.930
52.7600,0.908
52.8000,1.008
52.8400,1.029
52.8800,1.046
52.9200,1.103
52.9600,1.116
53.0000,1.184
53.0400,1.128
53.0800,1.247
53.1200,1.203
53.1600,1.245
53.2000,1.149
53.2400,1.066
53.2800,1.065
53.3200,1.017
53.3600,0.966
53.4000,0.919
53.4400,0.884
53.4800,0.819
53.5200,0.824
53.5600,0.813
53.6000,0.875
53.6400,0.853
53.6800,0.850
53.7200,0.811
53.7600,0.834
53.8000,0.756
53.8400,0.694
53.8800,0.722
53.9200,0.727
53.9600,0.712
54.0000,0.783
54.0400,0.782
54.0800,0.746
54.1200,0.725
54.1600,0.691
54.2000,0.710
54.2400,0.749
54.2800,0.774
54.3200,0.674
54.3600,0.713
54.4000,0.688
54.4400,0.769
54.4800,0.754
54.5200,0.762
54.5600,0.687
54.6000,0.712
54.6400,0.751
54.6800,0.749
54.7200,0.738
54.7600,0.671
54.8000,0.749
54.8400,0.682
54.8800,0.719
54.9200,0.735
54.9600,0.735
55.0000,0.753
55.0400,0.660
55.0800,0.651
55.1200,0.675
55.1600,0.737
55.2000,0.709
55.2400,0.732
55.2800,0.711
55.3200,0.639
55.3600,0.682
55.4000,0.697
55.4400,0.731
55.4800,0.708
55.5200,0.691
55.5600,0.745
55.6000,0.705
55.6400,0.701
55.6800,0.795
55.7200,0.776
55.7600,0.781
55.8000,0.715
55.8400,0.714
55.8800,0.731
55.9200,0.714
55.9600,0.750
56.0000,0.801
56.0400,0.781
56.0800,0.725
56.1200,0.721
56.1600,0.739
56.2000,0.773
56.2400,0.713
56.2800,0.746
56.3200,0.730
56.3600,0.742
56.4000,0.749
56.4400,0.694
56.4800,0.733
56.5200,0.712
56.5600,0.696
56.6000,0.673
56.6400,0.624
56.6800,0.619
56.7200,0.691
56.7600,0.655
56.8000,0.683
56.8400,0.661
56.8800,0.683
56.9200,0.643
56.9600,0.643
57.0000,0.683
57.0400,0.746
57.0800,0.701
57.1200,0.667
57.1600,0.651
57.2000,0.648
57.2400,0.684
57.2800,0.635
57.3200,0.646
57.3600,0.645
57.4000,0.665
57.4400,0.711
57.4800,0.670
57.5200,0.656
57.5600,0.660
57.6000,0.678
57.6400,0.679
57.6800,0.655
57.7200,0.637
57.7600,0.657
57.8000,0.672
57.8400,0.639
57.8800,0.638
57.9200,0.685
57.9600,0.719
58.0000,0.672
58.0400,0.662
58.0800,0.647
58.1200,0.596
58.1600,0.653
58.2000,0.643
58.2400,0.627
58.2800,0.662
58.3200,0.650
58.3600,0.696
58.4000,0.664
58.4400,0.660
58.4800,0.662
58.5200,0.663
58.5600,0.670
58.6000,0.712
58.6400,0.703
58.6800,0.675
58.7200,0.689
58.7600,0.653
58.8000,0.697
58.8400,0.656
58.8800,0.667
58.9200,0.668
58.9600,0.705
59.0000,0.734
59.0400,0.745
59.0800,0.709
59.1200,0.740
59.1600,0.728
59.2000,0.718
59.2400,0.736
59.2800,0.640
59.3200,0.733
59.3600,0.672
59.4000,0.687
59.4400,0.673
59.4800,0.717
59.5200,0.723
59.5600,0.722
59.6000,0.691
59.6400,0.707
59.6800,0.699
59.7200,0.711
59.7600,0.735
59.8000,0.733
59.8400,0.702
59.8800,0.763
59.9200,0.717
59.9600,0.769
60.0000,0.750
60.0400,0.791
60.0800,0.786
60.1200,0.782
60.1600,0.884
60.2000,0.811
60.2400,0.910
60.2800,0.888
60.3200,0.987
60.3600,0.917
60.4000,1.014
60.4400,1.047
60.4800,1.020
60.5200,0.986
60.5600,1.094
60.6000,1.076
60.6400,1.079
60.6800,1.118
60.7200,1.069
60.7600,1.063
60.8000,1.082
60.8400,1.071
60.8800,1.001
60.9200,1.018
60.9600,0.931
61.0000,0.913
61.0400,0.869
61.0800,0.879
61.1200,0.799
61.1600,0.786
61.2000,0.761
61.2400,0.710
61.2800,0.771
61.3200,0.725
61.3600,0.720
61.4000,0.709
61.4400,0.689
61.4800,0.721
61.5200,0.747
61.5600,0.712
61.6000,0.779
61.6400,0.771
61.6800,0.803
61.7200,0.700
61.7600,0.659
61.8000,0.654
61.8400,0.634
61.8800,0.652
61.9200,0.660
61.9600,0.662
62.0000,0.649
62.0400,0.667
62.0800,0.696
62.1200,0.673
62.1600,0.686
62.2000,0.681
62.2400,0.683
62.2800,0.664
62.3200,0.639
62.3600,0.663
62.4000,0.615
62.4400,0.667
62.4800,0.657
62.5200,0.633
62.5600,0.624
62.6000,0.637
62.6400,0.634
62.6800,0.621
62.7200,0.572
62.7600,0.653
62.8000,0.581
62.8400,0.593
62.8800,0.567
62.9200,0.630
62.9600,0.619
63.0000,0.587
63.0400,0.599
63.0800,0.617
63.1200,0.598
63.1600,0.631
63.2000,0.601
63.2400,0.688
63.2800,0.632
63.3200,0.639
63.3600,0.649
63.4000,0.679
63.4400,0.648
63.4800,0.678
63.5200,0.704
63.5600,0.684
63.6000,0.657
63.6400,0.641
63.6800,0.663
63.7200,0.712
63.7600,0.756
63.8000,0.735
63.8400,0.733
63.8800,0.746
63.9200,0.720
63.9600,0.751
64.0000,0.771
64.0400,0.861
64.0800,0.859
64.1200,0.911
64.1600,0.946
64.2000,0.923
64.2400,0.935
64.2800,1.012
64.3200,1.014
64.3600,0.987
64.4000,1.003
64.4400,0.916
64.4800,0.925
64.5200,0.894
64.5600,0.854
64.6000,0.752
64.6400,0.802
64.6800,0.722
64.7200,0.777
64.7600,0.699
64.8000,0.686
64.8400,0.668
64.8800,0.711
64.9200,0.676
64.9600,0.706
65.0000,0.659
65.0400,0.720
65.0800,0.646
65.1200,0.672
65.1600,0.642
65.2000,0.600
65.2400,0.671
65.2800,0.662
65.3200,0.621
65.3600,0.578
65.4000,0.655
65.4400,0.619
65.4800,0.631
65.5200,0.621
65.5600,0.611
65.6000,0.625
65.6400,0.676
65.6800,0.644
65.7200,0.680
65.7600,0.683
65.8000,0.692
65.8400,0.680
65.8800,0.651
65.9200,0.692
65.9600,0.684
66.0000,0.717
66.0400,0.685
66.0800,0.756
66.1200,0.727
66.1600,0.694
66.2000,0.666
66.2400,0.703
66.2800,0.689
66.3200,0.749
66.3600,0.814
66.4000,0.783
66.4400,0.767
66.4800,0.771
66.5200,0.801
66.5600,0.786
66.6000,0.800
66.6400,0.827
66.6800,0.763
66.7200,0.851
66.7600,0.829
66.8000,0.865
66.8400,0.871
66.8800,0.864
66.9200,0.906
66.9600,0.874
67.0000,0.891
67.0400,0.889
67.0800,1.034
67.1200,0.873
67.1600,0.987
67.2000,0.954
67.2400,1.015
67.2800,0.988
67.3200,1.046
67.3600,1.062
67.4000,1.189
67.4400,1.127
67.4800,1.084
67.5200,1.105
67.5600,1.111
67.6000,1.157
67.6400,1.218
67.6800,1.199
67.7200,1.233
67.7600,1.291
67.8000,1.297
67.8400,1.402
67.8800,1.374
67.9200,1.365
67.9600,1.403
68.0000,1.386
68.0400,1.490
68.0800,1.577
68.1200,1.656
68.1600,1.659
68.2000,1.707
68.2400,1.725
68.2800,1.815
68.3200,1.891
68.3600,1.896
68.4000,1.932
68.4400,2.055
68.4800,2.208
68.5200,2.300
68.5600,2.429
68.6000,2.644
68.6400,2.934
68.6800,3.278
68.7200,4.210
68.7600,5.460
68.8000,6.356
68.8400,6.455
68.8800,6.648
68.9200,7.906
68.9600,10.560
69.0000,16.865
69.0400,37.180
69.0800,179.397
69.1200,434.949
69.1600,326.531
69.2000,87.297
69.2400,42.656
69.2800,112.134
69.3200,225.375
69.3600,159.786
69.4000,43.625
69.4400,15.121
69.4800,9.342
69.5200,6.998
69.5600,5.589
69.6000,4.726
69.6400,4.231
69.6800,3.622
69.7200,3.448
69.7600,3.031
69.8000,2.868
69.8400,2.628
69.8800,2.639
69.9200,2.377
69.9600,2.430
70.0000,2.299
70.0400,2.240
70.0800,2.163
70.1200,2.189
70.1600,2.182
70.2000,2.139
70.2400,2.089
70.2800,1.991
70.3200,2.066
70.3600,1.879
70.4000,1.818
70.4400,1.787
70.4800,1.682
70.5200,1.653
70.5600,1.548
70.6000,1.590
70.6400,1.488
70.6800,1.402
70.7200,1.352
70.7600,1.275
70.8000,1.146
70.8400,1.220
70.8800,1.192
70.9200,1.187
70.9600,1.087
71.0000,1.067
71.0400,1.019
71.0800,0.970
71.1200,0.969
71.1600,0.979
71.2000,0.932
71.2400,0.971
71.2800,0.922
71.3200,0.917
71.3600,0.921
71.4000,0.838
71.4400,0.898
71.4800,0.853
71.5200,0.806
71.5600,0.786
71.6000,0.836
71.6400,0.763
71.6800,0.744
71.7200,0.778
71.7600,0.734
71.8000,0.723
71.8400,0.760
71.8800,0.699
71.9200,0.676
71.9600,0.686
72.0000,0.674
72.0400,0.656
72.0800,0.625
72.1200,0.621
72.1600,0.647
72.2000,0.582
72.2400,0.576
72.2800,0.613
72.3200,0.580
72.3600,0.584
72.4000,0.549
72.4400,0.575
72.4800,0.578
72.5200,0.558
72.5600,0.536
72.6000,0.577
72.6400,0.483
72.6800,0.524
72.7200,0.486
72.7600,0.536
72.8000,0.494
72.8400,0.533
72.8800,0.544
72.9200,0.509
72.9600,0.546
73.0000,0.519
73.0400,0.540
73.0800,0.481
73.1200,0.460
73.1600,0.499
73.2000,0.458
73.2400,0.466
73.2800,0.498
73.3200,0.465
73.3600,0.482
73.4000,0.469
73.4400,0.532
73.4800,0.495
73.5200,0.461
73.5600,0.558
73.6000,0.434
73.6400,0.509
73.6800,0.458
73.7200,0.438
73.7600,0.425
73.8000,0.454
73.8400,0.465
73.8800,0.494
73.9200,0.462
73.9600,0.474
74.0000,0.449
74.0400,0.446
74.0800,0.447
74.1200,0.455
74.1600,0.423
74.2000,0.430
74.2400,0.422
74.2800,0.425
74.3200,0.477
74.3600,0.444
74.4000,0.434
74.4400,0.437
74.4800,0.472
74.5200,0.453
74.5600,0.455
74.6000,0.443
74.6400,0.419
74.6800,0.419
74.7200,0.389
74.7600,0.427
74.8000,0.442
74.8400,0.455
74.8800,0.457
74.9200,0.434
74.9600,0.434
75.0000,0.420
75.0400,0.473
75.0800,0.482
75.1200,0.438
75.1600,0.427
75.2000,0.461
75.2400,0.439
75.2800,0.438
75.3200,0.419
75.3600,0.422
75.4000,0.420
75.4400,0.468
75.4800,0.442
75.5200,0.449
75.5600,0.393
75.6000,0.413
75.6400,0.419
75.6800,0.448
75.7200,0.444
75.7600,0.426
75.8000,0.444
75.8400,0.460
75.8800,0.464
75.9200,0.460
75.9600,0.463
76.0000,0.470
76.0400,0.457
76.0800,0.395
76.1200,0.446
76.1600,0.416
76.2000,0.428
76.2400,0.419
76.2800,0.420
76.3200,0.445
76.3600,0.414
76.4000,0.426
76.4400,0.474
76.4800,0.430
76.5200,0.469
76.5600,0.474
76.6000,0.472
76.6400,0.461
76.6800,0.476
76.7200,0.479
76.7600,0.559
76.8000,0.554
76.8400,0.558
76.8800,0.560
76.9200,0.611
76.9600,0.581
77.0000,0.607
77.0400,0.611
77.0800,0.665
77.1200,0.688
77.1600,0.690
77.2000,0.632
77.2400,0.658
77.2800,0.670
77.3200,0.655
77.3600,0.616
77.4000,0.604
77.4400,0.547
77.4800,0.531
77.5200,0.517
77.5600,0.505
77.6000,0.456
77.6400,0.495
77.6800,0.444
77.7200,0.454
77.7600,0.444
77.8000,0.436
77.8400,0.418
77.8800,0.425
77.9200,0.424
77.9600,0.425
78.0000,0.374
78.0400,0.363
78.0800,0.401
78.1200,0.375
78.1600,0.400
78.2000,0.385
78.2400,0.416
78.2800,0.388
78.3200,0.414
78.3600,0.423
78.4000,0.416
78.4400,0.398
78.4800,0.443
78.5200,0.430
78.5600,0.460
78.6000,0.440
78.6400,0.472
78.6800,0.466
78.7200,0.495
78.7600,0.502
78.8000,0.506
78.8400,0.536
78.8800,0.496
78.9200,0.564
78.9600,0.543
79.0000,0.526
79.0400,0.541
79.0800,0.502
79.1200,0.503
79.1600,0.509
79.2000,0.504
79.2400,0.475
79.2800,0.437
79.3200,0.410
79.3600,0.444
79.4000,0.454
79.4400,0.418
79.4800,0.389
79.5200,0.409
79.5600,0.419
79.6000,0.386
79.6400,0.389
79.6800,0.328
79.7200,0.343
79.7600,0.322
79.8000,0.325
79.8400,0.341
79.8800,0.330
79.9200,0.332
79.9600,0.318
80.0000,0.313
