theta,intensity
5.0000,4.498
5.0400,4.623
5.0800,4.373
5.1200,4.426
5.1600,4.311
5.2000,4.442
5.2400,4.525
5.2800,4.404
5.3200,4.301
5.3600,4.395
5.4000,4.331
5.4400,4.540
5.4800,4.253
5.5200,4.280
5.5600,4.317
5.6000,4.397
5.6400,4.259
5.6800,4.222
5.7200,4.213
5.7600,4.332
5.8000,4.232
5.8400,4.255
5.8800,4.313
5.9200,4.300
5.9600,4.255
6.0000,4.142
6.0400,4.267
6.0800,4.212
6.1200,4.233
6.1600,4.020
6.2000,4.056
6.2400,4.065
6.2800,4.087
6.3200,4.048
6.3600,4.108
6.4000,4.056
6.4400,3.978
6.4800,3.995
6.5200,4.095
6.5600,4.042
6.6000,4.049
6.6400,4.096
6.6800,3.986
6.7200,4.103
6.7600,4.052
6.8000,4.049
6.8400,4.105
6.8800,4.034
6.9200,4.046
6.9600,4.043
7.0000,4.107
7.0400,4.041
7.0800,3.957
7.1200,3.994
7.1600,3.883
7.2000,3.962
7.2400,3.961
7.2800,4.085
7.3200,3.840
7.3600,4.024
7.4000,4.003
7.4400,3.893
7.4800,3.887
7.5200,3.850
7.5600,3.883
7.6000,3.761
7.6400,3.785
7.6800,3.940
7.7200,3.966
7.7600,3.761
7.8000,4.036
7.8400,3.941
7.8800,3.931
7.9200,3.857
7.9600,3.830
8.0000,4.033
8.0400,3.874
8.0800,3.846
8.1200,3.728
8.1600,3.899
8.2000,3.853
8.2400,3.829
8.2800,3.781
8.3200,3.903
8.3600,3.771
8.4000,3.827
8.4400,3.724
8.4800,3.759
8.5200,3.786
8.5600,3.815
8.6000,3.701
8.6400,3.700
8.6800,3.759
8.7200,3.696
8.7600,3.832
8.8000,3.870
8.8400,3.731
8.8800,3.833
8.9200,3.782
8.9600,3.656
9.0000,3.646
9.0400,3.733
9.0800,3.734
9.1200,3.703
9.1600,3.646
9.2000,3.693
9.2400,3.695
9.2800,3.651
9.3200,3.776
9.3600,3.766
9.4000,3.643
9.4400,3.758
9.4800,3.765
9.5200,3.739
9.5600,3.758
9.6000,3.721
9.6400,3.742
9.6800,3.670
9.7200,3.692
9.7600,3.699
9.8000,3.784
9.8400,3.627
9.8800,3.676
9.9200,3.622
9.9600,3.535
10.0000,3.644
10.0400,3.572
10.0800,3.607
10.1200,3.782
10.1600,3.555
10.2000,3.634
10.2400,3.698
10.2800,3.648
10.3200,3.677
10.3600,3.626
10.4000,3.641
10.4400,3.649
10.4800,3.561
10.5200,3.604
10.5600,3.498
10.6000,3.703
10.6400,3.584
10.6800,3.579
10.7200,3.654
10.7600,3.570
10.8000,3.470
10.8400,3.532
10.8800,3.590
10.9200,3.683
10.9600,3.462
11.0000,3.595
11.0400,3.600
11.0800,3.545
11.1200,3.566
11.1600,3.508
11.2000,3.552
11.2400,3.553
11.2800,3.522
11.3200,3.561
11.3600,3.588
11.4000,3.553
11.4400,3.400
11.4800,3.511
11.5200,3.478
11.5600,3.440
11.6000,3.540
11.6400,3.528
11.6800,3.363
11.7200,3.451
11.7600,3.395
11.8000,3.423
11.8400,3.386
11.8800,3.533
11.9200,3.609
11.9600,3.486
12.0000,3.413
12.0400,3.408
12.0800,3.422
12.1200,3.414
12.1600,3.478
12.2000,3.519
12.2400,3.584
12.2800,3.524
12.3200,3.522
12.3600,3.418
12.4000,3.391
12.4400,3.406
12.4800,3.330
12.5200,3.436
12.5600,3.403
12.6000,3.335
12.6400,3.317
12.6800,3.463
12.7200,3.331
12.7600,3.332
12.8000,3.361
12.8400,3.393
12.8800,3.452
12.9200,3.343
12.9600,3.382
13.0000,3.315
13.0400,3.417
13.0800,3.367
13.1200,3.375
13.1600,3.364
13.2000,3.231
13.2400,3.316
13.2800,3.303
13.3200,3.334
13.3600,3.309
13.4000,3.344
13.4400,3.318
13.4800,3.382
13.5200,3.320
13.5600,3.331
13.6000,3.352
13.6400,3.314
13.6800,3.235
13.7200,3.236
13.7600,3.192
13.8000,3.333
13.8400,3.243
13.8800,3.231
13.9200,3.292
13.9600,3.263
14.0000,3.163
14.0400,3.241
14.0800,3.109
14.1200,3.147
14.1600,3.240
14.2000,3.298
14.2400,3.197
14.2800,3.302
14.3200,3.374
14.3600,3.183
14.4000,3.204
14.4400,3.153
14.4800,3.236
14.5200,3.218
14.5600,3.255
14.6000,3.221
14.6400,3.231
14.6800,3.229
14.7200,3.205
14.7600,3.130
14.8000,3.236
14.8400,3.341
14.8800,3.241
14.9200,3.245
14.9600,3.141
15.0000,3.211
15.0400,3.208
15.0800,3.102
15.1200,3.162
15.1600,3.213
15.2000,3.229
15.2400,3.159
15.2800,3.123
15.3200,3.173
15.3600,3.152
15.4000,3.150
15.4400,3.212
15.4800,3.206
15.5200,3.051
15.5600,3.097
15.6000,3.109
15.6400,3.170
15.6800,3.110
15.7200,3.006
15.7600,3.026
15.8000,3.155
15.8400,3.118
15.8800,3.119
15.9200,3.136
15.9600,3.096
16.0000,3.043
16.0400,3.119
16.0800,3.102
16.1200,3.063
16.1600,3.137
16.2000,3.024
16.2400,2.944
16.2800,3.134
16.3200,3.122
16.3600,3.132
16.4000,3.117
16.4400,2.924
16.4800,3.139
16.5200,2.983
16.5600,2.878
16.6000,3.080
16.6400,3.016
16.6800,3.099
16.7200,3.006
16.7600,3.060
16.8000,3.127
16.8400,3.030
16.8800,3.094
16.9200,2.932
16.9600,3.137
17.0000,2.971
17.0400,3.035
17.0800,2.909
17.1200,2.952
17.1600,3.114
17.2000,3.020
17.2400,3.032
17.2800,2.955
17.3200,3.069
17.3600,3.000
17.4000,3.047
17.4400,2.969
17.4800,2.917
17.5200,2.936
17.5600,2.948
17.6000,2.933
17.6400,2.941
17.6800,2.954
17.7200,2.922
17.7600,2.987
17.8000,2.990
17.8400,2.876
17.8800,2.925
17.9200,2.947
17.9600,2.971
18.0000,2.984
18.0400,2.933
18.0800,2.841
18.1200,2.886
18.1600,2.915
18.2000,2.908
18.2400,2.926
18.2800,3.004
18.3200,2.958
18.3600,2.998
18.4000,2.873
18.4400,2.841
18.4800,2.896
18.5200,2.828
18.5600,2.847
18.6000,2.814
18.6400,2.863
18.6800,2.884
18.7200,2.870
18.7600,2.832
18.8000,2.897
18.8400,2.811
18.8800,2.843
18.9200,2.899
18.9600,2.731
19.0000,2.696
19.0400,2.766
19.0800,2.787
19.1200,2.896
19.1600,2.880
19.2000,2.815
19.2400,2.908
19.2800,2.817
19.3200,2.814
19.3600,2.788
19.4000,2.887
19.4400,2.761
19.4800,2.837
19.5200,2.763
19.5600,2.871
19.6000,2.769
19.6400,2.674
19.6800,2.749
19.7200,2.700
19.7600,2.780
19.8000,2.709
19.8400,2.732
19.8800,2.756
19.9200,2.751
19.9600,2.703
20.0000,2.710
20.0400,2.691
20.0800,2.737
20.1200,2.702
20.1600,2.783
20.2000,2.738
20.2400,2.775
20.2800,2.772
20.3200,2.706
20.3600,2.756
20.4000,2.714
20.4400,2.810
20.4800,2.655
20.5200,2.654
20.5600,2.718
20.6000,2.634
20.6400,2.613
20.6800,2.766
20.7200,2.655
20.7600,2.634
20.8000,2.698
20.8400,2.673
20.8800,2.572
20.9200,2.722
20.9600,2.672
21.0000,2.815
21.0400,2.684
21.0800,2.720
21.1200,2.678
21.1600,2.621
21.2000,2.502
21.2400,2.667
21.2800,2.578
21.3200,2.698
21.3600,2.565
21.4000,2.634
21.4400,2.554
21.4800,2.621
21.5200,2.622
21.5600,2.537
21.6000,2.617
21.6400,2.515
21.6800,2.576
21.7200,2.552
21.7600,2.648
21.8000,2.502
21.8400,2.572
21.8800,2.619
21.9200,2.532
21.9600,2.519
22.0000,2.551
22.0400,2.563
22.0800,2.543
22.1200,2.474
22.1600,2.585
22.2000,2.537
22.2400,2.605
22.2800,2.593
22.3200,2.583
22.3600,2.496
22.4000,2.480
22.4400,2.532
22.4800,2.462
22.5200,2.516
22.5600,2.542
22.6000,2.453
22.6400,2.400
22.6800,2.427
22.7200,2.407
22.7600,2.444
22.8000,2.502
22.8400,2.385
22.8800,2.505
22.9200,2.422
22.9600,2.405
23.0000,2.471
23.0400,2.527
23.0800,2.465
23.1200,2.487
23.1600,2.514
23.2000,2.399
23.2400,2.371
23.2800,2.498
23.3200,2.546
23.3600,2.551
23.4000,2.440
23.4400,2.463
23.4800,2.323
23.5200,2.351
23.5600,2.405
23.6000,2.379
23.6400,2.369
23.6800,2.362
23.7200,2.505
23.7600,2.517
23.8000,2.427
23.8400,2.358
23.8800,2.386
23.9200,2.424
23.9600,2.275
24.0000,2.389
24.0400,2.350
24.0800,2.362
24.1200,2.400
24.1600,2.355
24.2000,2.259
24.2400,2.414
24.2800,2.348
24.3200,2.368
24.3600,2.310
24.4000,2.382
24.4400,2.324
24.4800,2.434
24.5200,2.284
24.5600,2.316
24.6000,2.300
24.6400,2.267
24.6800,2.453
24.7200,2.314
24.7600,2.315
24.8000,2.279
24.8400,2.341
24.8800,2.275
24.9200,2.274
24.9600,2.211
25.0000,2.326
25.0400,2.273
25.0800,2.338
25.1200,2.234
25.1600,2.317
25.2000,2.242
25.2400,2.185
25.2800,2.244
25.3200,2.277
25.3600,2.234
25.4000,2.215
25.4400,2.191
25.4800,2.126
25.5200,2.312
25.5600,2.243
25.6000,2.286
25.6400,2.301
25.6800,2.254
25.7200,2.297
25.7600,2.175
25.8000,2.278
25.8400,2.305
25.8800,2.270
25.9200,2.194
25.9600,2.194
26.0000,2.162
26.0400,2.201
26.0800,2.286
26.1200,2.208
26.1600,2.221
26.2000,2.280
26.2400,2.174
26.2800,2.245
26.3200,2.240
26.3600,2.233
26.4000,2.131
26.4400,2.214
26.4800,2.127
26.5200,2.193
26.5600,2.182
26.6000,2.150
26.6400,2.196
26.6800,2.160
26.7200,2.208
26.7600,2.184
26.8000,2.083
26.8400,2.211
26.8800,2.198
26.9200,2.082
26.9600,2.202
27.0000,2.193
27.0400,2.163
27.0800,2.141
27.1200,2.099
27.1600,2.079
27.2000,2.130
27.2400,2.147
27.2800,2.183
27.3200,2.095
27.3600,2.177
27.4000,2.037
27.4400,2.101
27.4800,2.128
27.5200,2.040
27.5600,2.018
27.6000,2.089
27.6400,2.012
27.6800,2.052
27.7200,2.142
27.7600,2.043
27.8000,2.068
27.8400,2.112
27.8800,2.147
27.9200,2.066
27.9600,2.118
28.0000,2.056
28.0400,2.050
28.0800,2.025
28.1200,2.067
28.1600,2.162
28.2000,2.086
28.2400,2.060
28.2800,2.105
28.3200,1.952
28.3600,2.001
28.4000,1.982
28.4400,2.041
28.4800,1.979
28.5200,1.959
28.5600,1.944
28.6000,1.978
28.6400,1.941
28.6800,1.970
28.7200,1.990
28.7600,2.016
28.8000,2.023
28.8400,2.020
28.8800,2.025
28.9200,2.009
28.9600,2.007
29.0000,2.008
29.0400,1.987
29.0800,1.892
29.1200,1.916
29.1600,1.996
29.2000,1.934
29.2400,1.920
29.2800,1.985
29.3200,2.001
29.3600,1.956
29.4000,1.961
29.4400,1.981
29.4800,2.055
29.5200,1.930
29.5600,1.907
29.6000,1.920
29.6400,1.913
29.6800,1.907
29.7200,1.888
29.7600,1.841
29.8000,1.983
29.8400,1.970
29.8800,1.963
29.9200,1.909
29.9600,1.923
30.0000,1.916
30.0400,1.846
30.0800,1.903
30.1200,1.851
30.1600,1.932
30.2000,1.820
30.2400,1.955
30.2800,1.854
30.3200,1.801
30.3600,1.912
30.4000,1.862
30.4400,1.854
30.4800,1.882
30.5200,1.834
30.5600,1.843
30.6000,1.800
30.6400,1.866
30.6800,1.889
30.7200,1.823
30.7600,1.927
30.8000,1.965
30.8400,1.872
30.8800,1.902
30.9200,1.857
30.9600,1.885
31.0000,1.891
31.0400,1.891
31.0800,1.839
31.1200,1.869
31.1600,1.788
31.2000,1.827
31.2400,1.912
31.2800,1.836
31.3200,1.809
31.3600,1.780
31.4000,1.783
31.4400,1.883
31.4800,1.836
31.5200,1.813
31.5600,1.780
31.6000,1.761
31.6400,1.822
31.6800,1.821
31.7200,1.809
31.7600,1.826
31.8000,1.882
31.8400,1.807
31.8800,1.794
31.9200,1.823
31.9600,1.799
32.0000,1.831
32.0400,1.702
32.0800,1.846
32.1200,1.886
32.1600,1.872
32.2000,1.775
32.2400,1.781
32.2800,1.823
32.3200,1.789
32.3600,1.818
32.4000,1.776
32.4400,1.756
32.4800,1.665
32.5200,1.732
32.5600,1.741
32.6000,1.656
32.6400,1.797
32.6800,1.621
32.7200,1.647
32.7600,1.759
32.8000,1.772
32.8400,1.767
32.8800,1.784
32.9200,1.793
32.9600,1.783
33.0000,1.735
33.0400,1.756
33.0800,1.721
33.1200,1.723
33.1600,1.719
33.2000,1.660
33.2400,1.627
33.2800,1.724
33.3200,1.735
33.3600,1.673
33.4000,1.704
33.4400,1.687
33.4800,1.775
33.5200,1.702
33.5600,1.607
33.6000,1.725
33.6400,1.697
33.6800,1.677
33.7200,1.705
33.7600,1.632
33.8000,1.695
33.8400,1.667
33.8800,1.611
33.9200,1.663
33.9600,1.699
34.0000,1.696
34.0400,1.617
34.0800,1.723
34.1200,1.618
34.1600,1.680
34.2000,1.702
34.2400,1.637
34.2800,1.650
34.3200,1.659
34.3600,1.682
34.4000,1.705
34.4400,1.661
34.4800,1.660
34.5200,1.670
34.5600,1.594
34.6000,1.623
34.6400,1.666
34.6800,1.754
34.7200,1.599
34.7600,1.728
34.8000,1.699
34.8400,1.632
34.8800,1.685
34.9200,1.620
34.9600,1.675
35.0000,1.607
35.0400,1.589
35.0800,1.608
35.1200,1.671
35.1600,1.656
35.2000,1.625
35.2400,1.569
35.2800,1.662
35.3200,1.722
35.3600,1.720
35.4000,1.641
35.4400,1.648
35.4800,1.706
35.5200,1.680
35.5600,1.636
35.6000,1.629
35.6400,1.688
35.6800,1.711
35.7200,1.675
35.7600,1.643
35.8000,1.664
35.8400,1.712
35.8800,1.670
35.9200,1.681
35.9600,1.740
36.0000,1.832
36.0400,1.698
36.0800,1.824
36.1200,1.809
36.1600,1.837
36.2000,1.790
36.2400,1.818
36.2800,1.875
36.3200,1.938
36.3600,1.762
36.4000,1.828
36.4400,1.773
36.4800,1.866
36.5200,1.831
36.5600,1.872
36.6000,1.881
36.6400,1.826
36.6800,1.900
36.7200,1.873
36.7600,1.891
36.8000,1.890
36.8400,1.974
36.8800,1.896
36.9200,1.791
36.9600,1.943
37.0000,1.943
37.0400,1.878
37.0800,2.008
37.1200,2.032
37.1600,2.008
37.2000,2.058
37.2400,2.055
37.2800,2.060
37.3200,2.165
37.3600,2.281
37.4000,2.243
37.4400,2.195
37.4800,2.286
37.5200,2.353
37.5600,2.465
37.6000,2.595
37.6400,2.693
37.6800,2.919
37.7200,2.868
37.7600,3.124
37.8000,3.269
37.8400,3.419
37.8800,3.903
37.9200,4.064
37.9600,4.654
38.0000,5.124
38.0400,5.918
38.0800,6.873
38.1200,7.934
38.1600,9.367
38.2000,10.997
38.2400,12.779
38.2800,14.445
38.3200,15.388
38.3600,15.835
38.4000,15.200
38.4400,13.548
38.4800,12.030
38.5200,10.301
38.5600,8.423
38.6000,7.379
38.6400,6.361
38.6800,5.650
38.7200,4.829
38.7600,4.327
38.8000,3.973
38.8400,3.609
38.8800,3.441
38.9200,3.209
38.9600,2.953
39.0000,2.764
39.0400,2.645
39.0800,2.646
39.1200,2.593
39.1600,2.463
39.2000,2.393
39.2400,2.334
39.2800,2.191
39.3200,2.079
39.3600,2.214
39.4000,2.045
39.4400,2.128
39.4800,2.017
39.5200,2.011
39.5600,1.886
39.6000,1.868
39.6400,1.888
39.6800,1.868
39.7200,1.735
39.7600,1.922
39.8000,1.829
39.8400,1.810
39.8800,1.739
39.9200,1.815
39.9600,1.788
40.0000,1.723
40.0400,1.752
40.0800,1.779
40.1200,1.736
40.1600,1.670
40.2000,1.716
40.2400,1.637
40.2800,1.603
40.3200,1.645
40.3600,1.737
40.4000,1.656
40.4400,1.686
40.4800,1.668
40.5200,1.658
40.5600,1.676
40.6000,1.557
40.6400,1.601
40.6800,1.600
40.7200,1.627
40.7600,1.610
40.8000,1.565
40.8400,1.595
40.8800,1.654
40.9200,1.640
40.9600,1.506
41.0000,1.531
41.0400,1.555
41.0800,1.564
41.1200,1.557
41.1600,1.595
41.2000,1.535
41.2400,1.551
41.2800,1.615
41.3200,1.542
41.3600,1.601
41.4000,1.543
41.4400,1.538
41.4800,1.534
41.5200,1.517
41.5600,1.506
41.6000,1.430
41.6400,1.480
41.6800,1.401
41.7200,1.406
41.7600,1.496
41.8000,1.465
41.8400,1.455
41.8800,1.402
41.9200,1.403
41.9600,1.481
42.0000,1.473
42.0400,1.337
42.0800,1.394
42.1200,1.396
42.1600,1.432
42.2000,1.369
42.2400,1.415
42.2800,1.429
42.3200,1.361
42.3600,1.432
42.4000,1.457
42.4400,1.379
42.4800,1.383
42.5200,1.366
42.5600,1.401
42.6000,1.396
42.6400,1.430
42.6800,1.313
42.7200,1.459
42.7600,1.423
42.8000,1.495
42.8400,1.380
42.8800,1.386
42.9200,1.376
42.9600,1.448
43.0000,1.383
43.0400,1.413
43.0800,1.441
43.1200,1.468
43.1600,1.465
43.2000,1.448
43.2400,1.464
43.2800,1.504
43.3200,1.538
43.3600,1.555
43.4000,1.577
43.4400,1.548
43.4800,1.495
43.5200,1.590
43.5600,1.541
43.6000,1.625
43.6400,1.662
43.6800,1.769
43.7200,1.751
43.7600,1.697
43.8000,1.806
43.8400,1.847
43.8800,1.863
43.9200,1.926
43.9600,1.983
44.0000,2.022
44.0400,2.213
44.0800,2.233
44.1200,2.312
44.1600,2.464
44.2000,2.507
44.2400,2.660
44.2800,2.753
44.3200,2.930
44.3600,3.126
44.4000,3.411
44.4400,3.548
44.4800,3.794
44.5200,3.836
44.5600,4.020
44.6000,4.074
44.6400,4.106
44.6800,3.967
44.7200,3.761
44.7600,3.580
44.8000,3.419
44.8400,3.136
44.8800,3.060
44.9200,2.776
44.9600,2.640
45.0000,2.423
45.0400,2.381
45.0800,2.189
45.1200,2.036
45.1600,1.896
45.2000,1.904
45.2400,1.816
45.2800,1.737
45.3200,1.645
45.3600,1.594
45.4000,1.584
45.4400,1.513
45.4800,1.487
45.5200,1.443
45.5600,1.380
45.6000,1.285
45.6400,1.340
45.6800,1.296
45.7200,1.318
45.7600,1.266
45.8000,1.237
45.8400,1.201
45.8800,1.180
45.9200,1.217
45.9600,1.187
46.0000,1.182
46.0400,1.170
46.0800,1.193
46.1200,1.172
46.1600,1.154
46.2000,1.098
46.2400,1.147
46.2800,1.098
46.3200,1.137
46.3600,1.092
46.4000,1.042
46.4400,1.153
46.4800,1.078
46.5200,1.104
46.5600,1.066
46.6000,1.004
46.6400,1.048
46.6800,1.054
46.7200,1.067
46.7600,1.123
46.8000,1.013
46.8400,0.985
46.8800,1.012
46.9200,0.978
46.9600,0.965
47.0000,1.040
47.0400,0.987
47.0800,0.964
47.1200,0.997
47.1600,1.011
47.2000,0.975
47.2400,0.994
47.2800,0.968
47.3200,0.985
47.3600,0.961
47.4000,0.991
47.4400,0.929
47.4800,0.977
47.5200,0.968
47.5600,0.994
47.6000,0.981
47.6400,0.960
47.6800,0.932
47.7200,0.960
47.7600,1.012
47.8000,0.979
47.8400,0.948
47.8800,0.925
47.9200,0.969
47.9600,0.965
48.0000,0.909
48.0400,0.969
48.0800,0.921
48.1200,0.946
48.1600,0.914
48.2000,0.934
48.2400,0.928
48.2800,0.911
48.3200,0.898
48.3600,0.945
48.4000,0.968
48.4400,0.883
48.4800,0.880
48.5200,0.884
48.5600,0.958
48.6000,0.858
48.6400,0.910
48.6800,0.911
48.7200,0.883
48.7600,0.885
48.8000,0.883
48.8400,0.950
48.8800,0.952
48.9200,0.855
48.9600,0.905
49.0000,0.924
49.0400,0.880
49.0800,0.865
49.1200,0.898
49.1600,0.875
49.2000,0.899
49.2400,0.825
49.2800,0.804
49.3200,0.899
49.3600,0.855
49.4000,0.877
49.4400,0.871
49.4800,0.915
49.5200,0.797
49.5600,0.889
49.6000,0.855
49.6400,0.866
49.6800,0.811
49.7200,0.821
49.7600,0.801
49.8000,0.752
49.8400,0.787
49.8800,0.824
49.9200,0.818
49.9600,0.843
50.0000,0.859
50.0400,0.749
50.0800,0.823
50.1200,0.822
50.1600,0.824
50.2000,0.807
50.2400,0.859
50.2800,0.829
50.3200,0.799
50.3600,0.792
50.4000,0.781
50.4400,0.795
50.4800,0.796
50.5200,0.818
50.5600,0.793
50.6000,0.805
50.6400,0.732
50.6800,0.776
50.7200,0.788
50.7600,0.813
50.8000,0.844
50.8400,0.787
50.8800,0.789
50.9200,0.813
50.9600,0.793
51.0000,0.781
51.0400,0.773
51.0800,0.766
51.1200,0.820
51.1600,0.754
51.2000,0.730
51.2400,0.800
51.2800,0.815
51.3200,0.798
51.3600,0.801
51.4000,0.791
51.4400,0.820
51.4800,0.794
51.5200,0.801
51.5600,0.795
51.6000,0.770
51.6400,0.771
51.6800,0.820
51.7200,0.768
51.7600,0.750
51.8000,0.825
51.8400,0.759
51.8800,0.759
51.9200,0.735
51.9600,0.786
52.0000,0.772
52.0400,0.760
52.0800,0.764
52.1200,0.839
52.1600,0.765
52.2000,0.743
52.2400,0.790
52.2800,0.799
52.3200,0.740
52.3600,0.805
52.4000,0.785
52.4400,0.764
52.4800,0.744
52.5200,0.770
52.5600,0.771
52.6000,0.712
52.6400,0.723
52.6800,0.765
52.7200,0.737
52.7600,0.741
52.8000,0.759
52.8400,0.790
52.8800,0.737
52.9200,0.776
52.9600,0.758
53.0000,0.759
53.0400,0.755
53.0800,0.741
53.1200,0.703
53.1600,0.733
53.2000,0.694
53.2400,0.776
53.2800,0.763
53.3200,0.733
53.3600,0.779
53.4000,0.744
53.4400,0.746
53.4800,0.750
53.5200,0.714
53.5600,0.754
53.6000,0.718
53.6400,0.759
53.6800,0.726
53.7200,0.749
53.7600,0.725
53.8000,0.760
53.8400,0.773
53.8800,0.779
53.9200,0.706
53.9600,0.713
54.0000,0.751
54.0400,0.735
54.0800,0.724
54.1200,0.716
54.1600,0.761
54.2000,0.762
54.2400,0.736
54.2800,0.730
54.3200,0.685
54.3600,0.718
54.4000,0.772
54.4400,0.685
54.4800,0.679
54.5200,0.711
54.5600,0.752
54.6000,0.766
54.6400,0.741
54.6800,0.779
54.7200,0.702
54.7600,0.761
54.8000,0.718
54.8400,0.624
54.8800,0.701
54.9200,0.751
54.9600,0.693
55.0000,0.707
55.0400,0.711
55.0800,0.699
55.1200,0.702
55.1600,0.731
55.2000,0.693
55.2400,0.692
55.2800,0.688
55.3200,0.659
55.3600,0.752
55.4000,0.675
55.4400,0.660
55.4800,0.714
55.5200,0.706
55.5600,0.695
55.6000,0.735
55.6400,0.690
55.6800,0.656
55.7200,0.676
55.7600,0.668
55.8000,0.692
55.8400,0.697
55.8800,0.684
55.9200,0.717
55.9600,0.710
56.0000,0.694
56.0400,0.756
56.0800,0.717
56.1200,0.709
56.1600,0.699
56.2000,0.642
56.2400,0.646
56.2800,0.670
56.3200,0.689
56.3600,0.667
56.4000,0.706
56.4400,0.671
56.4800,0.707
56.5200,0.643
56.5600,0.672
56.6000,0.671
56.6400,0.687
56.6800,0.630
56.7200,0.695
56.7600,0.695
56.8000,0.697
56.8400,0.658
56.8800,0.655
56.9200,0.654
56.9600,0.591
57.0000,0.642
57.0400,0.719
57.0800,0.707
57.1200,0.705
57.1600,0.725
57.2000,0.664
57.2400,0.675
57.2800,0.705
57.3200,0.680
57.3600,0.680
57.4000,0.645
57.4400,0.716
57.4800,0.647
57.5200,0.627
57.5600,0.639
57.6000,0.628
57.6400,0.646
57.6800,0.608
57.7200,0.662
57.7600,0.639
57.8000,0.632
57.8400,0.698
57.8800,0.669
57.9200,0.636
57.9600,0.603
58.0000,0.593
58.0400,0.642
58.0800,0.611
58.1200,0.659
58.1600,0.620
58.2000,0.672
58.2400,0.679
58.2800,0.619
58.3200,0.649
58.3600,0.632
58.4000,0.649
58.4400,0.697
58.4800,0.656
58.5200,0.657
58.5600,0.633
58.6000,0.642
58.6400,0.648
58.6800,0.672
58.7200,0.615
58.7600,0.617
58.8000,0.631
58.8400,0.640
58.8800,0.584
58.9200,0.633
58.9600,0.624
59.0000,0.633
59.0400,0.661
59.0800,0.628
59.1200,0.610
59.1600,0.620
59.2000,0.637
59.2400,0.601
59.2800,0.646
59.3200,0.589
59.3600,0.622
59.4000,0.602
59.4400,0.630
59.4800,0.629
59.5200,0.582
59.5600,0.622
59.6000,0.613
59.6400,0.584
59.6800,0.644
59.7200,0.622
59.7600,0.596
59.8000,0.602
59.8400,0.614
59.8800,0.594
59.9200,0.592
59.9600,0.604
60.0000,0.625
60.0400,0.655
60.0800,0.589
60.1200,0.647
60.1600,0.608
60.2000,0.601
60.2400,0.615
60.2800,0.583
60.3200,0.606
60.3600,0.579
60.4000,0.586
60.4400,0.585
60.4800,0.604
60.5200,0.607
60.5600,0.617
60.6000,0.612
60.6400,0.594
60.6800,0.610
60.7200,0.615
60.7600,0.566
60.8000,0.642
60.8400,0.606
60.8800,0.600
60.9200,0.593
60.9600,0.598
61.0000,0.615
61.0400,0.587
61.0800,0.607
61.1200,0.592
61.1600,0.594
61.2000,0.577
61.2400,0.661
61.2800,0.589
61.3200,0.596
61.3600,0.590
61.4000,0.605
61.4400,0.585
61.4800,0.621
61.5200,0.561
61.5600,0.558
61.6000,0.607
61.6400,0.605
61.6800,0.585
61.7200,0.691
61.7600,0.645
61.8000,0.665
61.8400,0.586
61.8800,0.621
61.9200,0.602
61.9600,0.594
62.0000,0.625
62.0400,0.615
62.0800,0.562
62.1200,0.597
62.1600,0.610
62.2000,0.644
62.2400,0.625
62.2800,0.648
62.3200,0.615
62.3600,0.637
62.4000,0.625
62.4400,0.595
62.4800,0.672
62.5200,0.595
62.5600,0.661
62.6000,0.576
62.6400,0.640
62.6800,0.591
62.7200,0.606
62.7600,0.645
62.8000,0.611
62.8400,0.632
62.8800,0.635
62.9200,0.568
62.9600,0.614
63.0000,0.705
63.0400,0.654
63.0800,0.661
63.1200,0.659
63.1600,0.656
63.2000,0.678
63.2400,0.688
63.2800,0.658
63.3200,0.689
63.3600,0.640
63.4000,0.699
63.4400,0.692
63.4800,0.679
63.5200,0.661
63.5600,0.651
63.6000,0.735
63.6400,0.729
63.6800,0.724
63.7200,0.747
63.7600,0.768
63.8000,0.734
63.8400,0.769
63.8800,0.789
63.9200,0.853
63.9600,0.906
64.0000,0.871
64.0400,0.803
64.0800,0.905
64.1200,0.915
64.1600,0.924
64.2000,0.908
64.2400,0.978
64.2800,1.037
64.3200,1.028
64.3600,1.193
64.4000,1.247
64.4400,1.305
64.4800,1.404
64.5200,1.488
64.5600,1.741
64.6000,1.833
64.6400,2.036
64.6800,2.078
64.7200,2.275
64.7600,2.387
64.8000,2.404
64.8400,2.419
64.8800,2.518
64.9200,2.384
64.9600,2.337
65.0000,2.242
65.0400,2.116
65.0800,2.003
65.1200,1.722
65.1600,1.684
65.2000,1.522
65.2400,1.467
65.2800,1.348
65.3200,1.276
65.3600,1.197
65.4000,1.114
65.4400,1.086
65.4800,1.052
65.5200,1.027
65.5600,1.017
65.6000,0.952
65.6400,0.923
65.6800,0.916
65.7200,0.895
65.7600,0.860
65.8000,0.857
65.8400,0.818
65.8800,0.863
65.9200,0.895
65.9600,0.850
66.0000,0.834
66.0400,0.846
66.0800,0.816
66.1200,0.800
66.1600,0.807
66.2000,0.861
66.2400,0.897
66.2800,0.850
66.3200,0.797
66.3600,0.805
66.4000,0.825
66.4400,0.842
66.4800,0.866
66.5200,0.838
66.5600,0.889
66.6000,0.859
66.6400,0.818
66.6800,0.843
66.7200,0.867
66.7600,0.868
66.8000,0.885
66.8400,0.890
66.8800,0.843
66.9200,0.800
66.9600,0.851
67.0000,0.927
67.0400,0.918
67.0800,0.946
67.1200,0.938
67.1600,1.008
67.2000,1.006
67.2400,0.983
67.2800,1.039
67.3200,1.076
67.3600,1.049
67.4000,1.071
67.4400,1.094
67.4800,1.094
67.5200,1.124
67.5600,1.071
67.6000,1.124
67.6400,1.170
67.6800,1.186
67.7200,1.233
67.7600,1.190
67.8000,1.230
67.8400,1.263
67.8800,1.336
67.9200,1.371
67.9600,1.389
68.0000,1.395
68.0400,1.401
68.0800,1.378
68.1200,1.456
68.1600,1.482
68.2000,1.558
68.2400,1.639
68.2800,1.621
68.3200,1.719
68.3600,1.728
68.4000,1.781
68.4400,1.860
68.4800,1.942
68.5200,1.996
68.5600,2.132
68.6000,2.207
68.6400,2.340
68.6800,2.637
68.7200,2.816
68.7600,3.494
68.8000,4.504
68.8400,5.592
68.8800,6.126
68.9200,6.180
68.9600,6.937
69.0000,8.662
69.0400,13.056
69.0800,23.516
69.1200,70.435
69.1600,287.704
69.2000,389.950
69.2400,174.607
69.2800,48.828
69.3200,55.418
69.3600,160.524
69.4000,197.154
69.4400,85.392
69.4800,23.237
69.5200,11.407
69.5600,7.812
69.6000,6.086
69.6400,4.929
69.6800,4.196
69.7200,3.697
69.7600,3.400
69.8000,3.003
69.8400,2.839
69.8800,2.625
69.9200,2.456
69.9600,2.348
70.0000,2.234
70.0400,2.074
70.0800,2.018
70.1200,1.959
70.1600,1.868
70.2000,1.835
70.2400,1.763
70.2800,1.763
70.3200,1.673
70.3600,1.555
70.4000,1.567
70.4400,1.509
70.4800,1.458
70.5200,1.446
70.5600,1.342
70.6000,1.329
70.6400,1.320
70.6800,1.320
70.7200,1.227
70.7600,1.141
70.8000,1.200
70.8400,1.107
70.8800,1.162
70.9200,1.130
70.9600,1.059
71.0000,1.019
71.0400,1.052
71.0800,1.046
71.1200,1.012
71.1600,1.023
71.2000,0.859
71.2400,1.011
71.2800,0.923
71.3200,0.905
71.3600,0.899
71.4000,0.870
71.4400,0.847
71.4800,0.782
71.5200,0.812
71.5600,0.806
71.6000,0.822
71.6400,0.756
71.6800,0.777
71.7200,0.741
71.7600,0.739
71.8000,0.741
71.8400,0.734
71.8800,0.709
71.9200,0.694
71.9600,0.692
72.0000,0.686
72.0400,0.682
72.0800,0.669
72.1200,0.677
72.1600,0.680
72.2000,0.692
72.2400,0.654
72.2800,0.607
72.3200,0.620
72.3600,0.573
72.4000,0.615
72.4400,0.635
72.4800,0.585
72.5200,0.602
72.5600,0.603
72.6000,0.594
72.6400,0.588
72.6800,0.583
72.7200,0.541
72.7600,0.610
72.8000,0.561
72.8400,0.536
72.8800,0.557
72.9200,0.544
72.9600,0.526
73.0000,0.541
73.0400,0.545
73.0800,0.545
73.1200,0.562
73.1600,0.544
73.2000,0.532
73.2400,0.483
73.2800,0.467
73.3200,0.516
73.3600,0.478
73.4000,0.495
73.4400,0.478
73.4800,0.546
73.5200,0.508
73.5600,0.505
73.6000,0.460
73.6400,0.483
73.6800,0.474
73.7200,0.455
73.7600,0.505
73.8000,0.471
73.8400,0.465
73.8800,0.440
73.9200,0.484
73.9600,0.458
74.0000,0.510
74.0400,0.438
74.0800,0.529
74.1200,0.463
74.1600,0.480
74.2000,0.472
74.2400,0.486
74.2800,0.476
74.3200,0.464
74.3600,0.468
74.4000,0.475
74.4400,0.467
74.4800,0.473
74.5200,0.469
74.5600,0.429
74.6000,0.430
74.6400,0.438
74.6800,0.470
74.7200,0.496
74.7600,0.474
74.8000,0.441
74.8400,0.409
74.8800,0.436
74.9200,0.478
74.9600,0.475
75.0000,0.483
75.0400,0.474
75.0800,0.462
75.1200,0.451
75.1600,0.433
75.2000,0.409
75.2400,0.466
75.2800,0.433
75.3200,0.397
75.3600,0.457
75.4000,0.417
75.4400,0.462
75.4800,0.497
75.5200,0.427
75.5600,0.438
75.6000,0.417
75.6400,0.450
75.6800,0.434
75.7200,0.431
75.7600,0.435
75.8000,0.413
75.8400,0.439
75.8800,0.437
75.9200,0.437
75.9600,0.437
76.0000,0.431
76.0400,0.415
76.0800,0.492
76.1200,0.440
76.1600,0.461
76.2000,0.490
76.2400,0.460
76.2800,0.474
76.3200,0.463
76.3600,0.512
76.4000,0.499
76.4400,0.516
76.4800,0.506
76.5200,0.516
76.5600,0.518
76.6000,0.502
76.6400,0.514
76.6800,0.549
76.7200,0.546
76.7600,0.568
76.8000,0.578
76.8400,0.585
76.8800,0.603
76.9200,0.635
76.9600,0.663
77.0000,0.637
77.0400,0.668
77.0800,0.733
77.1200,0.707
77.1600,0.713
77.2000,0.754
77.2400,0.808
77.2800,0.854
77.3200,0.921
77.3600,0.932
77.4000,1.012
77.4400,1.083
77.4800,1.154
77.5200,1.236
77.5600,1.339
77.6000,1.394
77.6400,1.615
77.6800,1.683
77.7200,1.674
77.7600,1.815
77.8000,1.892
77.8400,1.941
77.8800,1.958
77.9200,1.983
77.9600,1.964
78.0000,1.878
78.0400,1.801
78.0800,1.745
78.1200,1.603
78.1600,1.494
78.2000,1.410
78.2400,1.348
78.2800,1.216
78.3200,1.108
78.3600,1.044
78.4000,0.978
78.4400,0.959
78.4800,0.901
78.5200,0.814
78.5600,0.788
78.6000,0.698
78.6400,0.713
78.6800,0.651
78.7200,0.645
78.7600,0.639
78.8000,0.589
78.8400,0.572
78.8800,0.557
78.9200,0.528
78.9600,0.528
79.0000,0.520
79.0400,0.516
79.0800,0.496
79.1200,0.502
79.1600,0.462
79.2000,0.466
79.2400,0.461
79.2800,0.453
79.3200,0.473
79.3600,0.472
79.4000,0.474
79.4400,0.456
79.4800,0.480
79.5200,0.424
79.5600,0.438
79.6000,0.436
79.6400,0.458
79.6800,0.404
79.7200,0.448
79.7600,0.410
79.8000,0.432
79.8400,0.381
79.8800,0.398
79.9200,0.388
79.9600,0.359
80.0000,0.355
