theta,intensity
5.0000,6.361
5.0400,6.608
5.0800,6.516
5.1200,6.332
5.1600,6.142
5.2000,6.281
5.2400,6.271
5.2800,6.125
5.3200,6.143
5.3600,6.037
5.4000,5.997
5.4400,5.819
5.4800,5.959
5.5200,5.860
5.5600,5.759
5.6000,5.643
5.6400,5.628
5.6800,5.500
5.7200,5.388
5.7600,5.359
5.8000,5.379
5.8400,5.252
5.8800,5.230
5.9200,5.154
5.9600,5.052
6.0000,4.975
6.0400,4.957
6.0800,4.846
6.1200,4.883
6.1600,4.681
6.2000,4.675
6.2400,4.579
6.2800,4.580
6.3200,4.564
6.3600,4.525
6.4000,4.459
6.4400,4.477
6.4800,4.275
6.5200,4.326
6.5600,4.324
6.6000,4.226
6.6400,4.094
6.6800,4.306
6.7200,4.205
6.7600,4.317
6.8000,4.255
6.8400,4.137
6.8800,4.084
6.9200,4.189
6.9600,4.256
7.0000,4.071
7.0400,4.254
7.0800,4.104
7.1200,4.130
7.1600,4.154
7.2000,4.074
7.2400,4.178
7.2800,4.072
7.3200,4.054
7.3600,4.152
7.4000,4.094
7.4400,4.147
7.4800,4.044
7.5200,4.060
7.5600,4.076
7.6000,4.054
7.6400,3.967
7.6800,4.138
7.7200,4.143
7.7600,4.115
7.8000,4.161
7.8400,3.927
7.8800,4.065
7.9200,4.053
7.9600,3.996
8.0000,3.966
8.0400,4.136
8.0800,3.979
8.1200,3.986
8.1600,3.888
8.2000,3.913
8.2400,4.031
8.2800,4.044
8.3200,3.953
8.3600,3.828
8.4000,3.849
8.4400,3.937
8.4800,3.935
8.5200,3.974
8.5600,3.953
8.6000,3.964
8.6400,3.918
8.6800,3.871
8.7200,3.948
8.7600,3.856
8.8000,3.979
8.8400,3.857
8.8800,3.854
8.9200,3.768
8.9600,3.815
9.0000,3.871
9.0400,3.923
9.0800,3.867
9.1200,3.828
9.1600,3.810
9.2000,3.764
9.2400,3.794
9.2800,3.909
9.3200,3.821
9.3600,3.855
9.4000,3.876
9.4400,3.963
9.4800,3.715
9.5200,3.736
9.5600,3.750
9.6000,3.813
9.6400,3.874
9.6800,3.808
9.7200,3.863
9.7600,3.744
9.8000,3.734
9.8400,3.732
9.8800,3.776
9.9200,3.700
9.9600,3.811
10.0000,3.772
10.0400,3.714
10.0800,3.713
10.1200,3.779
10.1600,3.687
10.2000,3.745
10.2400,3.755
10.2800,3.720
10.3200,3.605
10.3600,3.718
10.4000,3.805
10.4400,3.692
10.4800,3.629
10.5200,3.644
10.5600,3.682
10.6000,3.625
10.6400,3.612
10.6800,3.594
10.7200,3.596
10.7600,3.638
10.8000,3.642
10.8400,3.617
10.8800,3.574
10.9200,3.579
10.9600,3.588
11.0000,3.561
11.0400,3.562
11.0800,3.606
11.1200,3.706
11.1600,3.601
11.2000,3.713
11.2400,3.643
11.2800,3.654
11.3200,3.634
11.3600,3.645
11.4000,3.614
11.4400,3.554
11.4800,3.709
11.5200,3.569
11.5600,3.519
11.6000,3.495
11.6400,3.649
11.6800,3.480
11.7200,3.471
11.7600,3.585
11.8000,3.545
11.8400,3.583
11.8800,3.424
11.9200,3.484
11.9600,3.512
12.0000,3.485
12.0400,3.544
12.0800,3.491
12.1200,3.469
12.1600,3.546
12.2000,3.509
12.2400,3.490
12.2800,3.525
12.3200,3.555
12.3600,3.487
12.4000,3.544
12.4400,3.549
12.4800,3.508
12.5200,3.478
12.5600,3.438
12.6000,3.405
12.6400,3.492
12.6800,3.557
12.7200,3.443
12.7600,3.371
12.8000,3.395
12.8400,3.480
12.8800,3.404
12.9200,3.436
12.9600,3.530
13.0000,3.378
13.0400,3.325
13.0800,3.424
13.1200,3.430
13.1600,3.444
13.2000,3.474
13.2400,3.371
13.2800,3.338
13.3200,3.243
13.3600,3.366
13.4000,3.301
13.4400,3.469
13.4800,3.293
13.5200,3.285
13.5600,3.352
13.6000,3.308
13.6400,3.323
13.6800,3.397
13.7200,3.355
13.7600,3.383
13.8000,3.335
13.8400,3.277
13.8800,3.274
13.9200,3.372
13.9600,3.316
14.0000,3.336
14.0400,3.257
14.0800,3.360
14.1200,3.297
14.1600,3.400
14.2000,3.303
14.2400,3.337
14.2800,3.234
14.3200,3.295
14.3600,3.281
14.4000,3.230
14.4400,3.171
14.4800,3.297
14.5200,3.297
14.5600,3.297
14.6000,3.259
14.6400,3.263
14.6800,3.200
14.7200,3.229
14.7600,3.271
14.8000,3.210
14.8400,3.257
14.8800,3.273
14.9200,3.271
14.9600,3.329
15.0000,3.269
15.0400,3.167
15.0800,3.119
15.1200,3.198
15.1600,3.154
15.2000,3.185
15.2400,3.195
15.2800,3.251
15.3200,3.168
15.3600,3.246
15.4000,3.149
15.4400,3.167
15.4800,3.287
15.5200,3.246
15.5600,3.184
15.6000,3.218
15.6400,3.232
15.6800,3.121
15.7200,3.202
15.7600,3.188
15.8000,3.120
15.8400,3.184
15.8800,3.128
15.9200,3.150
15.9600,3.120
16.0000,3.090
16.0400,3.140
16.0800,3.021
16.1200,3.151
16.1600,3.180
16.2000,3.107
16.2400,3.054
16.2800,3.175
16.3200,3.100
16.3600,3.118
16.4000,3.049
16.4400,3.031
16.4800,3.091
16.5200,3.110
16.5600,3.039
16.6000,3.000
16.6400,3.014
16.6800,3.057
16.7200,2.985
16.7600,2.992
16.8000,3.120
16.8400,3.074
16.8800,3.154
16.9200,3.059
16.9600,2.959
17.0000,3.028
17.0400,3.015
17.0800,3.124
17.1200,3.058
17.1600,3.038
17.2000,3.069
17.2400,3.000
17.2800,3.021
17.3200,3.014
17.3600,3.008
17.4000,2.984
17.4400,3.013
17.4800,2.975
17.5200,2.915
17.5600,2.907
17.6000,2.974
17.6400,2.901
17.6800,2.976
17.7200,2.908
17.7600,2.948
17.8000,2.979
17.8400,3.010
17.8800,2.908
17.9200,3.043
17.9600,2.983
18.0000,2.940
18.0400,2.868
18.0800,2.843
18.1200,2.883
18.1600,3.057
18.2000,2.844
18.2400,2.827
18.2800,2.915
18.3200,2.974
18.3600,2.913
18.4000,2.971
18.4400,2.808
18.4800,2.993
18.5200,2.890
18.5600,2.930
18.6000,2.840
18.6400,2.840
18.6800,2.879
18.7200,2.897
18.7600,2.682
18.8000,2.872
18.8400,2.823
18.8800,2.885
18.9200,2.958
18.9600,2.876
19.0000,2.837
19.0400,2.826
19.0800,2.807
19.1200,2.739
19.1600,2.819
19.2000,2.846
19.2400,2.834
19.2800,2.818
19.3200,2.828
19.3600,2.832
19.4000,2.852
19.4400,2.813
19.4800,2.732
19.5200,2.818
19.5600,2.777
19.6000,2.711
19.6400,2.725
19.6800,2.815
19.7200,2.715
19.7600,2.798
19.8000,2.815
19.8400,2.664
19.8800,2.754
19.9200,2.802
19.9600,2.770
20.0000,2.782
20.0400,2.811
20.0800,2.709
20.1200,2.710
20.1600,2.691
20.2000,2.667
20.2400,2.756
20.2800,2.742
20.3200,2.695
20.3600,2.686
20.4000,2.740
20.4400,2.732
20.4800,2.687
20.5200,2.742
20.5600,2.815
20.6000,2.666
20.6400,2.665
20.6800,2.662
20.7200,2.670
20.7600,2.687
20.8000,2.702
20.8400,2.654
20.8800,2.585
20.9200,2.623
20.9600,2.635
21.0000,2.630
21.0400,2.566
21.0800,2.598
21.1200,2.570
21.1600,2.621
21.2000,2.633
21.2400,2.629
21.2800,2.660
21.3200,2.623
21.3600,2.781
21.4000,2.592
21.4400,2.538
21.4800,2.564
21.5200,2.562
21.5600,2.595
21.6000,2.655
21.6400,2.546
21.6800,2.606
21.7200,2.640
21.7600,2.581
21.8000,2.609
21.8400,2.568
21.8800,2.523
21.9200,2.512
21.9600,2.626
22.0000,2.530
22.0400,2.603
22.0800,2.541
22.1200,2.549
22.1600,2.558
22.2000,2.573
22.2400,2.556
22.2800,2.493
22.3200,2.513
22.3600,2.563
22.4000,2.542
22.4400,2.510
22.4800,2.614
22.5200,2.491
22.5600,2.510
22.6000,2.462
22.6400,2.427
22.6800,2.410
22.7200,2.510
22.7600,2.394
22.8000,2.452
22.8400,2.617
22.8800,2.534
22.9200,2.465
22.9600,2.477
23.0000,2.392
23.0400,2.467
23.0800,2.429
23.1200,2.479
23.1600,2.456
23.2000,2.464
23.2400,2.466
23.2800,2.466
23.3200,2.457
23.3600,2.541
23.4000,2.331
23.4400,2.359
23.4800,2.392
23.5200,2.411
23.5600,2.430
23.6000,2.425
23.6400,2.395
23.6800,2.363
23.7200,2.407
23.7600,2.396
23.8000,2.332
23.8400,2.375
23.8800,2.403
23.9200,2.451
23.9600,2.387
24.0000,2.343
24.0400,2.287
24.0800,2.428
24.1200,2.314
24.1600,2.350
24.2000,2.393
24.2400,2.333
24.2800,2.397
24.3200,2.371
24.3600,2.350
24.4000,2.345
24.4400,2.412
24.4800,2.341
24.5200,2.224
24.5600,2.252
24.6000,2.293
24.6400,2.331
24.6800,2.349
24.7200,2.343
24.7600,2.298
24.8000,2.289
24.8400,2.326
24.8800,2.255
24.9200,2.326
24.9600,2.208
25.0000,2.237
25.0400,2.191
25.0800,2.319
25.1200,2.300
25.1600,2.258
25.2000,2.293
25.2400,2.223
25.2800,2.298
25.3200,2.263
25.3600,2.228
25.4000,2.211
25.4400,2.241
25.4800,2.289
25.5200,2.251
25.5600,2.199
25.6000,2.235
25.6400,2.256
25.6800,2.250
25.7200,2.205
25.7600,2.236
25.8000,2.188
25.8400,2.162
25.8800,2.227
25.9200,2.247
25.9600,2.117
26.0000,2.119
26.0400,2.132
26.0800,2.208
26.1200,2.206
26.1600,2.164
26.2000,2.237
26.2400,2.180
26.2800,2.234
26.3200,2.143
26.3600,2.221
26.4000,2.170
26.4400,2.120
26.4800,2.165
26.5200,2.182
26.5600,2.184
26.6000,2.133
26.6400,2.085
26.6800,2.214
26.7200,2.206
26.7600,2.164
26.8000,2.170
26.8400,2.111
26.8800,2.076
26.9200,2.100
26.9600,2.118
27.0000,2.007
27.0400,2.133
27.0800,2.089
27.1200,2.053
27.1600,2.094
27.2000,2.106
27.2400,2.046
27.2800,2.119
27.3200,2.075
27.3600,2.112
27.4000,2.024
27.4400,2.076
27.4800,2.031
27.5200,2.043
27.5600,2.077
27.6000,1.944
27.6400,2.001
27.6800,2.083
27.7200,2.061
27.7600,2.036
27.8000,2.111
27.8400,2.060
27.8800,1.942
27.9200,2.055
27.9600,2.001
28.0000,2.004
28.0400,1.976
28.0800,2.028
28.1200,2.050
28.1600,2.086
28.2000,2.005
28.2400,2.021
28.2800,2.008
28.3200,2.013
28.3600,1.961
28.4000,1.961
28.4400,1.961
28.4800,1.984
28.5200,1.919
28.5600,1.973
28.6000,1.970
28.6400,1.989
28.6800,1.970
28.7200,1.901
28.7600,1.926
28.8000,1.963
28.8400,1.968
28.8800,1.953
28.9200,1.945
28.9600,1.975
29.0000,1.886
29.0400,1.950
29.0800,1.949
29.1200,1.920
29.1600,1.845
29.2000,1.922
29.2400,1.939
29.2800,1.927
29.3200,1.971
29.3600,1.978
29.4000,1.897
29.4400,1.943
29.4800,1.926
29.5200,1.964
29.5600,1.946
29.6000,1.915
29.6400,1.962
29.6800,1.946
29.7200,1.884
29.7600,1.876
29.8000,1.852
29.8400,1.924
29.8800,1.869
29.9200,1.890
29.9600,1.852
30.0000,1.943
30.0400,1.867
30.0800,1.889
30.1200,1.851
30.1600,1.859
30.2000,1.834
30.2400,1.885
30.2800,1.905
30.3200,1.907
30.3600,1.822
30.4000,1.817
30.4400,1.956
30.4800,1.802
30.5200,1.845
30.5600,1.812
30.6000,1.826
30.6400,1.797
30.6800,1.940
30.7200,1.826
30.7600,1.853
30.8000,1.884
30.8400,1.860
30.8800,1.885
30.9200,1.876
30.9600,1.834
31.0000,1.863
31.0400,1.878
31.0800,1.855
31.1200,1.887
31.1600,1.893
31.2000,1.886
31.2400,1.971
31.2800,2.021
31.3200,2.022
31.3600,1.949
31.4000,2.006
31.4400,2.053
31.4800,1.984
31.5200,2.045
31.5600,2.183
31.6000,2.177
31.6400,2.283
31.6800,2.348
31.7200,2.419
31.7600,2.546
31.8000,2.588
31.8400,2.543
31.8800,2.531
31.9200,2.461
31.9600,2.417
32.0000,2.249
32.0400,2.239
32.0800,2.065
32.1200,2.103
32.1600,2.103
32.2000,2.071
32.2400,2.024
32.2800,1.942
32.3200,1.910
32.3600,1.904
32.4000,1.924
32.4400,1.907
32.4800,1.898
32.5200,1.882
32.5600,1.796
32.6000,1.827
32.6400,1.786
32.6800,1.810
32.7200,1.755
32.7600,1.785
32.8000,1.836
32.8400,1.750
32.8800,1.756
32.9200,1.825
32.9600,1.713
33.0000,1.672
33.0400,1.658
33.0800,1.737
33.1200,1.769
33.1600,1.726
33.2000,1.782
33.2400,1.710
33.2800,1.700
33.3200,1.664
33.3600,1.701
33.4000,1.713
33.4400,1.771
33.4800,1.687
33.5200,1.685
33.5600,1.740
33.6000,1.725
33.6400,1.716
33.6800,1.811
33.7200,1.722
33.7600,1.725
33.8000,1.748
33.8400,1.750
33.8800,1.755
33.9200,1.803
33.9600,1.819
34.0000,1.857
34.0400,1.929
34.0800,1.818
34.1200,1.906
34.1600,1.949
34.2000,1.963
34.2400,2.009
34.2800,2.024
34.3200,2.064
34.3600,2.010
34.4000,2.060
34.4400,1.952
34.4800,1.946
34.5200,1.980
34.5600,2.084
34.6000,1.930
34.6400,1.903
34.6800,1.877
34.7200,1.820
34.7600,1.872
34.8000,1.843
34.8400,1.813
34.8800,1.805
34.9200,1.741
34.9600,1.780
35.0000,1.784
35.0400,1.708
35.0800,1.750
35.1200,1.673
35.1600,1.779
35.2000,1.661
35.2400,1.700
35.2800,1.594
35.3200,1.726
35.3600,1.720
35.4000,1.696
35.4400,1.716
35.4800,1.736
35.5200,1.795
35.5600,1.819
35.6000,1.716
35.6400,1.776
35.6800,1.896
35.7200,1.877
35.7600,1.919
35.8000,1.971
35.8400,1.981
35.8800,2.035
35.9200,2.057
35.9600,2.139
36.0000,2.186
36.0400,2.231
36.0800,2.255
36.1200,2.377
36.1600,2.536
36.2000,2.509
36.2400,2.595
36.2800,2.514
36.3200,2.578
36.3600,2.509
36.4000,2.519
36.4400,2.388
36.4800,2.345
36.5200,2.214
36.5600,2.195
36.6000,2.083
36.6400,2.046
36.6800,2.011
36.7200,1.871
36.7600,1.883
36.8000,1.881
36.8400,1.831
36.8800,1.858
36.9200,1.815
36.9600,1.813
37.0000,1.719
37.0400,1.706
37.0800,1.693
37.1200,1.626
37.1600,1.648
37.2000,1.669
37.2400,1.629
37.2800,1.564
37.3200,1.600
37.3600,1.564
37.4000,1.529
37.4400,1.635
37.4800,1.585
37.5200,1.583
37.5600,1.655
37.6000,1.589
37.6400,1.613
37.6800,1.667
37.7200,1.680
37.7600,1.654
37.8000,1.706
37.8400,1.722
37.8800,1.852
37.9200,1.888
37.9600,1.920
38.0000,2.154
38.0400,2.253
38.0800,2.554
38.1200,2.691
38.1600,2.686
38.2000,2.723
38.2400,2.429
38.2800,2.319
38.3200,2.307
38.3600,2.095
38.4000,2.031
38.4400,1.899
38.4800,1.922
38.5200,1.841
38.5600,1.802
38.6000,1.765
38.6400,1.702
38.6800,1.661
38.7200,1.695
38.7600,1.622
38.8000,1.564
38.8400,1.534
38.8800,1.565
38.9200,1.563
38.9600,1.480
39.0000,1.574
39.0400,1.540
39.0800,1.515
39.1200,1.532
39.1600,1.447
39.2000,1.422
39.2400,1.460
39.2800,1.493
39.3200,1.499
39.3600,1.447
39.4000,1.469
39.4400,1.485
39.4800,1.391
39.5200,1.389
39.5600,1.439
39.6000,1.426
39.6400,1.437
39.6800,1.410
39.7200,1.486
39.7600,1.429
39.8000,1.510
39.8400,1.409
39.8800,1.463
39.9200,1.518
39.9600,1.407
40.0000,1.438
40.0400,1.508
40.0800,1.452
40.1200,1.425
40.1600,1.461
40.2000,1.469
40.2400,1.485
40.2800,1.481
40.3200,1.435
40.3600,1.427
40.4000,1.411
40.4400,1.396
40.4800,1.434
40.5200,1.383
40.5600,1.489
40.6000,1.476
40.6400,1.428
40.6800,1.450
40.7200,1.450
40.7600,1.480
40.8000,1.466
40.8400,1.492
40.8800,1.442
40.9200,1.509
40.9600,1.435
41.0000,1.480
41.0400,1.462
41.0800,1.441
41.1200,1.523
41.1600,1.514
41.2000,1.526
41.2400,1.451
41.2800,1.469
41.3200,1.501
41.3600,1.451
41.4000,1.443
41.4400,1.435
41.4800,1.457
41.5200,1.432
41.5600,1.375
41.6000,1.388
41.6400,1.354
41.6800,1.379
41.7200,1.287
41.7600,1.333
41.8000,1.340
41.8400,1.357
41.8800,1.334
41.9200,1.320
41.9600,1.319
42.0000,1.359
42.0400,1.250
42.0800,1.243
42.1200,1.272
42.1600,1.252
42.2000,1.314
42.2400,1.177
42.2800,1.241
42.3200,1.248
42.3600,1.212
42.4000,1.230
42.4400,1.218
42.4800,1.144
42.5200,1.156
42.5600,1.187
42.6000,1.208
42.6400,1.209
42.6800,1.195
42.7200,1.153
42.7600,1.149
42.8000,1.132
42.8400,1.069
42.8800,1.169
42.9200,1.196
42.9600,1.132
43.0000,1.074
43.0400,1.073
43.0800,1.147
43.1200,1.219
43.1600,1.202
43.2000,1.086
43.2400,1.143
43.2800,1.160
43.3200,1.159
43.3600,1.126
43.4000,1.114
43.4400,1.129
43.4800,1.139
43.5200,1.147
43.5600,1.150
43.6000,1.141
43.6400,1.121
43.6800,1.150
43.7200,1.104
43.7600,1.124
43.8000,1.095
43.8400,1.148
43.8800,1.146
43.9200,1.170
43.9600,1.103
44.0000,1.171
44.0400,1.162
44.0800,1.169
44.1200,1.161
44.1600,1.208
44.2000,1.292
44.2400,1.197
44.2800,1.295
44.3200,1.255
44.3600,1.261
44.4000,1.304
44.4400,1.200
44.4800,1.193
44.5200,1.117
44.5600,1.162
44.6000,1.163
44.6400,1.148
44.6800,1.141
44.7200,1.098
44.7600,1.099
44.8000,1.020
44.8400,1.065
44.8800,1.050
44.9200,1.097
44.9600,1.040
45.0000,1.030
45.0400,1.026
45.0800,0.997
45.1200,1.066
45.1600,1.058
45.2000,0.977
45.2400,0.965
45.2800,0.997
45.3200,1.018
45.3600,1.022
45.4000,1.021
45.4400,0.982
45.4800,0.956
45.5200,1.002
45.5600,1.004
45.6000,0.963
45.6400,0.985
45.6800,1.043
45.7200,1.027
45.7600,1.016
45.8000,0.999
45.8400,0.974
45.8800,1.037
45.9200,0.952
45.9600,1.018
46.0000,0.950
46.0400,0.930
46.0800,0.951
46.1200,0.920
46.1600,0.896
46.2000,0.995
46.2400,0.947
46.2800,1.015
46.3200,0.969
46.3600,0.947
46.4000,0.958
46.4400,0.989
46.4800,0.967
46.5200,0.980
46.5600,0.961
46.6000,0.986
46.6400,0.966
46.6800,0.972
46.7200,0.944
46.7600,0.959
46.8000,0.946
46.8400,0.975
46.8800,0.976
46.9200,0.956
46.9600,0.938
47.0000,0.937
47.0400,0.976
47.0800,0.935
47.1200,0.992
47.1600,0.953
47.2000,0.978
47.2400,0.990
47.2800,0.975
47.3200,0.997
47.3600,1.072
47.4000,0.965
47.4400,1.036
47.4800,1.016
47.5200,0.989
47.5600,0.977
47.6000,1.032
47.6400,0.993
47.6800,0.965
47.7200,0.964
47.7600,0.968
47.8000,0.956
47.8400,0.961
47.8800,0.937
47.9200,0.948
47.9600,0.945
48.0000,0.926
48.0400,0.952
48.0800,0.921
48.1200,0.881
48.1600,0.919
48.2000,0.962
48.2400,0.886
48.2800,0.933
48.3200,0.907
48.3600,0.892
48.4000,0.856
48.4400,0.973
48.4800,0.915
48.5200,0.851
48.5600,0.874
48.6000,0.839
48.6400,0.848
48.6800,0.831
48.7200,0.885
48.7600,0.862
48.8000,0.855
48.8400,0.860
48.8800,0.855
48.9200,0.859
48.9600,0.892
49.0000,0.915
49.0400,0.848
49.0800,0.819
49.1200,0.843
49.1600,0.873
49.2000,0.805
49.2400,0.834
49.2800,0.841
49.3200,0.788
49.3600,0.834
49.4000,0.824
49.4400,0.833
49.4800,0.802
49.5200,0.833
49.5600,0.892
49.6000,0.854
49.6400,0.840
49.6800,0.777
49.7200,0.788
49.7600,0.748
49.8000,0.789
49.8400,0.750
49.8800,0.778
49.9200,0.827
49.9600,0.812
50.0000,0.818
50.0400,0.792
50.0800,0.821
50.1200,0.812
50.1600,0.876
50.2000,0.807
50.2400,0.758
50.2800,0.832
50.3200,0.721
50.3600,0.780
50.4000,0.769
50.4400,0.799
50.4800,0.786
50.5200,0.777
50.5600,0.833
50.6000,0.774
50.6400,0.771
50.6800,0.812
50.7200,0.799
50.7600,0.796
50.8000,0.826
50.8400,0.779
50.8800,0.764
50.9200,0.778
50.9600,0.754
51.0000,0.773
51.0400,0.740
51.0800,0.804
51.1200,0.797
51.1600,0.849
51.2000,0.831
51.2400,0.763
51.2800,0.783
51.3200,0.775
51.3600,0.783
51.4000,0.733
51.4400,0.750
51.4800,0.713
51.5200,0.754
51.5600,0.712
51.6000,0.773
51.6400,0.729
51.6800,0.779
51.7200,0.765
51.7600,0.763
51.8000,0.739
51.8400,0.749
51.8800,0.763
51.9200,0.734
51.9600,0.785
52.0000,0.718
52.0400,0.744
52.0800,0.747
52.1200,0.743
52.1600,0.702
52.2000,0.736
52.2400,0.735
52.2800,0.728
52.3200,0.761
52.3600,0.719
52.4000,0.735
52.4400,0.711
52.4800,0.726
52.5200,0.746
52.5600,0.711
52.6000,0.717
52.6400,0.763
52.6800,0.758
52.7200,0.704
52.7600,0.730
52.8000,0.719
52.8400,0.743
52.8800,0.715
52.9200,0.697
52.9600,0.754
53.0000,0.750
53.0400,0.763
53.0800,0.728
53.1200,0.700
53.1600,0.730
53.2000,0.741
53.2400,0.764
53.2800,0.722
53.3200,0.682
53.3600,0.759
53.4000,0.754
53.4400,0.743
53.4800,0.785
53.5200,0.724
53.5600,0.728
53.6000,0.685
53.6400,0.723
53.6800,0.688
53.7200,0.764
53.7600,0.709
53.8000,0.734
53.8400,0.714
53.8800,0.712
53.9200,0.748
53.9600,0.696
54.0000,0.674
54.0400,0.690
54.0800,0.739
54.1200,0.675
54.1600,0.730
54.2000,0.730
54.2400,0.719
54.2800,0.737
54.3200,0.713
54.3600,0.701
54.4000,0.700
54.4400,0.686
54.4800,0.665
54.5200,0.685
54.5600,0.670
54.6000,0.727
54.6400,0.697
54.6800,0.648
54.7200,0.658
54.7600,0.683
54.8000,0.677
54.8400,0.697
54.8800,0.693
54.9200,0.706
54.9600,0.641
55.0000,0.708
55.0400,0.679
55.0800,0.714
55.1200,0.680
55.1600,0.670
55.2000,0.647
55.2400,0.733
55.2800,0.660
55.3200,0.671
55.3600,0.650
55.4000,0.711
55.4400,0.691
55.4800,0.684
55.5200,0.670
55.5600,0.730
55.6000,0.737
55.6400,0.667
55.6800,0.691
55.7200,0.674
55.7600,0.663
55.8000,0.697
55.8400,0.685
55.8800,0.704
55.9200,0.728
55.9600,0.728
56.0000,0.718
56.0400,0.708
56.0800,0.705
56.1200,0.734
56.1600,0.746
56.2000,0.784
56.2400,0.754
56.2800,0.776
56.3200,0.781
56.3600,0.783
56.4000,0.775
56.4400,0.838
56.4800,0.786
56.5200,0.860
56.5600,0.865
56.6000,0.901
56.6400,0.903
56.6800,0.927
56.7200,0.894
56.7600,0.906
56.8000,0.937
56.8400,0.836
56.8800,0.911
56.9200,0.853
56.9600,0.834
57.0000,0.846
57.0400,0.778
57.0800,0.771
57.1200,0.774
57.1600,0.696
57.2000,0.748
57.2400,0.708
57.2800,0.715
57.3200,0.728
57.3600,0.709
57.4000,0.655
57.4400,0.661
57.4800,0.701
57.5200,0.664
57.5600,0.666
57.6000,0.646
57.6400,0.665
57.6800,0.677
57.7200,0.694
57.7600,0.665
57.8000,0.653
57.8400,0.704
57.8800,0.643
57.9200,0.660
57.9600,0.665
58.0000,0.638
58.0400,0.611
58.0800,0.642
58.1200,0.615
58.1600,0.657
58.2000,0.653
58.2400,0.616
58.2800,0.632
58.3200,0.631
58.3600,0.644
58.4000,0.629
58.4400,0.635
58.4800,0.689
58.5200,0.630
58.5600,0.592
58.6000,0.592
58.6400,0.594
58.6800,0.657
58.7200,0.634
58.7600,0.592
58.8000,0.586
58.8400,0.660
58.8800,0.628
58.9200,0.635
58.9600,0.572
59.0000,0.579
59.0400,0.633
59.0800,0.641
59.1200,0.583
59.1600,0.622
59.2000,0.626
59.2400,0.642
59.2800,0.594
59.3200,0.666
59.3600,0.593
59.4000,0.622
59.4400,0.576
59.4800,0.616
59.5200,0.603
59.5600,0.609
59.6000,0.604
59.6400,0.628
59.6800,0.600
59.7200,0.601
59.7600,0.584
59.8000,0.565
59.8400,0.623
59.8800,0.620
59.9200,0.572
59.9600,0.569
60.0000,0.586
60.0400,0.598
60.0800,0.614
60.1200,0.597
60.1600,0.576
60.2000,0.566
60.2400,0.633
60.2800,0.567
60.3200,0.605
60.3600,0.569
60.4000,0.559
60.4400,0.585
60.4800,0.629
60.5200,0.587
60.5600,0.587
60.6000,0.563
60.6400,0.589
60.6800,0.630
60.7200,0.581
60.7600,0.586
60.8000,0.582
60.8400,0.574
60.8800,0.587
60.9200,0.556
60.9600,0.593
61.0000,0.578
61.0400,0.593
61.0800,0.566
61.1200,0.562
61.1600,0.603
61.2000,0.534
61.2400,0.580
61.2800,0.574
61.3200,0.554
61.3600,0.568
61.4000,0.581
61.4400,0.604
61.4800,0.588
61.5200,0.601
61.5600,0.638
61.6000,0.601
61.6400,0.650
61.6800,0.639
61.7200,0.633
61.7600,0.622
61.8000,0.590
61.8400,0.558
61.8800,0.618
61.9200,0.608
61.9600,0.616
62.0000,0.563
62.0400,0.580
62.0800,0.616
62.1200,0.619
62.1600,0.559
62.2000,0.650
62.2400,0.599
62.2800,0.613
62.3200,0.637
62.3600,0.642
62.4000,0.615
62.4400,0.615
62.4800,0.687
62.5200,0.649
62.5600,0.684
62.6000,0.678
62.6400,0.679
62.6800,0.657
62.7200,0.709
62.7600,0.684
62.8000,0.657
62.8400,0.688
62.8800,0.667
62.9200,0.625
62.9600,0.650
63.0000,0.715
63.0400,0.679
63.0800,0.680
63.1200,0.709
63.1600,0.655
63.2000,0.662
63.2400,0.645
63.2800,0.631
63.3200,0.646
63.3600,0.646
63.4000,0.671
63.4400,0.676
63.4800,0.604
63.5200,0.606
63.5600,0.657
63.6000,0.648
63.6400,0.595
63.6800,0.628
63.7200,0.600
63.7600,0.613
63.8000,0.616
63.8400,0.615
63.8800,0.626
63.9200,0.618
63.9600,0.593
64.0000,0.636
64.0400,0.635
64.0800,0.581
64.1200,0.629
64.1600,0.643
64.2000,0.607
64.2400,0.671
64.2800,0.659
64.3200,0.660
64.3600,0.723
64.4000,0.682
64.4400,0.673
64.4800,0.670
64.5200,0.755
64.5600,0.799
64.6000,0.724
64.6400,0.711
64.6800,0.696
64.7200,0.662
64.7600,0.676
64.8000,0.664
64.8400,0.688
64.8800,0.725
64.9200,0.689
64.9600,0.648
65.0000,0.689
65.0400,0.701
65.0800,0.677
65.1200,0.728
65.1600,0.698
65.2000,0.707
65.2400,0.719
65.2800,0.662
65.3200,0.706
65.3600,0.706
65.4000,0.707
65.4400,0.723
65.4800,0.760
65.5200,0.714
65.5600,0.687
65.6000,0.752
65.6400,0.766
65.6800,0.717
65.7200,0.734
65.7600,0.733
65.8000,0.793
65.8400,0.798
65.8800,0.799
65.9200,0.808
65.9600,0.797
66.0000,0.791
66.0400,0.797
66.0800,0.792
66.1200,0.776
66.1600,0.823
66.2000,0.857
66.2400,0.816
66.2800,0.842
66.3200,0.852
66.3600,0.829
66.4000,0.885
66.4400,0.936
66.4800,0.889
66.5200,0.885
66.5600,0.917
66.6000,0.917
66.6400,0.941
66.6800,0.963
66.7200,0.954
66.7600,1.014
66.8000,1.020
66.8400,1.041
66.8800,0.978
66.9200,1.047
66.9600,1.037
67.0000,1.099
67.0400,1.064
67.0800,1.115
67.1200,1.150
67.1600,1.150
67.2000,1.183
67.2400,1.203
67.2800,1.160
67.3200,1.264
67.3600,1.264
67.4000,1.298
67.4400,1.344
67.4800,1.356
67.5200,1.376
67.5600,1.357
67.6000,1.470
67.6400,1.399
67.6800,1.524
67.7200,1.559
67.7600,1.662
67.8000,1.621
67.8400,1.727
67.8800,1.797
67.9200,1.790
67.9600,1.754
68.0000,1.936
68.0400,1.927
68.0800,1.991
68.1200,2.063
68.1600,2.043
68.2000,2.141
68.2400,2.157
68.2800,2.241
68.3200,2.360
68.3600,2.397
68.4000,2.554
68.4400,2.682
68.4800,2.774
68.5200,2.767
68.5600,2.952
68.6000,3.158
68.6400,3.545
68.6800,4.212
68.7200,5.273
68.7600,6.843
68.8000,8.013
68.8400,8.304
68.8800,8.322
68.9200,9.218
68.9600,12.128
69.0000,18.823
69.0400,39.108
69.0800,171.694
69.1200,539.286
69.1600,505.952
69.2000,156.057
69.2400,54.458
69.2800,114.366
69.3200,285.189
69.3600,251.071
69.4000,77.298
69.4400,22.462
69.4800,13.096
69.5200,9.432
69.5600,7.365
69.6000,6.244
69.6400,5.376
69.6800,4.689
69.7200,4.316
69.7600,4.054
69.8000,3.698
69.8400,3.589
69.8800,3.166
69.9200,3.082
69.9600,2.789
70.0000,2.746
70.0400,2.640
70.0800,2.552
70.1200,2.454
70.1600,2.259
70.2000,2.281
70.2400,2.195
70.2800,2.119
70.3200,2.050
70.3600,1.911
70.4000,1.960
70.4400,1.871
70.4800,1.782
70.5200,1.761
70.5600,1.668
70.6000,1.628
70.6400,1.601
70.6800,1.614
70.7200,1.528
70.7600,1.410
70.8000,1.408
70.8400,1.367
70.8800,1.328
70.9200,1.325
70.9600,1.290
71.0000,1.252
71.0400,1.187
71.0800,1.254
71.1200,1.213
71.1600,1.198
71.2000,1.104
71.2400,1.153
71.2800,1.064
71.3200,1.067
71.3600,1.041
71.4000,0.987
71.4400,0.995
71.4800,0.947
71.5200,0.981
71.5600,0.937
71.6000,0.944
71.6400,0.883
71.6800,0.914
71.7200,0.871
71.7600,0.841
71.8000,0.800
71.8400,0.769
71.8800,0.792
71.9200,0.796
71.9600,0.822
72.0000,0.744
72.0400,0.760
72.0800,0.753
72.1200,0.758
72.1600,0.708
72.2000,0.681
72.2400,0.714
72.2800,0.681
72.3200,0.723
72.3600,0.635
72.4000,0.677
72.4400,0.652
72.4800,0.685
72.5200,0.654
72.5600,0.613
72.6000,0.594
72.6400,0.611
72.6800,0.606
72.7200,0.642
72.7600,0.604
72.8000,0.576
72.8400,0.594
72.8800,0.553
72.9200,0.596
72.9600,0.565
73.0000,0.570
73.0400,0.585
73.0800,0.595
73.1200,0.563
73.1600,0.559
73.2000,0.523
73.2400,0.508
73.2800,0.538
73.3200,0.493
73.3600,0.520
73.4000,0.481
73.4400,0.513
73.4800,0.487
73.5200,0.509
73.5600,0.527
73.6000,0.500
73.6400,0.499
73.6800,0.507
73.7200,0.502
73.7600,0.483
73.8000,0.460
73.8400,0.474
73.8800,0.448
73.9200,0.486
73.9600,0.454
74.0000,0.461
74.0400,0.459
74.0800,0.418
74.1200,0.439
74.1600,0.427
74.2000,0.418
74.2400,0.447
74.2800,0.472
74.3200,0.417
74.3600,0.422
74.4000,0.469
74.4400,0.445
74.4800,0.427
74.5200,0.414
74.5600,0.455
74.6000,0.414
74.6400,0.415
74.6800,0.428
74.7200,0.427
74.7600,0.406
74.8000,0.386
74.8400,0.410
74.8800,0.386
74.9200,0.434
74.9600,0.389
75.0000,0.421
75.0400,0.422
75.0800,0.414
75.1200,0.416
75.1600,0.386
75.2000,0.403
75.2400,0.415
75.2800,0.394
75.3200,0.351
75.3600,0.413
75.4000,0.388
75.4400,0.389
75.4800,0.379
75.5200,0.386
75.5600,0.379
75.6000,0.396
75.6400,0.363
75.6800,0.375
75.7200,0.375
75.7600,0.365
75.8000,0.397
75.8400,0.365
75.8800,0.363
75.9200,0.370
75.9600,0.387
76.0000,0.348
76.0400,0.386
76.0800,0.368
76.1200,0.380
76.1600,0.380
76.2000,0.420
76.2400,0.411
76.2800,0.400
76.3200,0.353
76.3600,0.401
76.4000,0.408
76.4400,0.376
76.4800,0.415
76.5200,0.390
76.5600,0.394
76.6000,0.362
76.6400,0.402
76.6800,0.348
76.7200,0.350
76.7600,0.357
76.8000,0.402
76.8400,0.379
76.8800,0.349
76.9200,0.405
76.9600,0.377
77.0000,0.384
77.0400,0.384
77.0800,0.389
77.1200,0.374
77.1600,0.406
77.2000,0.371
77.2400,0.410
77.2800,0.380
77.3200,0.399
77.3600,0.450
77.4000,0.447
77.4400,0.456
77.4800,0.432
77.5200,0.416
77.5600,0.419
77.6000,0.409
77.6400,0.416
77.6800,0.400
77.7200,0.402
77.7600,0.378
77.8000,0.360
77.8400,0.364
77.8800,0.365
77.9200,0.371
77.9600,0.385
78.0000,0.367
78.0400,0.371
78.0800,0.381
78.1200,0.382
78.1600,0.378
78.2000,0.388
78.2400,0.342
78.2800,0.386
78.3200,0.378
78.3600,0.329
78.4000,0.368
78.4400,0.356
78.4800,0.345
78.5200,0.334
78.5600,0.366
78.6000,0.336
78.6400,0.334
78.6800,0.319
78.7200,0.339
78.7600,0.355
78.8000,0.362
78.8400,0.368
78.8800,0.338
78.9200,0.357
78.9600,0.340
79.0000,0.342
79.0400,0.338
79.0800,0.338
79.1200,0.311
79.1600,0.321
79.2000,0.349
79.2400,0.369
79.2800,0.327
79.3200,0.302
79.3600,0.328
79.4000,0.345
79.4400,0.318
79.4800,0.325
79.5200,0.347
79.5600,0.326
79.6000,0.320
79.6400,0.281
79.6800,0.315
79.7200,0.319
79.7600,0.318
79.8000,0.336
79.8400,0.326
79.8800,0.350
79.9200,0.314
79.9600,0.336
80.0000,0.295
