theta,intensity
5.0000,7.477
5.0400,7.322
5.0800,7.297
5.1200,7.190
5.1600,7.171
5.2000,7.016
5.2400,6.895
5.2800,6.759
5.3200,6.637
5.3600,6.699
5.4000,6.435
5.4400,6.404
5.4800,6.255
5.5200,6.185
5.5600,6.231
5.6000,5.906
5.6400,5.969
5.6800,5.783
5.7200,5.706
5.7600,5.618
5.8000,5.613
5.8400,5.518
5.8800,5.494
5.9200,5.350
5.9600,5.309
6.0000,5.362
6.0400,5.144
6.0800,5.128
6.1200,5.018
6.1600,4.910
6.2000,4.835
6.2400,4.882
6.2800,4.867
6.3200,4.618
6.3600,4.684
6.4000,4.556
6.4400,4.650
6.4800,4.511
6.5200,4.433
6.5600,4.347
6.6000,4.443
6.6400,4.402
6.6800,4.349
6.7200,4.330
6.7600,4.446
6.8000,4.237
6.8400,4.382
6.8800,4.307
6.9200,4.485
6.9600,4.368
7.0000,4.362
7.0400,4.204
7.0800,4.263
7.1200,4.176
7.1600,4.346
7.2000,4.224
7.2400,4.185
7.2800,4.335
7.3200,4.219
7.3600,4.278
7.4000,4.162
7.4400,4.204
7.4800,4.225
7.5200,4.269
7.5600,4.260
7.6000,4.155
7.6400,4.296
7.6800,4.086
7.7200,4.216
7.7600,4.185
7.8000,4.162
7.8400,4.120
7.8800,4.101
7.9200,4.162
7.9600,4.119
8.0000,4.122
8.0400,4.086
8.0800,4.135
8.1200,4.029
8.1600,4.118
8.2000,4.084
8.2400,4.058
8.2800,4.065
8.3200,4.057
8.3600,4.132
8.4000,4.029
8.4400,4.051
8.4800,4.060
8.5200,3.983
8.5600,4.110
8.6000,4.041
8.6400,4.012
8.6800,4.000
8.7200,3.952
8.7600,3.991
8.8000,4.135
8.8400,4.156
8.8800,3.940
8.9200,4.076
8.9600,4.059
9.0000,3.997
9.0400,3.954
9.0800,4.011
9.1200,3.982
9.1600,3.926
9.2000,4.042
9.2400,3.961
9.2800,3.923
9.3200,3.959
9.3600,3.979
9.4000,4.101
9.4400,3.915
9.4800,3.914
9.5200,3.884
9.5600,3.917
9.6000,3.898
9.6400,3.927
9.6800,3.996
9.7200,3.849
9.7600,3.915
9.8000,3.819
9.8400,3.822
9.8800,3.754
9.9200,3.857
9.9600,3.870
10.0000,3.903
10.0400,3.880
10.0800,3.886
10.1200,3.848
10.1600,3.880
10.2000,3.806
10.2400,3.702
10.2800,3.843
10.3200,3.880
10.3600,3.874
10.4000,3.863
10.4400,3.800
10.4800,3.824
10.5200,3.773
10.5600,3.766
10.6000,3.830
10.6400,3.801
10.6800,3.729
10.7200,3.731
10.7600,3.761
10.8000,3.737
10.8400,3.704
10.8800,3.854
10.9200,3.721
10.9600,3.732
11.0000,3.754
11.0400,3.790
11.0800,3.712
11.1200,3.740
11.1600,3.625
11.2000,3.630
11.2400,3.826
11.2800,3.779
11.3200,3.636
11.3600,3.708
11.4000,3.578
11.4400,3.578
11.4800,3.593
11.5200,3.599
11.5600,3.676
11.6000,3.746
11.6400,3.687
11.6800,3.576
11.7200,3.667
11.7600,3.710
11.8000,3.579
11.8400,3.563
11.8800,3.594
11.9200,3.614
11.9600,3.665
12.0000,3.665
12.0400,3.709
12.0800,3.601
12.1200,3.625
12.1600,3.524
12.2000,3.558
12.2400,3.552
12.2800,3.667
12.3200,3.611
12.3600,3.666
12.4000,3.558
12.4400,3.574
12.4800,3.615
12.5200,3.606
12.5600,3.574
12.6000,3.593
12.6400,3.539
12.6800,3.461
12.7200,3.464
12.7600,3.429
12.8000,3.577
12.8400,3.568
12.8800,3.512
12.9200,3.396
12.9600,3.351
13.0000,3.543
13.0400,3.586
13.0800,3.531
13.1200,3.416
13.1600,3.454
13.2000,3.530
13.2400,3.626
13.2800,3.565
13.3200,3.510
13.3600,3.559
13.4000,3.637
13.4400,3.481
13.4800,3.505
13.5200,3.381
13.5600,3.357
13.6000,3.416
13.6400,3.501
13.6800,3.513
13.7200,3.438
13.7600,3.468
13.8000,3.479
13.8400,3.421
13.8800,3.512
13.9200,3.363
13.9600,3.538
14.0000,3.391
14.0400,3.506
14.0800,3.374
14.1200,3.360
14.1600,3.536
14.2000,3.365
14.2400,3.410
14.2800,3.431
14.3200,3.386
14.3600,3.400
14.4000,3.425
14.4400,3.335
14.4800,3.382
14.5200,3.421
14.5600,3.386
14.6000,3.376
14.6400,3.309
14.6800,3.328
14.7200,3.319
14.7600,3.375
14.8000,3.315
14.8400,3.448
14.8800,3.302
14.9200,3.257
14.9600,3.306
15.0000,3.360
15.0400,3.296
15.0800,3.343
15.1200,3.292
15.1600,3.243
15.2000,3.268
15.2400,3.276
15.2800,3.287
15.3200,3.331
15.3600,3.290
15.4000,3.271
15.4400,3.282
15.4800,3.375
15.5200,3.329
15.5600,3.255
15.6000,3.209
15.6400,3.267
15.6800,3.234
15.7200,3.279
15.7600,3.331
15.8000,3.211
15.8400,3.248
15.8800,3.320
15.9200,3.283
15.9600,3.326
16.0000,3.208
16.0400,3.317
16.0800,3.289
16.1200,3.317
16.1600,3.233
16.2000,3.310
16.2400,3.254
16.2800,3.266
16.3200,3.186
16.3600,3.157
16.4000,3.230
16.4400,3.209
16.4800,3.225
16.5200,3.230
16.5600,3.152
16.6000,3.033
16.6400,3.283
16.6800,3.206
16.7200,3.183
16.7600,3.149
16.8000,3.197
16.8400,3.208
16.8800,3.135
16.9200,3.117
16.9600,3.145
17.0000,3.197
17.0400,3.123
17.0800,3.103
17.1200,3.131
17.1600,3.109
17.2000,3.128
17.2400,3.151
17.2800,3.193
17.3200,3.165
17.3600,3.186
17.4000,3.204
17.4400,3.049
17.4800,3.067
17.5200,3.121
17.5600,3.132
17.6000,3.220
17.6400,3.128
17.6800,3.078
17.7200,3.106
17.7600,3.051
17.8000,3.106
17.8400,3.166
17.8800,3.087
17.9200,3.122
17.9600,3.193
18.0000,2.991
18.0400,3.094
18.0800,3.061
18.1200,3.125
18.1600,2.989
18.2000,3.153
18.2400,3.115
18.2800,3.093
18.3200,3.135
18.3600,3.062
18.4000,3.069
18.4400,3.026
18.4800,3.146
18.5200,3.101
18.5600,3.058
18.6000,2.996
18.6400,2.964
18.6800,3.039
18.7200,3.101
18.7600,3.024
18.8000,2.969
18.8400,2.949
18.8800,3.048
18.9200,3.071
18.9600,3.052
19.0000,3.067
19.0400,3.014
19.0800,3.027
19.1200,2.974
19.1600,3.005
19.2000,3.001
19.2400,3.059
19.2800,2.941
19.3200,2.995
19.3600,2.930
19.4000,2.945
19.4400,3.042
19.4800,2.983
19.5200,2.961
19.5600,3.011
19.6000,3.053
19.6400,2.965
19.6800,3.014
19.7200,3.042
19.7600,2.949
19.8000,3.003
19.8400,3.033
19.8800,2.935
19.9200,2.974
19.9600,2.994
20.0000,2.882
20.0400,3.006
20.0800,2.958
20.1200,2.995
20.1600,2.817
20.2000,2.921
20.2400,2.978
20.2800,2.950
20.3200,2.958
20.3600,2.981
20.4000,3.013
20.4400,2.946
20.4800,3.019
20.5200,2.877
20.5600,2.893
20.6000,2.932
20.6400,2.912
20.6800,2.862
20.7200,2.915
20.7600,2.913
20.8000,2.891
20.8400,2.867
20.8800,2.936
20.9200,2.971
20.9600,2.957
21.0000,2.830
21.0400,2.807
21.0800,2.856
21.1200,2.881
21.1600,2.909
21.2000,2.847
21.2400,2.806
21.2800,2.876
21.3200,2.810
21.3600,2.971
21.4000,2.851
21.4400,2.948
21.4800,2.787
21.5200,2.921
21.5600,2.833
21.6000,2.801
21.6400,2.851
21.6800,2.755
21.7200,2.901
21.7600,2.839
21.8000,2.784
21.8400,2.775
21.8800,2.946
21.9200,2.873
21.9600,2.847
22.0000,2.802
22.0400,2.915
22.0800,2.863
22.1200,2.862
22.1600,2.900
22.2000,2.762
22.2400,2.783
22.2800,2.855
22.3200,2.740
22.3600,2.816
22.4000,2.841
22.4400,2.799
22.4800,2.802
22.5200,2.843
22.5600,2.845
22.6000,2.812
22.6400,2.775
22.6800,2.860
22.7200,2.816
22.7600,2.886
22.8000,2.814
22.8400,2.735
22.8800,2.727
22.9200,2.819
22.9600,2.852
23.0000,2.840
23.0400,2.763
23.0800,2.774
23.1200,2.773
23.1600,2.741
23.2000,2.789
23.2400,2.767
23.2800,2.785
23.3200,2.791
23.3600,2.764
23.4000,2.795
23.4400,2.745
23.4800,2.723
23.5200,2.668
23.5600,2.742
23.6000,2.747
23.6400,2.763
23.6800,2.745
23.7200,2.718
23.7600,2.660
23.8000,2.735
23.8400,2.812
23.8800,2.754
23.9200,2.750
23.9600,2.724
24.0000,2.734
24.0400,2.769
24.0800,2.809
24.1200,2.711
24.1600,2.795
24.2000,2.855
24.2400,2.739
24.2800,2.717
24.3200,2.726
24.3600,2.725
24.4000,2.679
24.4400,2.774
24.4800,2.710
24.5200,2.715
24.5600,2.813
24.6000,2.664
24.6400,2.689
24.6800,2.768
24.7200,2.656
24.7600,2.768
24.8000,2.661
24.8400,2.635
24.8800,2.618
24.9200,2.708
24.9600,2.720
25.0000,2.631
25.0400,2.698
25.0800,2.686
25.1200,2.728
25.1600,2.634
25.2000,2.649
25.2400,2.602
25.2800,2.685
25.3200,2.626
25.3600,2.571
25.4000,2.664
25.4400,2.707
25.4800,2.671
25.5200,2.696
25.5600,2.637
25.6000,2.723
25.6400,2.697
25.6800,2.576
25.7200,2.630
25.7600,2.640
25.8000,2.694
25.8400,2.655
25.8800,2.679
25.9200,2.664
25.9600,2.548
26.0000,2.656
26.0400,2.692
26.0800,2.690
26.1200,2.686
26.1600,2.662
26.2000,2.605
26.2400,2.590
26.2800,2.624
26.3200,2.653
26.3600,2.654
26.4000,2.656
26.4400,2.652
26.4800,2.596
26.5200,2.681
26.5600,2.658
26.6000,2.647
26.6400,2.623
26.6800,2.594
26.7200,2.648
26.7600,2.689
26.8000,2.628
26.8400,2.558
26.8800,2.628
26.9200,2.606
26.9600,2.698
27.0000,2.600
27.0400,2.660
27.0800,2.607
27.1200,2.612
27.1600,2.528
27.2000,2.578
27.2400,2.556
27.2800,2.529
27.3200,2.663
27.3600,2.584
27.4000,2.617
27.4400,2.516
27.4800,2.642
27.5200,2.678
27.5600,2.639
27.6000,2.661
27.6400,2.610
27.6800,2.623
27.7200,2.528
27.7600,2.593
27.8000,2.588
27.8400,2.639
27.8800,2.532
27.9200,2.587
27.9600,2.575
28.0000,2.626
28.0400,2.566
28.0800,2.624
28.1200,2.569
28.1600,2.516
28.2000,2.545
28.2400,2.514
28.2800,2.509
28.3200,2.497
28.3600,2.590
28.4000,2.623
28.4400,2.529
28.4800,2.493
28.5200,2.612
28.5600,2.491
28.6000,2.554
28.6400,2.557
28.6800,2.595
28.7200,2.593
28.7600,2.508
28.8000,2.455
28.8400,2.513
28.8800,2.476
28.9200,2.520
28.9600,2.432
29.0000,2.503
29.0400,2.548
29.0800,2.580
29.1200,2.549
29.1600,2.578
29.2000,2.569
29.2400,2.561
29.2800,2.468
29.3200,2.552
29.3600,2.498
29.4000,2.488
29.4400,2.433
29.4800,2.533
29.5200,2.494
29.5600,2.502
29.6000,2.546
29.6400,2.469
29.6800,2.462
29.7200,2.479
29.7600,2.452
29.8000,2.510
29.8400,2.480
29.8800,2.434
29.9200,2.499
29.9600,2.547
30.0000,2.555
30.0400,2.525
30.0800,2.385
30.1200,2.507
30.1600,2.543
30.2000,2.449
30.2400,2.514
30.2800,2.462
30.3200,2.489
30.3600,2.430
30.4000,2.441
30.4400,2.428
30.4800,2.448
30.5200,2.521
30.5600,2.467
30.6000,2.423
30.6400,2.366
30.6800,2.357
30.7200,2.434
30.7600,2.432
30.8000,2.417
30.8400,2.438
30.8800,2.407
30.9200,2.406
30.9600,2.384
31.0000,2.369
31.0400,2.536
31.0800,2.343
31.1200,2.410
31.1600,2.410
31.2000,2.415
31.2400,2.454
31.2800,2.384
31.3200,2.357
31.3600,2.387
31.4000,2.381
31.4400,2.410
31.4800,2.388
31.5200,2.299
31.5600,2.473
31.6000,2.429
31.6400,2.343
31.6800,2.464
31.7200,2.353
31.7600,2.437
31.8000,2.435
31.8400,2.373
31.8800,2.403
31.9200,2.371
31.9600,2.379
32.0000,2.436
32.0400,2.359
32.0800,2.398
32.1200,2.368
32.1600,2.473
32.2000,2.371
32.2400,2.408
32.2800,2.431
32.3200,2.380
32.3600,2.342
32.4000,2.300
32.4400,2.371
32.4800,2.415
32.5200,2.370
32.5600,2.319
32.6000,2.392
32.6400,2.315
32.6800,2.427
32.7200,2.224
32.7600,2.314
32.8000,2.314
32.8400,2.339
32.8800,2.404
32.9200,2.269
32.9600,2.475
33.0000,2.399
33.0400,2.414
33.0800,2.468
33.1200,2.611
33.1600,2.557
33.2000,2.473
33.2400,2.318
33.2800,2.306
33.3200,2.273
33.3600,2.309
33.4000,2.348
33.4400,2.324
33.4800,2.290
33.5200,2.269
33.5600,2.344
33.6000,2.313
33.6400,2.306
33.6800,2.275
33.7200,2.404
33.7600,2.403
33.8000,2.294
33.8400,2.314
33.8800,2.286
33.9200,2.424
33.9600,2.239
34.0000,2.255
34.0400,2.348
34.0800,2.375
34.1200,2.327
34.1600,2.316
34.2000,2.272
34.2400,2.390
34.2800,2.354
34.3200,2.339
34.3600,2.335
34.4000,2.328
34.4400,2.363
34.4800,2.338
34.5200,2.269
34.5600,2.324
34.6000,2.286
34.6400,2.279
34.6800,2.298
34.7200,2.265
34.7600,2.277
34.8000,2.275
34.8400,2.254
34.8800,2.336
34.9200,2.295
34.9600,2.293
35.0000,2.241
35.0400,2.243
35.0800,2.271
35.1200,2.183
35.1600,2.251
35.2000,2.304
35.2400,2.306
35.2800,2.267
35.3200,2.257
35.3600,2.277
35.4000,2.326
35.4400,2.266
35.4800,2.292
35.5200,2.337
35.5600,2.412
35.6000,2.442
35.6400,2.321
35.6800,2.273
35.7200,2.289
35.7600,2.266
35.8000,2.212
35.8400,2.210
35.8800,2.228
35.9200,2.207
35.9600,2.175
36.0000,2.230
36.0400,2.165
36.0800,2.180
36.1200,2.193
36.1600,2.230
36.2000,2.192
36.2400,2.181
36.2800,2.186
36.3200,2.182
36.3600,2.179
36.4000,2.217
36.4400,2.150
36.4800,2.103
36.5200,2.209
36.5600,2.128
36.6000,2.111
36.6400,2.057
36.6800,2.105
36.7200,2.092
36.7600,2.096
36.8000,2.106
36.8400,1.999
36.8800,2.105
36.9200,2.068
36.9600,2.110
37.0000,2.118
37.0400,2.065
37.0800,2.018
37.1200,2.024
37.1600,2.121
37.2000,2.161
37.2400,2.041
37.2800,2.036
37.3200,2.017
37.3600,1.990
37.4000,2.000
37.4400,2.030
37.4800,2.000
37.5200,2.118
37.5600,2.032
37.6000,2.049
37.6400,2.021
37.6800,2.142
37.7200,2.077
37.7600,2.070
37.8000,2.158
37.8400,2.124
37.8800,2.086
37.9200,2.134
37.9600,2.218
38.0000,2.102
38.0400,2.221
38.0800,2.170
38.1200,2.239
38.1600,2.106
38.2000,2.173
38.2400,2.125
38.2800,2.066
38.3200,2.057
38.3600,2.037
38.4000,2.016
38.4400,1.985
38.4800,1.917
38.5200,1.943
38.5600,1.860
38.6000,1.841
38.6400,1.888
38.6800,1.866
38.7200,1.807
38.7600,1.864
38.8000,1.770
38.8400,1.805
38.8800,1.867
38.9200,1.902
38.9600,1.841
39.0000,1.807
39.0400,1.829
39.0800,1.726
39.1200,1.780
39.1600,1.708
39.2000,1.678
39.2400,1.708
39.2800,1.682
39.3200,1.690
39.3600,1.739
39.4000,1.677
39.4400,1.667
39.4800,1.656
39.5200,1.597
39.5600,1.589
39.6000,1.577
39.6400,1.594
39.6800,1.587
39.7200,1.575
39.7600,1.648
39.8000,1.557
39.8400,1.547
39.8800,1.552
39.9200,1.515
39.9600,1.574
40.0000,1.565
40.0400,1.578
40.0800,1.619
40.1200,1.656
40.1600,1.614
40.2000,1.589
40.2400,1.620
40.2800,1.578
40.3200,1.524
40.3600,1.519
40.4000,1.497
40.4400,1.557
40.4800,1.535
40.5200,1.519
40.5600,1.462
40.6000,1.512
40.6400,1.513
40.6800,1.507
40.7200,1.569
40.7600,1.740
40.8000,1.558
40.8400,1.594
40.8800,1.589
40.9200,1.564
40.9600,1.454
41.0000,1.482
41.0400,1.511
41.0800,1.458
41.1200,1.511
41.1600,1.504
41.2000,1.415
41.2400,1.513
41.2800,1.485
41.3200,1.421
41.3600,1.457
41.4000,1.451
41.4400,1.428
41.4800,1.473
41.5200,1.448
41.5600,1.460
41.6000,1.435
41.6400,1.396
41.6800,1.391
41.7200,1.371
41.7600,1.384
41.8000,1.404
41.8400,1.446
41.8800,1.380
41.9200,1.340
41.9600,1.318
42.0000,1.408
42.0400,1.369
42.0800,1.367
42.1200,1.311
42.1600,1.390
42.2000,1.403
42.2400,1.411
42.2800,1.391
42.3200,1.370
42.3600,1.390
42.4000,1.377
42.4400,1.385
42.4800,1.368
42.5200,1.325
42.5600,1.363
42.6000,1.320
42.6400,1.335
42.6800,1.281
42.7200,1.354
42.7600,1.331
42.8000,1.344
42.8400,1.378
42.8800,1.334
42.9200,1.305
42.9600,1.343
43.0000,1.355
43.0400,1.331
43.0800,1.324
43.1200,1.312
43.1600,1.356
43.2000,1.283
43.2400,1.285
43.2800,1.275
43.3200,1.295
43.3600,1.364
43.4000,1.268
43.4400,1.318
43.4800,1.355
43.5200,1.251
43.5600,1.274
43.6000,1.299
43.6400,1.311
43.6800,1.299
43.7200,1.287
43.7600,1.337
43.8000,1.253
43.8400,1.289
43.8800,1.277
43.9200,1.254
43.9600,1.331
44.0000,1.266
44.0400,1.296
44.0800,1.309
44.1200,1.311
44.1600,1.297
44.2000,1.211
44.2400,1.256
44.2800,1.316
44.3200,1.284
44.3600,1.257
44.4000,1.302
44.4400,1.273
44.4800,1.274
44.5200,1.250
44.5600,1.267
44.6000,1.220
44.6400,1.251
44.6800,1.288
44.7200,1.273
44.7600,1.267
44.8000,1.188
44.8400,1.244
44.8800,1.262
44.9200,1.214
44.9600,1.264
45.0000,1.182
45.0400,1.227
45.0800,1.245
45.1200,1.200
45.1600,1.227
45.2000,1.161
45.2400,1.171
45.2800,1.198
45.3200,1.193
45.3600,1.148
45.4000,1.174
45.4400,1.186
45.4800,1.183
45.5200,1.158
45.5600,1.154
45.6000,1.137
45.6400,1.152
45.6800,1.088
45.7200,1.125
45.7600,1.138
45.8000,1.138
45.8400,1.158
45.8800,1.103
45.9200,1.150
45.9600,1.131
46.0000,1.126
46.0400,1.046
46.0800,1.117
46.1200,1.057
46.1600,1.124
46.2000,1.125
46.2400,1.059
46.2800,1.109
46.3200,1.070
46.3600,1.085
46.4000,1.097
46.4400,1.151
46.4800,1.131
46.5200,1.087
46.5600,1.099
46.6000,1.078
46.6400,1.064
46.6800,1.014
46.7200,1.042
46.7600,1.071
46.8000,1.054
46.8400,1.077
46.8800,1.075
46.9200,1.058
46.9600,1.060
47.0000,1.066
47.0400,1.042
47.0800,1.030
47.1200,1.027
47.1600,1.055
47.2000,1.049
47.2400,1.068
47.2800,1.033
47.3200,1.021
47.3600,1.088
47.4000,1.036
47.4400,1.060
47.4800,1.067
47.5200,1.084
47.5600,1.056
47.6000,1.067
47.6400,1.064
47.6800,0.965
47.7200,0.991
47.7600,1.044
47.8000,1.043
47.8400,1.001
47.8800,1.081
47.9200,1.071
47.9600,1.023
48.0000,1.090
48.0400,1.031
48.0800,1.018
48.1200,1.027
48.1600,0.997
48.2000,1.039
48.2400,0.954
48.2800,1.040
48.3200,1.001
48.3600,1.002
48.4000,0.992
48.4400,0.983
48.4800,0.999
48.5200,0.959
48.5600,1.002
48.6000,1.005
48.6400,0.997
48.6800,0.978
48.7200,1.069
48.7600,1.017
48.8000,0.939
48.8400,0.996
48.8800,0.991
48.9200,0.955
48.9600,0.963
49.0000,1.019
49.0400,1.019
49.0800,0.999
49.1200,0.969
49.1600,0.989
49.2000,0.974
49.2400,0.960
49.2800,0.976
49.3200,1.035
49.3600,0.970
49.4000,0.973
49.4400,0.938
49.4800,0.910
49.5200,0.907
49.5600,0.924
49.6000,0.966
49.6400,0.977
49.6800,0.992
49.7200,1.036
49.7600,0.943
49.8000,0.938
49.8400,0.944
49.8800,0.921
49.9200,0.988
49.9600,0.909
50.0000,0.951
50.0400,0.934
50.0800,0.945
50.1200,0.923
50.1600,0.890
50.2000,0.939
50.2400,0.934
50.2800,0.944
50.3200,0.947
50.3600,0.985
50.4000,0.891
50.4400,0.951
50.4800,0.955
50.5200,0.916
50.5600,0.966
50.6000,0.900
50.6400,0.941
50.6800,0.971
50.7200,0.914
50.7600,0.885
50.8000,0.942
50.8400,0.923
50.8800,0.872
50.9200,0.929
50.9600,0.930
51.0000,0.928
51.0400,0.920
51.0800,0.904
51.1200,0.940
51.1600,0.939
51.2000,0.910
51.2400,0.905
51.2800,0.901
51.3200,0.868
51.3600,0.864
51.4000,0.948
51.4400,0.925
51.4800,0.916
51.5200,0.870
51.5600,0.911
51.6000,0.895
51.6400,0.960
51.6800,0.858
51.7200,0.939
51.7600,0.905
51.8000,0.843
51.8400,0.885
51.8800,0.885
51.9200,0.942
51.9600,0.942
52.0000,0.860
52.0400,0.928
52.0800,0.909
52.1200,0.911
52.1600,0.896
52.2000,0.890
52.2400,0.893
52.2800,0.837
52.3200,0.886
52.3600,0.872
52.4000,0.870
52.4400,0.841
52.4800,0.895
52.5200,0.887
52.5600,0.874
52.6000,0.879
52.6400,0.867
52.6800,0.897
52.7200,0.877
52.7600,0.925
52.8000,0.867
52.8400,0.852
52.8800,0.844
52.9200,0.877
52.9600,0.866
53.0000,0.858
53.0400,0.872
53.0800,0.853
53.1200,0.881
53.1600,0.862
53.2000,0.860
53.2400,0.941
53.2800,0.875
53.3200,0.889
53.3600,0.889
53.4000,0.824
53.4400,0.813
53.4800,0.847
53.5200,0.893
53.5600,0.827
53.6000,0.887
53.6400,0.822
53.6800,0.854
53.7200,0.826
53.7600,0.896
53.8000,0.849
53.8400,0.819
53.8800,0.920
53.9200,0.865
53.9600,0.830
54.0000,0.823
54.0400,0.877
54.0800,0.814
54.1200,0.839
54.1600,0.870
54.2000,0.823
54.2400,0.863
54.2800,0.809
54.3200,0.832
54.3600,0.847
54.4000,0.848
54.4400,0.845
54.4800,0.876
54.5200,0.800
54.5600,0.874
54.6000,0.890
54.6400,0.838
54.6800,0.856
54.7200,0.823
54.7600,0.855
54.8000,0.869
54.8400,0.820
54.8800,0.825
54.9200,0.870
54.9600,0.886
55.0000,0.857
55.0400,0.794
55.0800,0.809
55.1200,0.842
55.1600,0.826
55.2000,0.833
55.2400,0.797
55.2800,0.813
55.3200,0.841
55.3600,0.856
55.4000,0.860
55.4400,0.843
55.4800,0.843
55.5200,0.824
55.5600,0.770
55.6000,0.843
55.6400,0.836
55.6800,0.817
55.7200,0.817
55.7600,0.780
55.8000,0.865
55.8400,0.799
55.8800,0.807
55.9200,0.830
55.9600,0.783
56.0000,0.823
56.0400,0.833
56.0800,0.798
56.1200,0.803
56.1600,0.821
56.2000,0.787
56.2400,0.762
56.2800,0.807
56.3200,0.803
56.3600,0.807
56.4000,0.811
56.4400,0.830
56.4800,0.842
56.5200,0.797
56.5600,0.829
56.6000,0.891
56.6400,0.839
56.6800,0.814
56.7200,0.797
56.7600,0.813
56.8000,0.880
56.8400,0.780
56.8800,0.821
56.9200,0.818
56.9600,0.816
57.0000,0.820
57.0400,0.818
57.0800,0.816
57.1200,0.849
57.1600,0.821
57.2000,0.848
57.2400,0.822
57.2800,0.775
57.3200,0.813
57.3600,0.775
57.4000,0.804
57.4400,0.759
57.4800,0.805
57.5200,0.839
57.5600,0.841
57.6000,0.821
57.6400,0.832
57.6800,0.815
57.7200,0.796
57.7600,0.756
57.8000,0.774
57.8400,0.791
57.8800,0.851
57.9200,0.793
57.9600,0.831
58.0000,0.787
58.0400,0.767
58.0800,0.817
58.1200,0.813
58.1600,0.839
58.2000,0.825
58.2400,0.761
58.2800,0.794
58.3200,0.836
58.3600,0.838
58.4000,0.798
58.4400,0.855
58.4800,0.805
58.5200,0.825
58.5600,0.807
58.6000,0.796
58.6400,0.807
58.6800,0.772
58.7200,0.824
58.7600,0.831
58.8000,0.804
58.8400,0.786
58.8800,0.796
58.9200,0.813
58.9600,0.792
59.0000,0.758
59.0400,0.772
59.0800,0.807
59.1200,0.766
59.1600,0.767
59.2000,0.765
59.2400,0.781
59.2800,0.785
59.3200,0.803
59.3600,0.768
59.4000,0.805
59.4400,0.801
59.4800,0.784
59.5200,0.797
59.5600,0.822
59.6000,0.804
59.6400,0.779
59.6800,0.790
59.7200,0.809
59.7600,0.783
59.8000,0.792
59.8400,0.794
59.8800,0.762
59.9200,0.763
59.9600,0.794
60.0000,0.755
60.0400,0.804
60.0800,0.779
60.1200,0.763
60.1600,0.810
60.2000,0.798
60.2400,0.768
60.2800,0.710
60.3200,0.736
60.3600,0.793
60.4000,0.811
60.4400,0.800
60.4800,0.766
60.5200,0.771
60.5600,0.737
60.6000,0.746
60.6400,0.780
60.6800,0.779
60.7200,0.792
60.7600,0.747
60.8000,0.752
60.8400,0.744
60.8800,0.745
60.9200,0.745
60.9600,0.730
61.0000,0.772
61.0400,0.799
61.0800,0.769
61.1200,0.742
61.1600,0.744
61.2000,0.786
61.2400,0.764
61.2800,0.767
61.3200,0.741
61.3600,0.773
61.4000,0.760
61.4400,0.785
61.4800,0.760
61.5200,0.814
61.5600,0.735
61.6000,0.802
61.6400,0.862
61.6800,0.806
61.7200,0.782
61.7600,0.770
61.8000,0.774
61.8400,0.772
61.8800,0.761
61.9200,0.733
61.9600,0.726
62.0000,0.724
62.0400,0.722
62.0800,0.767
62.1200,0.773
62.1600,0.772
62.2000,0.763
62.2400,0.753
62.2800,0.712
62.3200,0.698
62.3600,0.781
62.4000,0.735
62.4400,0.734
62.4800,0.750
62.5200,0.732
62.5600,0.771
62.6000,0.732
62.6400,0.759
62.6800,0.753
62.7200,0.713
62.7600,0.719
62.8000,0.807
62.8400,0.722
62.8800,0.750
62.9200,0.778
62.9600,0.757
63.0000,0.720
63.0400,0.775
63.0800,0.744
63.1200,0.740
63.1600,0.724
63.2000,0.719
63.2400,0.737
63.2800,0.724
63.3200,0.771
63.3600,0.733
63.4000,0.762
63.4400,0.767
63.4800,0.764
63.5200,0.756
63.5600,0.724
63.6000,0.724
63.6400,0.744
63.6800,0.785
63.7200,0.749
63.7600,0.756
63.8000,0.778
63.8400,0.761
63.8800,0.799
63.9200,0.776
63.9600,0.846
64.0000,0.764
64.0400,0.808
64.0800,0.733
64.1200,0.836
64.1600,0.769
64.2000,0.774
64.2400,0.747
64.2800,0.815
64.3200,0.832
64.3600,0.773
64.4000,0.729
64.4400,0.784
64.4800,0.803
64.5200,0.842
64.5600,0.806
64.6000,0.840
64.6400,0.803
64.6800,0.806
64.7200,0.830
64.7600,0.805
64.8000,0.755
64.8400,0.749
64.8800,0.803
64.9200,0.824
64.9600,0.840
65.0000,0.797
65.0400,0.832
65.0800,0.839
65.1200,0.835
65.1600,0.800
65.2000,0.799
65.2400,0.800
65.2800,0.833
65.3200,0.830
65.3600,0.815
65.4000,0.839
65.4400,0.827
65.4800,0.873
65.5200,0.825
65.5600,0.824
65.6000,0.799
65.6400,0.847
65.6800,0.774
65.7200,0.842
65.7600,0.859
65.8000,0.870
65.8400,0.869
65.8800,0.863
65.9200,0.851
65.9600,0.878
66.0000,0.947
66.0400,0.833
66.0800,0.833
66.1200,0.896
66.1600,0.897
66.2000,0.874
66.2400,0.892
66.2800,0.936
66.3200,0.899
66.3600,0.948
66.4000,1.021
66.4400,0.968
66.4800,0.984
66.5200,0.992
66.5600,1.018
66.6000,0.989
66.6400,0.968
66.6800,1.069
66.7200,1.024
66.7600,1.018
66.8000,1.055
66.8400,1.058
66.8800,1.020
66.9200,1.075
66.9600,1.146
67.0000,1.071
67.0400,1.128
67.0800,1.180
67.1200,1.176
67.1600,1.113
67.2000,1.171
67.2400,1.282
67.2800,1.188
67.3200,1.226
67.3600,1.210
67.4000,1.317
67.4400,1.385
67.4800,1.298
67.5200,1.278
67.5600,1.367
67.6000,1.342
67.6400,1.422
67.6800,1.465
67.7200,1.461
67.7600,1.467
67.8000,1.514
67.8400,1.604
67.8800,1.528
67.9200,1.677
67.9600,1.639
68.0000,1.712
68.0400,1.694
68.0800,1.835
68.1200,1.831
68.1600,1.808
68.2000,1.890
68.2400,2.057
68.2800,2.083
68.3200,2.092
68.3600,2.265
68.4000,2.291
68.4400,2.419
68.4800,2.505
68.5200,2.692
68.5600,2.860
68.6000,3.030
68.6400,3.468
68.6800,3.911
68.7200,5.053
68.7600,6.402
68.8000,7.408
68.8400,7.841
68.8800,7.983
68.9200,9.081
68.9600,12.430
69.0000,19.205
69.0400,41.619
69.0800,192.221
69.1200,470.990
69.1600,351.159
69.2000,93.148
69.2400,46.283
69.2800,120.595
69.3200,246.727
69.3600,174.731
69.4000,48.030
69.4400,17.420
69.4800,11.009
69.5200,8.580
69.5600,6.668
69.6000,5.555
69.6400,4.859
69.6800,4.434
69.7200,3.946
69.7600,3.511
69.8000,3.342
69.8400,3.047
69.8800,2.760
69.9200,2.746
69.9600,2.631
70.0000,2.546
70.0400,2.410
70.0800,2.305
70.1200,2.274
70.1600,2.167
70.2000,2.106
70.2400,2.088
70.2800,1.959
70.3200,1.895
70.3600,1.809
70.4000,1.822
70.4400,1.674
70.4800,1.656
70.5200,1.652
70.5600,1.592
70.6000,1.527
70.6400,1.519
70.6800,1.538
70.7200,1.417
70.7600,1.375
70.8000,1.348
70.8400,1.297
70.8800,1.300
70.9200,1.293
70.9600,1.280
71.0000,1.267
71.0400,1.185
71.0800,1.144
71.1200,1.161
71.1600,1.167
71.2000,1.107
71.2400,1.076
71.2800,1.095
71.3200,1.055
71.3600,0.986
71.4000,0.988
71.4400,1.022
71.4800,0.987
71.5200,0.970
71.5600,0.910
71.6000,0.871
71.6400,0.893
71.6800,0.922
71.7200,0.875
71.7600,0.862
71.8000,0.850
71.8400,0.880
71.8800,0.842
71.9200,0.802
71.9600,0.790
72.0000,0.786
72.0400,0.829
72.0800,0.837
72.1200,0.733
72.1600,0.785
72.2000,0.766
72.2400,0.732
72.2800,0.759
72.3200,0.761
72.3600,0.703
72.4000,0.700
72.4400,0.670
72.4800,0.726
72.5200,0.717
72.5600,0.636
72.6000,0.642
72.6400,0.679
72.6800,0.660
72.7200,0.597
72.7600,0.637
72.8000,0.645
72.8400,0.610
72.8800,0.621
72.9200,0.626
72.9600,0.633
73.0000,0.623
73.0400,0.578
73.0800,0.604
73.1200,0.548
73.1600,0.605
73.2000,0.544
73.2400,0.581
73.2800,0.585
73.3200,0.571
73.3600,0.550
73.4000,0.576
73.4400,0.569
73.4800,0.583
73.5200,0.554
73.5600,0.525
73.6000,0.565
73.6400,0.493
73.6800,0.503
73.7200,0.558
73.7600,0.519
73.8000,0.557
73.8400,0.500
73.8800,0.505
73.9200,0.525
73.9600,0.514
74.0000,0.461
74.0400,0.469
74.0800,0.467
74.1200,0.482
74.1600,0.557
74.2000,0.500
74.2400,0.490
74.2800,0.521
74.3200,0.522
74.3600,0.479
74.4000,0.489
74.4400,0.512
74.4800,0.459
74.5200,0.474
74.5600,0.497
74.6000,0.486
74.6400,0.445
74.6800,0.503
74.7200,0.495
74.7600,0.475
74.8000,0.514
74.8400,0.451
74.8800,0.451
74.9200,0.449
74.9600,0.462
75.0000,0.453
75.0400,0.455
75.0800,0.431
75.1200,0.433
75.1600,0.436
75.2000,0.468
75.2400,0.453
75.2800,0.449
75.3200,0.455
75.3600,0.480
75.4000,0.467
75.4400,0.417
75.4800,0.421
75.5200,0.435
75.5600,0.434
75.6000,0.465
75.6400,0.417
75.6800,0.434
75.7200,0.436
75.7600,0.415
75.8000,0.421
75.8400,0.441
75.8800,0.441
75.9200,0.386
75.9600,0.422
76.0000,0.440
76.0400,0.412
76.0800,0.465
76.1200,0.450
76.1600,0.421
76.2000,0.460
76.2400,0.458
76.2800,0.420
76.3200,0.418
76.3600,0.433
76.4000,0.417
76.4400,0.427
76.4800,0.414
76.5200,0.378
76.5600,0.413
76.6000,0.439
76.6400,0.435
76.6800,0.422
76.7200,0.412
76.7600,0.411
76.8000,0.392
76.8400,0.423
76.8800,0.432
76.9200,0.390
76.9600,0.435
77.0000,0.423
77.0400,0.423
77.0800,0.426
77.1200,0.391
77.1600,0.436
77.2000,0.444
77.2400,0.413
77.2800,0.462
77.3200,0.433
77.3600,0.414
77.4000,0.438
77.4400,0.412
77.4800,0.432
77.5200,0.445
77.5600,0.434
77.6000,0.412
77.6400,0.429
77.6800,0.415
77.7200,0.400
77.7600,0.431
77.8000,0.441
77.8400,0.387
77.8800,0.382
77.9200,0.407
77.9600,0.392
78.0000,0.406
78.0400,0.392
78.0800,0.413
78.1200,0.375
78.1600,0.389
78.2000,0.380
78.2400,0.403
78.2800,0.392
78.3200,0.366
78.3600,0.394
78.4000,0.353
78.4400,0.361
78.4800,0.390
78.5200,0.371
78.5600,0.365
78.6000,0.420
78.6400,0.388
78.6800,0.358
78.7200,0.368
78.7600,0.350
78.8000,0.383
78.8400,0.359
78.8800,0.351
78.9200,0.351
78.9600,0.357
79.0000,0.340
79.0400,0.379
79.0800,0.346
79.1200,0.352
79.1600,0.347
79.2000,0.407
79.2400,0.369
79.2800,0.362
79.3200,0.373
79.3600,0.355
79.4000,0.339
79.4400,0.358
79.4800,0.354
79.5200,0.336
79.5600,0.354
79.6000,0.370
79.6400,0.379
79.6800,0.367
79.7200,0.318
79.7600,0.315
79.8000,0.361
79.8400,0.359
79.8800,0.347
79.9200,0.380
79.9600,0.310
80.0000,0.369
