theta,intensity
5.0000,7.824
5.0400,7.746
5.0800,7.784
5.1200,7.823
5.1600,7.658
5.2000,7.593
5.2400,7.644
5.2800,7.331
5.3200,7.413
5.3600,7.305
5.4000,7.236
5.4400,7.216
5.4800,6.882
5.5200,6.865
5.5600,6.953
5.6000,6.677
5.6400,6.692
5.6800,6.482
5.7200,6.495
5.7600,6.307
5.8000,6.244
5.8400,6.213
5.8800,6.084
5.9200,6.000
5.9600,5.856
6.0000,5.672
6.0400,5.716
6.0800,5.616
6.1200,5.513
6.1600,5.463
6.2000,5.258
6.2400,5.212
6.2800,5.168
6.3200,5.058
6.3600,5.017
6.4000,4.828
6.4400,4.739
6.4800,4.679
6.5200,4.746
6.5600,4.584
6.6000,4.531
6.6400,4.359
6.6800,4.320
6.7200,4.479
6.7600,4.486
6.8000,4.247
6.8400,4.265
6.8800,4.354
6.9200,4.329
6.9600,4.374
7.0000,4.273
7.0400,4.410
7.0800,4.331
7.1200,4.244
7.1600,4.291
7.2000,4.304
7.2400,4.301
7.2800,4.282
7.3200,4.256
7.3600,4.339
7.4000,4.201
7.4400,4.177
7.4800,4.133
7.5200,4.166
7.5600,4.013
7.6000,4.272
7.6400,4.207
7.6800,4.179
7.7200,4.227
7.7600,4.080
7.8000,4.169
7.8400,4.195
7.8800,4.184
7.9200,4.024
7.9600,4.158
8.0000,4.077
8.0400,4.127
8.0800,4.052
8.1200,4.031
8.1600,3.966
8.2000,3.998
8.2400,3.971
8.2800,3.964
8.3200,4.109
8.3600,3.990
8.4000,3.971
8.4400,4.031
8.4800,3.882
8.5200,3.947
8.5600,4.006
8.6000,3.949
8.6400,4.010
8.6800,4.017
8.7200,4.017
8.7600,4.031
8.8000,3.891
8.8400,4.002
8.8800,3.981
8.9200,3.886
8.9600,3.901
9.0000,4.000
9.0400,3.957
9.0800,3.981
9.1200,4.008
9.1600,3.950
9.2000,4.098
9.2400,3.942
9.2800,3.870
9.3200,3.954
9.3600,3.985
9.4000,3.859
9.4400,3.788
9.4800,3.903
9.5200,3.834
9.5600,3.887
9.6000,3.886
9.6400,3.889
9.6800,3.857
9.7200,3.759
9.7600,3.897
9.8000,3.771
9.8400,3.864
9.8800,3.846
9.9200,3.875
9.9600,3.851
10.0000,3.919
10.0400,3.868
10.0800,3.827
10.1200,3.845
10.1600,3.818
10.2000,3.713
10.2400,3.740
10.2800,3.670
10.3200,3.774
10.3600,3.759
10.4000,3.810
10.4400,3.680
10.4800,3.761
10.5200,3.895
10.5600,3.710
10.6000,3.686
10.6400,3.683
10.6800,3.709
10.7200,3.684
10.7600,3.668
10.8000,3.737
10.8400,3.709
10.8800,3.788
10.9200,3.646
10.9600,3.581
11.0000,3.655
11.0400,3.759
11.0800,3.834
11.1200,3.689
11.1600,3.566
11.2000,3.763
11.2400,3.830
11.2800,3.673
11.3200,3.645
11.3600,3.714
11.4000,3.618
11.4400,3.611
11.4800,3.572
11.5200,3.627
11.5600,3.595
11.6000,3.577
11.6400,3.632
11.6800,3.618
11.7200,3.634
11.7600,3.585
11.8000,3.622
11.8400,3.616
11.8800,3.617
11.9200,3.585
11.9600,3.599
12.0000,3.640
12.0400,3.639
12.0800,3.703
12.1200,3.599
12.1600,3.531
12.2000,3.496
12.2400,3.623
12.2800,3.501
12.3200,3.420
12.3600,3.503
12.4000,3.611
12.4400,3.511
12.4800,3.455
12.5200,3.520
12.5600,3.534
12.6000,3.563
12.6400,3.524
12.6800,3.555
12.7200,3.459
12.7600,3.355
12.8000,3.428
12.8400,3.517
12.8800,3.435
12.9200,3.513
12.9600,3.500
13.0000,3.370
13.0400,3.507
13.0800,3.454
13.1200,3.455
13.1600,3.468
13.2000,3.440
13.2400,3.410
13.2800,3.529
13.3200,3.433
13.3600,3.458
13.4000,3.475
13.4400,3.393
13.4800,3.374
13.5200,3.426
13.5600,3.421
13.6000,3.424
13.6400,3.415
13.6800,3.415
13.7200,3.417
13.7600,3.409
13.8000,3.390
13.8400,3.449
13.8800,3.317
13.9200,3.300
13.9600,3.359
14.0000,3.436
14.0400,3.448
14.0800,3.400
14.1200,3.267
14.1600,3.357
14.2000,3.383
14.2400,3.315
14.2800,3.354
14.3200,3.347
14.3600,3.285
14.4000,3.398
14.4400,3.339
14.4800,3.397
14.5200,3.345
14.5600,3.259
14.6000,3.377
14.6400,3.356
14.6800,3.265
14.7200,3.305
14.7600,3.470
14.8000,3.243
14.8400,3.329
14.8800,3.401
14.9200,3.286
14.9600,3.266
15.0000,3.323
15.0400,3.295
15.0800,3.313
15.1200,3.347
15.1600,3.337
15.2000,3.367
15.2400,3.338
15.2800,3.190
15.3200,3.198
15.3600,3.234
15.4000,3.253
15.4400,3.290
15.4800,3.286
15.5200,3.296
15.5600,3.165
15.6000,3.114
15.6400,3.275
15.6800,3.175
15.7200,3.229
15.7600,3.188
15.8000,3.285
15.8400,3.277
15.8800,3.185
15.9200,3.213
15.9600,3.203
16.0000,3.282
16.0400,3.177
16.0800,3.223
16.1200,3.260
16.1600,3.235
16.2000,3.205
16.2400,3.153
16.2800,3.207
16.3200,3.157
16.3600,3.158
16.4000,3.170
16.4400,3.150
16.4800,3.156
16.5200,3.190
16.5600,3.194
16.6000,3.209
16.6400,3.149
16.6800,3.161
16.7200,3.174
16.7600,3.054
16.8000,3.160
16.8400,3.118
16.8800,3.131
16.9200,3.089
16.9600,3.094
17.0000,3.125
17.0400,3.114
17.0800,3.224
17.1200,3.077
17.1600,3.149
17.2000,3.145
17.2400,3.115
17.2800,3.133
17.3200,3.091
17.3600,3.042
17.4000,3.078
17.4400,3.092
17.4800,3.028
17.5200,2.972
17.5600,3.083
17.6000,3.066
17.6400,3.079
17.6800,3.041
17.7200,3.091
17.7600,3.000
17.8000,3.113
17.8400,3.111
17.8800,3.086
17.9200,3.015
17.9600,2.967
18.0000,3.048
18.0400,3.015
18.0800,2.995
18.1200,3.040
18.1600,3.070
18.2000,3.028
18.2400,2.911
18.2800,2.882
18.3200,2.914
18.3600,2.880
18.4000,3.042
18.4400,3.004
18.4800,2.961
18.5200,3.065
18.5600,2.989
18.6000,3.017
18.6400,2.986
18.6800,2.941
18.7200,3.001
18.7600,2.976
18.8000,2.930
18.8400,3.003
18.8800,2.944
18.9200,2.949
18.9600,2.933
19.0000,3.040
19.0400,2.908
19.0800,2.992
19.1200,2.991
19.1600,2.990
19.2000,2.960
19.2400,2.843
19.2800,2.818
19.3200,2.918
19.3600,2.952
19.4000,2.817
19.4400,2.958
19.4800,2.893
19.5200,2.914
19.5600,2.949
19.6000,2.861
19.6400,2.993
19.6800,2.937
19.7200,2.811
19.7600,2.909
19.8000,2.832
19.8400,2.822
19.8800,2.869
19.9200,2.916
19.9600,2.902
20.0000,2.846
20.0400,2.948
20.0800,2.870
20.1200,2.884
20.1600,2.910
20.2000,2.885
20.2400,2.855
20.2800,2.827
20.3200,2.755
20.3600,2.869
20.4000,2.948
20.4400,2.740
20.4800,2.784
20.5200,2.827
20.5600,2.853
20.6000,2.867
20.6400,2.856
20.6800,2.876
20.7200,2.784
20.7600,2.917
20.8000,2.802
20.8400,2.709
20.8800,2.846
20.9200,2.864
20.9600,2.830
21.0000,2.768
21.0400,2.920
21.0800,2.810
21.1200,2.749
21.1600,2.809
21.2000,2.725
21.2400,2.800
21.2800,2.819
21.3200,2.734
21.3600,2.822
21.4000,2.770
21.4400,2.758
21.4800,2.776
21.5200,2.806
21.5600,2.778
21.6000,2.760
21.6400,2.725
21.6800,2.753
21.7200,2.734
21.7600,2.787
21.8000,2.846
21.8400,2.757
21.8800,2.771
21.9200,2.800
21.9600,2.703
22.0000,2.863
22.0400,2.821
22.0800,2.747
22.1200,2.711
22.1600,2.741
22.2000,2.776
22.2400,2.779
22.2800,2.707
22.3200,2.722
22.3600,2.693
22.4000,2.747
22.4400,2.751
22.4800,2.812
22.5200,2.758
22.5600,2.753
22.6000,2.727
22.6400,2.674
22.6800,2.742
22.7200,2.798
22.7600,2.668
22.8000,2.756
22.8400,2.631
22.8800,2.760
22.9200,2.691
22.9600,2.708
23.0000,2.721
23.0400,2.668
23.0800,2.683
23.1200,2.685
23.1600,2.684
23.2000,2.627
23.2400,2.639
23.2800,2.627
23.3200,2.644
23.3600,2.653
23.4000,2.616
23.4400,2.619
23.4800,2.644
23.5200,2.609
23.5600,2.641
23.6000,2.647
23.6400,2.622
23.6800,2.646
23.7200,2.744
23.7600,2.638
23.8000,2.667
23.8400,2.686
23.8800,2.608
23.9200,2.672
23.9600,2.672
24.0000,2.666
24.0400,2.716
24.0800,2.577
24.1200,2.612
24.1600,2.583
24.2000,2.673
24.2400,2.631
24.2800,2.645
24.3200,2.654
24.3600,2.687
24.4000,2.600
24.4400,2.583
24.4800,2.560
24.5200,2.669
24.5600,2.606
24.6000,2.562
24.6400,2.552
24.6800,2.617
24.7200,2.592
24.7600,2.563
24.8000,2.590
24.8400,2.498
24.8800,2.547
24.9200,2.545
24.9600,2.544
25.0000,2.599
25.0400,2.575
25.0800,2.554
25.1200,2.523
25.1600,2.496
25.2000,2.581
25.2400,2.575
25.2800,2.604
25.3200,2.639
25.3600,2.661
25.4000,2.652
25.4400,2.535
25.4800,2.456
25.5200,2.639
25.5600,2.582
25.6000,2.536
25.6400,2.598
25.6800,2.591
25.7200,2.488
25.7600,2.539
25.8000,2.555
25.8400,2.561
25.8800,2.551
25.9200,2.508
25.9600,2.558
26.0000,2.629
26.0400,2.569
26.0800,2.502
26.1200,2.492
26.1600,2.604
26.2000,2.578
26.2400,2.480
26.2800,2.558
26.3200,2.484
26.3600,2.561
26.4000,2.457
26.4400,2.500
26.4800,2.474
26.5200,2.488
26.5600,2.484
26.6000,2.483
26.6400,2.505
26.6800,2.574
26.7200,2.526
26.7600,2.591
26.8000,2.489
26.8400,2.589
26.8800,2.562
26.9200,2.547
26.9600,2.501
27.0000,2.482
27.0400,2.476
27.0800,2.465
27.1200,2.484
27.1600,2.459
27.2000,2.442
27.2400,2.513
27.2800,2.492
27.3200,2.517
27.3600,2.435
27.4000,2.486
27.4400,2.423
27.4800,2.422
27.5200,2.388
27.5600,2.436
27.6000,2.391
27.6400,2.401
27.6800,2.340
27.7200,2.409
27.7600,2.546
27.8000,2.435
27.8400,2.463
27.8800,2.455
27.9200,2.458
27.9600,2.464
28.0000,2.464
28.0400,2.498
28.0800,2.411
28.1200,2.423
28.1600,2.420
28.2000,2.387
28.2400,2.423
28.2800,2.401
28.3200,2.374
28.3600,2.403
28.4000,2.468
28.4400,2.403
28.4800,2.455
28.5200,2.392
28.5600,2.398
28.6000,2.375
28.6400,2.372
28.6800,2.366
28.7200,2.414
28.7600,2.385
28.8000,2.380
28.8400,2.351
28.8800,2.319
28.9200,2.358
28.9600,2.385
29.0000,2.395
29.0400,2.374
29.0800,2.342
29.1200,2.289
29.1600,2.311
29.2000,2.394
29.2400,2.362
29.2800,2.312
29.3200,2.352
29.3600,2.401
29.4000,2.394
29.4400,2.306
29.4800,2.338
29.5200,2.387
29.5600,2.385
29.6000,2.369
29.6400,2.309
29.6800,2.336
29.7200,2.301
29.7600,2.320
29.8000,2.310
29.8400,2.362
29.8800,2.384
29.9200,2.311
29.9600,2.267
30.0000,2.283
30.0400,2.369
30.0800,2.340
30.1200,2.357
30.1600,2.359
30.2000,2.351
30.2400,2.314
30.2800,2.362
30.3200,2.379
30.3600,2.339
30.4000,2.353
30.4400,2.296
30.4800,2.259
30.5200,2.349
30.5600,2.350
30.6000,2.311
30.6400,2.263
30.6800,2.219
30.7200,2.246
30.7600,2.229
30.8000,2.296
30.8400,2.236
30.8800,2.320
30.9200,2.247
30.9600,2.366
31.0000,2.332
31.0400,2.214
31.0800,2.292
31.1200,2.261
31.1600,2.274
31.2000,2.320
31.2400,2.315
31.2800,2.221
31.3200,2.208
31.3600,2.270
31.4000,2.238
31.4400,2.281
31.4800,2.301
31.5200,2.290
31.5600,2.241
31.6000,2.206
31.6400,2.289
31.6800,2.372
31.7200,2.260
31.7600,2.203
31.8000,2.249
31.8400,2.266
31.8800,2.269
31.9200,2.280
31.9600,2.257
32.0000,2.146
32.0400,2.204
32.0800,2.151
32.1200,2.159
32.1600,2.257
32.2000,2.236
32.2400,2.138
32.2800,2.184
32.3200,2.224
32.3600,2.172
32.4000,2.195
32.4400,2.231
32.4800,2.179
32.5200,2.312
32.5600,2.250
32.6000,2.211
32.6400,2.261
32.6800,2.283
32.7200,2.236
32.7600,2.229
32.8000,2.262
32.8400,2.245
32.8800,2.212
32.9200,2.262
32.9600,2.393
33.0000,2.692
33.0400,3.085
33.0800,2.933
33.1200,2.465
33.1600,2.275
33.2000,2.237
33.2400,2.234
33.2800,2.213
33.3200,2.143
33.3600,2.204
33.4000,2.198
33.4400,2.210
33.4800,2.158
33.5200,2.153
33.5600,2.098
33.6000,2.156
33.6400,2.172
33.6800,2.187
33.7200,2.139
33.7600,2.173
33.8000,2.149
33.8400,2.092
33.8800,2.149
33.9200,2.230
33.9600,2.151
34.0000,2.132
34.0400,2.061
34.0800,2.167
34.1200,2.081
34.1600,2.050
34.2000,2.062
34.2400,2.169
34.2800,2.171
34.3200,2.089
34.3600,2.093
34.4000,2.061
34.4400,2.066
34.4800,2.141
34.5200,2.176
34.5600,2.115
34.6000,2.105
34.6400,2.098
34.6800,2.189
34.7200,2.079
34.7600,2.035
34.8000,2.098
34.8400,2.076
34.8800,2.115
34.9200,2.033
34.9600,2.054
35.0000,2.131
35.0400,2.057
35.0800,2.178
35.1200,2.077
35.1600,2.163
35.2000,2.131
35.2400,2.150
35.2800,2.150
35.3200,2.166
35.3600,2.078
35.4000,2.089
35.4400,2.088
35.4800,2.161
35.5200,2.199
35.5600,2.145
35.6000,2.152
35.6400,2.202
35.6800,2.042
35.7200,2.071
35.7600,2.130
35.8000,2.089
35.8400,2.079
35.8800,2.000
35.9200,2.060
35.9600,2.067
36.0000,2.072
36.0400,2.017
36.0800,2.041
36.1200,2.018
36.1600,2.071
36.2000,2.019
36.2400,2.063
36.2800,2.013
36.3200,2.037
36.3600,1.971
36.4000,2.029
36.4400,1.980
36.4800,1.917
36.5200,1.981
36.5600,1.996
36.6000,1.964
36.6400,1.964
36.6800,1.965
36.7200,1.936
36.7600,1.951
36.8000,1.956
36.8400,1.938
36.8800,1.939
36.9200,1.817
36.9600,1.888
37.0000,1.970
37.0400,1.897
37.0800,1.871
37.1200,1.857
37.1600,1.970
37.2000,1.913
37.2400,1.823
37.2800,1.894
37.3200,1.817
37.3600,1.932
37.4000,1.858
37.4400,1.946
37.4800,1.903
37.5200,1.923
37.5600,1.869
37.6000,1.913
37.6400,1.864
37.6800,1.900
37.7200,1.859
37.7600,1.870
37.8000,1.802
37.8400,1.926
37.8800,1.961
37.9200,1.890
37.9600,1.903
38.0000,1.924
38.0400,1.963
38.0800,1.980
38.1200,1.990
38.1600,1.948
38.2000,1.955
38.2400,1.849
38.2800,1.932
38.3200,1.839
38.3600,1.750
38.4000,1.794
38.4400,1.811
38.4800,1.719
38.5200,1.783
38.5600,1.754
38.6000,1.776
38.6400,1.757
38.6800,1.717
38.7200,1.764
38.7600,1.710
38.8000,1.611
38.8400,1.677
38.8800,1.692
38.9200,1.685
38.9600,1.587
39.0000,1.675
39.0400,1.601
39.0800,1.597
39.1200,1.604
39.1600,1.674
39.2000,1.593
39.2400,1.620
39.2800,1.540
39.3200,1.553
39.3600,1.562
39.4000,1.516
39.4400,1.539
39.4800,1.495
39.5200,1.517
39.5600,1.551
39.6000,1.512
39.6400,1.526
39.6800,1.505
39.7200,1.521
39.7600,1.465
39.8000,1.501
39.8400,1.504
39.8800,1.460
39.9200,1.477
39.9600,1.466
40.0000,1.450
40.0400,1.437
40.0800,1.481
40.1200,1.547
40.1600,1.411
40.2000,1.451
40.2400,1.495
40.2800,1.422
40.3200,1.477
40.3600,1.436
40.4000,1.454
40.4400,1.422
40.4800,1.347
40.5200,1.418
40.5600,1.429
40.6000,1.414
40.6400,1.438
40.6800,1.499
40.7200,1.616
40.7600,1.540
40.8000,1.514
40.8400,1.471
40.8800,1.471
40.9200,1.318
40.9600,1.351
41.0000,1.358
41.0400,1.332
41.0800,1.405
41.1200,1.442
41.1600,1.370
41.2000,1.376
41.2400,1.381
41.2800,1.401
41.3200,1.360
41.3600,1.334
41.4000,1.330
41.4400,1.312
41.4800,1.375
41.5200,1.322
41.5600,1.351
41.6000,1.358
41.6400,1.390
41.6800,1.350
41.7200,1.334
41.7600,1.315
41.8000,1.395
41.8400,1.338
41.8800,1.272
41.9200,1.377
41.9600,1.360
42.0000,1.302
42.0400,1.375
42.0800,1.333
42.1200,1.314
42.1600,1.296
42.2000,1.302
42.2400,1.273
42.2800,1.321
42.3200,1.246
42.3600,1.316
42.4000,1.276
42.4400,1.294
42.4800,1.243
42.5200,1.299
42.5600,1.224
42.6000,1.314
42.6400,1.232
42.6800,1.325
42.7200,1.228
42.7600,1.253
42.8000,1.264
42.8400,1.229
42.8800,1.255
42.9200,1.311
42.9600,1.245
43.0000,1.277
43.0400,1.226
43.0800,1.248
43.1200,1.213
43.1600,1.213
43.2000,1.243
43.2400,1.186
43.2800,1.214
43.3200,1.191
43.3600,1.239
43.4000,1.200
43.4400,1.239
43.4800,1.215
43.5200,1.251
43.5600,1.191
43.6000,1.186
43.6400,1.262
43.6800,1.201
43.7200,1.208
43.7600,1.255
43.8000,1.220
43.8400,1.219
43.8800,1.187
43.9200,1.248
43.9600,1.197
44.0000,1.215
44.0400,1.205
44.0800,1.149
44.1200,1.206
44.1600,1.165
44.2000,1.231
44.2400,1.234
44.2800,1.144
44.3200,1.165
44.3600,1.167
44.4000,1.142
44.4400,1.174
44.4800,1.197
44.5200,1.202
44.5600,1.216
44.6000,1.208
44.6400,1.226
44.6800,1.206
44.7200,1.149
44.7600,1.169
44.8000,1.131
44.8400,1.174
44.8800,1.140
44.9200,1.081
44.9600,1.162
45.0000,1.111
45.0400,1.093
45.0800,1.139
45.1200,1.095
45.1600,1.095
45.2000,1.166
45.2400,1.133
45.2800,1.158
45.3200,1.130
45.3600,1.133
45.4000,1.097
45.4400,1.076
45.4800,1.127
45.5200,1.056
45.5600,1.083
45.6000,1.154
45.6400,1.139
45.6800,1.078
45.7200,1.049
45.7600,1.095
45.8000,1.130
45.8400,1.028
45.8800,1.105
45.9200,1.078
45.9600,1.117
46.0000,1.104
46.0400,1.084
46.0800,1.018
46.1200,1.087
46.1600,1.054
46.2000,1.088
46.2400,1.054
46.2800,1.139
46.3200,1.098
46.3600,1.036
46.4000,1.083
46.4400,1.020
46.4800,1.032
46.5200,1.021
46.5600,1.016
46.6000,1.038
46.6400,1.062
46.6800,1.050
46.7200,1.045
46.7600,1.054
46.8000,0.997
46.8400,1.012
46.8800,0.987
46.9200,1.035
46.9600,1.018
47.0000,1.029
47.0400,1.027
47.0800,0.985
47.1200,1.014
47.1600,1.017
47.2000,1.024
47.2400,1.019
47.2800,0.983
47.3200,0.952
47.3600,0.989
47.4000,1.034
47.4400,0.980
47.4800,0.980
47.5200,1.033
47.5600,1.008
47.6000,1.028
47.6400,1.019
47.6800,0.997
47.7200,1.023
47.7600,0.967
47.8000,0.992
47.8400,0.958
47.8800,0.971
47.9200,1.021
47.9600,0.995
48.0000,0.957
48.0400,0.970
48.0800,0.972
48.1200,0.983
48.1600,0.945
48.2000,0.967
48.2400,0.961
48.2800,0.997
48.3200,0.999
48.3600,0.982
48.4000,0.988
48.4400,0.962
48.4800,0.974
48.5200,0.925
48.5600,0.968
48.6000,0.963
48.6400,0.950
48.6800,0.987
48.7200,0.942
48.7600,0.976
48.8000,0.943
48.8400,0.919
48.8800,1.004
48.9200,0.911
48.9600,0.931
49.0000,0.957
49.0400,0.946
49.0800,0.914
49.1200,0.920
49.1600,0.955
49.2000,0.924
49.2400,0.898
49.2800,0.918
49.3200,0.927
49.3600,0.986
49.4000,0.932
49.4400,0.964
49.4800,0.887
49.5200,0.924
49.5600,0.933
49.6000,0.896
49.6400,0.927
49.6800,0.925
49.7200,0.892
49.7600,0.924
49.8000,0.882
49.8400,0.918
49.8800,0.937
49.9200,0.863
49.9600,0.896
50.0000,0.913
50.0400,0.884
50.0800,0.935
50.1200,0.931
50.1600,0.897
50.2000,0.885
50.2400,0.867
50.2800,0.951
50.3200,0.918
50.3600,0.894
50.4000,0.875
50.4400,0.889
50.4800,0.927
50.5200,0.893
50.5600,0.912
50.6000,0.884
50.6400,0.875
50.6800,0.882
50.7200,0.834
50.7600,0.912
50.8000,0.914
50.8400,0.894
50.8800,0.901
50.9200,0.848
50.9600,0.940
51.0000,0.859
51.0400,0.905
51.0800,0.845
51.1200,0.858
51.1600,0.859
51.2000,0.889
51.2400,0.884
51.2800,0.817
51.3200,0.855
51.3600,0.893
51.4000,0.814
51.4400,0.843
51.4800,0.852
51.5200,0.879
51.5600,0.890
51.6000,0.865
51.6400,0.923
51.6800,0.893
51.7200,0.887
51.7600,0.865
51.8000,0.865
51.8400,0.873
51.8800,0.878
51.9200,0.884
51.9600,0.885
52.0000,0.821
52.0400,0.902
52.0800,0.817
52.1200,0.839
52.1600,0.890
52.2000,0.858
52.2400,0.903
52.2800,0.872
52.3200,0.861
52.3600,0.886
52.4000,0.862
52.4400,0.817
52.4800,0.864
52.5200,0.835
52.5600,0.890
52.6000,0.809
52.6400,0.888
52.6800,0.832
52.7200,0.849
52.7600,0.813
52.8000,0.828
52.8400,0.869
52.8800,0.846
52.9200,0.845
52.9600,0.839
53.0000,0.813
53.0400,0.862
53.0800,0.841
53.1200,0.845
53.1600,0.829
53.2000,0.849
53.2400,0.856
53.2800,0.833
53.3200,0.889
53.3600,0.835
53.4000,0.870
53.4400,0.799
53.4800,0.857
53.5200,0.832
53.5600,0.860
53.6000,0.833
53.6400,0.839
53.6800,0.815
53.7200,0.818
53.7600,0.784
53.8000,0.823
53.8400,0.843
53.8800,0.813
53.9200,0.787
53.9600,0.814
54.0000,0.832
54.0400,0.822
54.0800,0.784
54.1200,0.801
54.1600,0.769
54.2000,0.839
54.2400,0.795
54.2800,0.803
54.3200,0.780
54.3600,0.767
54.4000,0.811
54.4400,0.793
54.4800,0.842
54.5200,0.786
54.5600,0.846
54.6000,0.802
54.6400,0.840
54.6800,0.847
54.7200,0.808
54.7600,0.776
54.8000,0.763
54.8400,0.837
54.8800,0.813
54.9200,0.784
54.9600,0.828
55.0000,0.800
55.0400,0.818
55.0800,0.778
55.1200,0.808
55.1600,0.768
55.2000,0.788
55.2400,0.782
55.2800,0.778
55.3200,0.792
55.3600,0.793
55.4000,0.768
55.4400,0.792
55.4800,0.837
55.5200,0.787
55.5600,0.799
55.6000,0.811
55.6400,0.829
55.6800,0.810
55.7200,0.753
55.7600,0.810
55.8000,0.808
55.8400,0.820
55.8800,0.719
55.9200,0.804
55.9600,0.810
56.0000,0.777
56.0400,0.765
56.0800,0.794
56.1200,0.800
56.1600,0.795
56.2000,0.778
56.2400,0.789
56.2800,0.792
56.3200,0.781
56.3600,0.768
56.4000,0.826
56.4400,0.802
56.4800,0.833
56.5200,0.734
56.5600,0.827
56.6000,0.826
56.6400,0.779
56.6800,0.765
56.7200,0.705
56.7600,0.762
56.8000,0.775
56.8400,0.773
56.8800,0.797
56.9200,0.746
56.9600,0.743
57.0000,0.771
57.0400,0.760
57.0800,0.762
57.1200,0.822
57.1600,0.733
57.2000,0.777
57.2400,0.738
57.2800,0.771
57.3200,0.758
57.3600,0.761
57.4000,0.728
57.4400,0.751
57.4800,0.766
57.5200,0.752
57.5600,0.732
57.6000,0.741
57.6400,0.814
57.6800,0.798
57.7200,0.780
57.7600,0.779
57.8000,0.815
57.8400,0.801
57.8800,0.799
57.9200,0.734
57.9600,0.740
58.0000,0.819
58.0400,0.737
58.0800,0.715
58.1200,0.753
58.1600,0.707
58.2000,0.776
58.2400,0.767
58.2800,0.745
58.3200,0.736
58.3600,0.744
58.4000,0.758
58.4400,0.779
58.4800,0.744
58.5200,0.785
58.5600,0.753
58.6000,0.748
58.6400,0.738
58.6800,0.733
58.7200,0.781
58.7600,0.759
58.8000,0.758
58.8400,0.758
58.8800,0.784
58.9200,0.762
58.9600,0.759
59.0000,0.779
59.0400,0.750
59.0800,0.737
59.1200,0.715
59.1600,0.780
59.2000,0.765
59.2400,0.752
59.2800,0.755
59.3200,0.693
59.3600,0.697
59.4000,0.764
59.4400,0.726
59.4800,0.701
59.5200,0.746
59.5600,0.716
59.6000,0.736
59.6400,0.768
59.6800,0.715
59.7200,0.715
59.7600,0.711
59.8000,0.739
59.8400,0.715
59.8800,0.779
59.9200,0.752
59.9600,0.741
60.0000,0.711
60.0400,0.722
60.0800,0.717
60.1200,0.753
60.1600,0.704
60.2000,0.755
60.2400,0.727
60.2800,0.718
60.3200,0.693
60.3600,0.737
60.4000,0.698
60.4400,0.748
60.4800,0.689
60.5200,0.754
60.5600,0.731
60.6000,0.727
60.6400,0.700
60.6800,0.752
60.7200,0.699
60.7600,0.702
60.8000,0.716
60.8400,0.736
60.8800,0.730
60.9200,0.767
60.9600,0.699
61.0000,0.756
61.0400,0.747
61.0800,0.694
61.1200,0.715
61.1600,0.702
61.2000,0.734
61.2400,0.703
61.2800,0.720
61.3200,0.731
61.3600,0.724
61.4000,0.715
61.4400,0.710
61.4800,0.724
61.5200,0.722
61.5600,0.704
61.6000,0.750
61.6400,0.784
61.6800,0.791
61.7200,0.732
61.7600,0.695
61.8000,0.699
61.8400,0.735
61.8800,0.705
61.9200,0.712
61.9600,0.715
62.0000,0.720
62.0400,0.704
62.0800,0.736
62.1200,0.714
62.1600,0.679
62.2000,0.743
62.2400,0.678
62.2800,0.698
62.3200,0.728
62.3600,0.701
62.4000,0.679
62.4400,0.734
62.4800,0.716
62.5200,0.722
62.5600,0.676
62.6000,0.698
62.6400,0.659
62.6800,0.676
62.7200,0.703
62.7600,0.683
62.8000,0.727
62.8400,0.734
62.8800,0.674
62.9200,0.704
62.9600,0.684
63.0000,0.676
63.0400,0.673
63.0800,0.741
63.1200,0.713
63.1600,0.736
63.2000,0.681
63.2400,0.643
63.2800,0.679
63.3200,0.671
63.3600,0.693
63.4000,0.695
63.4400,0.743
63.4800,0.729
63.5200,0.717
63.5600,0.706
63.6000,0.676
63.6400,0.713
63.6800,0.736
63.7200,0.729
63.7600,0.768
63.8000,0.723
63.8400,0.725
63.8800,0.699
63.9200,0.770
63.9600,0.726
64.0000,0.727
64.0400,0.699
64.0800,0.746
64.1200,0.733
64.1600,0.726
64.2000,0.733
64.2400,0.724
64.2800,0.748
64.3200,0.722
64.3600,0.788
64.4000,0.742
64.4400,0.703
64.4800,0.743
64.5200,0.768
64.5600,0.723
64.6000,0.779
64.6400,0.721
64.6800,0.782
64.7200,0.806
64.7600,0.747
64.8000,0.741
64.8400,0.720
64.8800,0.766
64.9200,0.692
64.9600,0.734
65.0000,0.772
65.0400,0.749
65.0800,0.779
65.1200,0.776
65.1600,0.766
65.2000,0.780
65.2400,0.798
65.2800,0.807
65.3200,0.792
65.3600,0.771
65.4000,0.741
65.4400,0.775
65.4800,0.762
65.5200,0.810
65.5600,0.768
65.6000,0.803
65.6400,0.772
65.6800,0.841
65.7200,0.770
65.7600,0.861
65.8000,0.776
65.8400,0.846
65.8800,0.887
65.9200,0.799
65.9600,0.853
66.0000,0.842
66.0400,0.858
66.0800,0.828
66.1200,0.871
66.1600,0.872
66.2000,0.872
66.2400,0.882
66.2800,0.896
66.3200,0.963
66.3600,0.904
66.4000,0.910
66.4400,0.959
66.4800,0.971
66.5200,0.974
66.5600,1.013
66.6000,0.987
66.6400,0.981
66.6800,0.983
66.7200,1.014
66.7600,1.007
66.8000,1.000
66.8400,1.082
66.8800,1.035
66.9200,1.062
66.9600,1.119
67.0000,1.206
67.0400,1.142
67.0800,1.146
67.1200,1.159
67.1600,1.191
67.2000,1.205
67.2400,1.237
67.2800,1.254
67.3200,1.270
67.3600,1.324
67.4000,1.238
67.4400,1.342
67.4800,1.378
67.5200,1.329
67.5600,1.386
67.6000,1.422
67.6400,1.466
67.6800,1.425
67.7200,1.498
67.7600,1.474
67.8000,1.565
67.8400,1.655
67.8800,1.637
67.9200,1.762
67.9600,1.718
68.0000,1.738
68.0400,1.788
68.0800,1.827
68.1200,1.916
68.1600,1.927
68.2000,2.023
68.2400,2.141
68.2800,2.192
68.3200,2.273
68.3600,2.291
68.4000,2.425
68.4400,2.520
68.4800,2.595
68.5200,2.758
68.5600,3.006
68.6000,3.239
68.6400,3.602
68.6800,4.484
68.7200,5.823
68.7600,7.099
68.8000,7.935
68.8400,7.747
68.8800,8.713
68.9200,10.682
68.9600,15.468
69.0000,27.495
69.0400,90.806
69.0800,375.874
69.1200,483.945
69.1600,204.598
69.2000,56.125
69.2400,70.608
69.2800,210.407
69.3200,247.292
69.3600,103.315
69.4000,27.285
69.4400,13.912
69.4800,9.698
69.5200,7.682
69.5600,6.343
69.6000,5.287
69.6400,4.689
69.6800,4.327
69.7200,3.882
69.7600,3.606
69.8000,3.350
69.8400,3.006
69.8800,2.931
69.9200,2.781
69.9600,2.649
70.0000,2.579
70.0400,2.392
70.0800,2.381
70.1200,2.282
70.1600,2.145
70.2000,2.118
70.2400,2.035
70.2800,2.009
70.3200,1.907
70.3600,1.845
70.4000,1.769
70.4400,1.763
70.4800,1.699
70.5200,1.667
70.5600,1.569
70.6000,1.524
70.6400,1.494
70.6800,1.498
70.7200,1.459
70.7600,1.390
70.8000,1.364
70.8400,1.343
70.8800,1.314
70.9200,1.199
70.9600,1.235
71.0000,1.235
71.0400,1.251
71.0800,1.175
71.1200,1.143
71.1600,1.152
71.2000,1.127
71.2400,1.083
71.2800,1.067
71.3200,1.000
71.3600,1.068
71.4000,1.035
71.4400,0.985
71.4800,0.976
71.5200,0.886
71.5600,0.895
71.6000,0.935
71.6400,0.920
71.6800,0.844
71.7200,0.872
71.7600,0.822
71.8000,0.812
71.8400,0.842
71.8800,0.831
71.9200,0.850
71.9600,0.742
72.0000,0.794
72.0400,0.811
72.0800,0.797
72.1200,0.782
72.1600,0.733
72.2000,0.734
72.2400,0.723
72.2800,0.724
72.3200,0.735
72.3600,0.741
72.4000,0.687
72.4400,0.665
72.4800,0.675
72.5200,0.658
72.5600,0.635
72.6000,0.670
72.6400,0.642
72.6800,0.647
72.7200,0.607
72.7600,0.623
72.8000,0.613
72.8400,0.583
72.8800,0.633
72.9200,0.620
72.9600,0.609
73.0000,0.564
73.0400,0.580
73.0800,0.552
73.1200,0.576
73.1600,0.586
73.2000,0.534
73.2400,0.553
73.2800,0.529
73.3200,0.562
73.3600,0.535
73.4000,0.579
73.4400,0.557
73.4800,0.571
73.5200,0.533
73.5600,0.518
73.6000,0.472
73.6400,0.509
73.6800,0.520
73.7200,0.517
73.7600,0.508
73.8000,0.495
73.8400,0.485
73.8800,0.488
73.9200,0.504
73.9600,0.504
74.0000,0.487
74.0400,0.487
74.0800,0.463
74.1200,0.502
74.1600,0.511
74.2000,0.476
74.2400,0.476
74.2800,0.450
74.3200,0.455
74.3600,0.489
74.4000,0.448
74.4400,0.484
74.4800,0.460
74.5200,0.474
74.5600,0.453
74.6000,0.481
74.6400,0.461
74.6800,0.416
74.7200,0.472
74.7600,0.447
74.8000,0.488
74.8400,0.469
74.8800,0.463
74.9200,0.453
74.9600,0.478
75.0000,0.431
75.0400,0.463
75.0800,0.487
75.1200,0.447
75.1600,0.438
75.2000,0.421
75.2400,0.422
75.2800,0.428
75.3200,0.420
75.3600,0.434
75.4000,0.402
75.4400,0.422
75.4800,0.398
75.5200,0.418
75.5600,0.367
75.6000,0.415
75.6400,0.420
75.6800,0.385
75.7200,0.429
75.7600,0.403
75.8000,0.404
75.8400,0.386
75.8800,0.392
75.9200,0.392
75.9600,0.418
76.0000,0.386
76.0400,0.419
76.0800,0.409
76.1200,0.380
76.1600,0.373
76.2000,0.402
76.2400,0.411
76.2800,0.372
76.3200,0.394
76.3600,0.403
76.4000,0.400
76.4400,0.393
76.4800,0.404
76.5200,0.388
76.5600,0.398
76.6000,0.366
76.6400,0.394
76.6800,0.402
76.7200,0.385
76.7600,0.413
76.8000,0.397
76.8400,0.415
76.8800,0.393
76.9200,0.391
76.9600,0.402
77.0000,0.392
77.0400,0.396
77.0800,0.368
77.1200,0.395
77.1600,0.368
77.2000,0.400
77.2400,0.400
77.2800,0.415
77.3200,0.406
77.3600,0.389
77.4000,0.408
77.4400,0.406
77.4800,0.395
77.5200,0.409
77.5600,0.389
77.6000,0.381
77.6400,0.404
77.6800,0.383
77.7200,0.372
77.7600,0.388
77.8000,0.365
77.8400,0.367
77.8800,0.334
77.9200,0.362
77.9600,0.381
78.0000,0.394
78.0400,0.367
78.0800,0.386
78.1200,0.408
78.1600,0.373
78.2000,0.388
78.2400,0.385
78.2800,0.338
78.3200,0.363
78.3600,0.334
78.4000,0.350
78.4400,0.385
78.4800,0.372
78.5200,0.351
78.5600,0.360
78.6000,0.357
78.6400,0.376
78.6800,0.346
78.7200,0.303
78.7600,0.341
78.8000,0.379
78.8400,0.354
78.8800,0.371
78.9200,0.339
78.9600,0.345
79.0000,0.351
79.0400,0.334
79.0800,0.335
79.1200,0.331
79.1600,0.357
79.2000,0.351
79.2400,0.316
79.2800,0.338
79.3200,0.329
79.3600,0.360
79.4000,0.336
79.4400,0.347
79.4800,0.318
79.5200,0.337
79.5600,0.334
79.6000,0.334
79.6400,0.303
79.6800,0.332
79.7200,0.324
79.7600,0.352
79.8000,0.306
79.8400,0.322
79.8800,0.339
79.9200,0.304
79.9600,0.359
80.0000,0.355
