theta,intensity
5.0000,5.992
5.0400,5.951
5.0800,5.742
5.1200,5.857
5.1600,5.788
5.2000,5.612
5.2400,5.647
5.2800,5.576
5.3200,5.615
5.3600,5.543
5.4000,5.457
5.4400,5.466
5.4800,5.217
5.5200,5.263
5.5600,5.186
5.6000,5.237
5.6400,4.965
5.6800,5.009
5.7200,4.883
5.7600,4.867
5.8000,4.887
5.8400,4.837
5.8800,4.700
5.9200,4.588
5.9600,4.653
6.0000,4.467
6.0400,4.450
6.0800,4.453
6.1200,4.404
6.1600,4.287
6.2000,4.379
6.2400,4.329
6.2800,4.342
6.3200,4.205
6.3600,4.156
6.4000,4.215
6.4400,4.268
6.4800,4.323
6.5200,4.171
6.5600,4.314
6.6000,4.291
6.6400,4.150
6.6800,4.256
6.7200,4.262
6.7600,4.292
6.8000,4.227
6.8400,4.209
6.8800,4.128
6.9200,4.141
6.9600,4.311
7.0000,4.210
7.0400,4.086
7.0800,4.120
7.1200,4.152
7.1600,4.150
7.2000,4.241
7.2400,4.121
7.2800,4.133
7.3200,4.092
7.3600,4.213
7.4000,4.043
7.4400,4.165
7.4800,4.112
7.5200,4.090
7.5600,4.072
7.6000,4.087
7.6400,3.992
7.6800,4.035
7.7200,3.981
7.7600,4.054
7.8000,4.102
7.8400,4.049
7.8800,3.962
7.9200,3.965
7.9600,3.986
8.0000,3.899
8.0400,3.979
8.0800,4.057
8.1200,4.055
8.1600,4.020
8.2000,3.971
8.2400,3.977
8.2800,4.053
8.3200,3.992
8.3600,4.023
8.4000,3.940
8.4400,3.947
8.4800,3.873
8.5200,3.979
8.5600,3.933
8.6000,3.977
8.6400,3.963
8.6800,4.041
8.7200,3.989
8.7600,3.933
8.8000,3.856
8.8400,3.833
8.8800,3.929
8.9200,3.847
8.9600,3.742
9.0000,3.897
9.0400,3.903
9.0800,3.991
9.1200,3.881
9.1600,3.966
9.2000,3.914
9.2400,3.863
9.2800,3.900
9.3200,3.861
9.3600,3.752
9.4000,3.769
9.4400,3.770
9.4800,3.798
9.5200,3.774
9.5600,3.784
9.6000,3.816
9.6400,3.741
9.6800,3.838
9.7200,3.802
9.7600,3.764
9.8000,3.754
9.8400,3.872
9.8800,3.790
9.9200,3.860
9.9600,3.790
10.0000,3.738
10.0400,3.818
10.0800,3.711
10.1200,3.654
10.1600,3.759
10.2000,3.817
10.2400,3.736
10.2800,3.710
10.3200,3.723
10.3600,3.860
10.4000,3.776
10.4400,3.722
10.4800,3.836
10.5200,3.756
10.5600,3.727
10.6000,3.702
10.6400,3.647
10.6800,3.749
10.7200,3.540
10.7600,3.656
10.8000,3.705
10.8400,3.678
10.8800,3.704
10.9200,3.729
10.9600,3.689
11.0000,3.682
11.0400,3.594
11.0800,3.683
11.1200,3.698
11.1600,3.616
11.2000,3.655
11.2400,3.671
11.2800,3.696
11.3200,3.771
11.3600,3.752
11.4000,3.654
11.4400,3.577
11.4800,3.512
11.5200,3.640
11.5600,3.632
11.6000,3.610
11.6400,3.598
11.6800,3.558
11.7200,3.483
11.7600,3.628
11.8000,3.555
11.8400,3.589
11.8800,3.616
11.9200,3.563
11.9600,3.487
12.0000,3.574
12.0400,3.562
12.0800,3.582
12.1200,3.541
12.1600,3.545
12.2000,3.725
12.2400,3.628
12.2800,3.497
12.3200,3.439
12.3600,3.481
12.4000,3.517
12.4400,3.467
12.4800,3.469
12.5200,3.470
12.5600,3.621
12.6000,3.549
12.6400,3.475
12.6800,3.528
12.7200,3.503
12.7600,3.571
12.8000,3.503
12.8400,3.437
12.8800,3.508
12.9200,3.435
12.9600,3.451
13.0000,3.364
13.0400,3.379
13.0800,3.496
13.1200,3.450
13.1600,3.514
13.2000,3.479
13.2400,3.512
13.2800,3.445
13.3200,3.464
13.3600,3.467
13.4000,3.393
13.4400,3.465
13.4800,3.379
13.5200,3.411
13.5600,3.325
13.6000,3.364
13.6400,3.317
13.6800,3.443
13.7200,3.431
13.7600,3.331
13.8000,3.360
13.8400,3.439
13.8800,3.401
13.9200,3.379
13.9600,3.351
14.0000,3.310
14.0400,3.316
14.0800,3.327
14.1200,3.302
14.1600,3.431
14.2000,3.460
14.2400,3.400
14.2800,3.314
14.3200,3.345
14.3600,3.418
14.4000,3.308
14.4400,3.289
14.4800,3.294
14.5200,3.340
14.5600,3.334
14.6000,3.337
14.6400,3.331
14.6800,3.265
14.7200,3.247
14.7600,3.344
14.8000,3.275
14.8400,3.258
14.8800,3.400
14.9200,3.292
14.9600,3.250
15.0000,3.302
15.0400,3.217
15.0800,3.305
15.1200,3.238
15.1600,3.236
15.2000,3.260
15.2400,3.197
15.2800,3.244
15.3200,3.175
15.3600,3.137
15.4000,3.281
15.4400,3.249
15.4800,3.174
15.5200,3.156
15.5600,3.137
15.6000,3.207
15.6400,3.136
15.6800,3.181
15.7200,3.216
15.7600,3.186
15.8000,3.173
15.8400,3.270
15.8800,3.158
15.9200,3.113
15.9600,3.231
16.0000,3.168
16.0400,3.156
16.0800,3.115
16.1200,3.175
16.1600,3.208
16.2000,3.200
16.2400,3.173
16.2800,3.112
16.3200,3.181
16.3600,3.184
16.4000,3.141
16.4400,3.199
16.4800,3.126
16.5200,3.153
16.5600,3.128
16.6000,3.219
16.6400,3.185
16.6800,3.206
16.7200,3.058
16.7600,3.245
16.8000,3.061
16.8400,3.071
16.8800,3.099
16.9200,3.109
16.9600,3.021
17.0000,3.157
17.0400,3.013
17.0800,3.139
17.1200,3.081
17.1600,3.100
17.2000,3.164
17.2400,3.104
17.2800,2.987
17.3200,3.040
17.3600,3.102
17.4000,3.067
17.4400,3.100
17.4800,3.003
17.5200,2.969
17.5600,3.057
17.6000,2.993
17.6400,3.041
17.6800,3.051
17.7200,3.040
17.7600,3.015
17.8000,3.104
17.8400,3.059
17.8800,3.076
17.9200,3.007
17.9600,2.938
18.0000,2.954
18.0400,2.922
18.0800,3.026
18.1200,3.019
18.1600,2.943
18.2000,3.045
18.2400,2.994
18.2800,2.960
18.3200,2.908
18.3600,3.018
18.4000,3.013
18.4400,3.043
18.4800,2.965
18.5200,2.983
18.5600,2.946
18.6000,3.000
18.6400,2.917
18.6800,2.973
18.7200,2.863
18.7600,2.830
18.8000,2.992
18.8400,2.917
18.8800,2.910
18.9200,2.981
18.9600,2.939
19.0000,2.838
19.0400,2.974
19.0800,2.905
19.1200,2.879
19.1600,2.952
19.2000,2.920
19.2400,2.924
19.2800,2.873
19.3200,2.889
19.3600,2.942
19.4000,3.017
19.4400,2.912
19.4800,2.889
19.5200,2.854
19.5600,2.822
19.6000,2.852
19.6400,2.902
19.6800,2.837
19.7200,2.836
19.7600,2.766
19.8000,2.908
19.8400,2.825
19.8800,2.887
19.9200,2.826
19.9600,2.805
20.0000,2.836
20.0400,2.812
20.0800,2.879
20.1200,2.788
20.1600,2.822
20.2000,2.818
20.2400,2.782
20.2800,2.856
20.3200,2.778
20.3600,2.769
20.4000,2.736
20.4400,2.766
20.4800,2.788
20.5200,2.862
20.5600,2.799
20.6000,2.791
20.6400,2.762
20.6800,2.685
20.7200,2.834
20.7600,2.838
20.8000,2.757
20.8400,2.733
20.8800,2.732
20.9200,2.762
20.9600,2.794
21.0000,2.688
21.0400,2.786
21.0800,2.811
21.1200,2.680
21.1600,2.698
21.2000,2.715
21.2400,2.803
21.2800,2.775
21.3200,2.758
21.3600,2.769
21.4000,2.684
21.4400,2.702
21.4800,2.647
21.5200,2.678
21.5600,2.687
21.6000,2.643
21.6400,2.666
21.6800,2.695
21.7200,2.791
21.7600,2.713
21.8000,2.661
21.8400,2.641
21.8800,2.674
21.9200,2.685
21.9600,2.652
22.0000,2.667
22.0400,2.664
22.0800,2.663
22.1200,2.599
22.1600,2.651
22.2000,2.653
22.2400,2.653
22.2800,2.626
22.3200,2.613
22.3600,2.542
22.4000,2.565
22.4400,2.590
22.4800,2.590
22.5200,2.676
22.5600,2.613
22.6000,2.616
22.6400,2.646
22.6800,2.578
22.7200,2.570
22.7600,2.578
22.8000,2.506
22.8400,2.633
22.8800,2.607
22.9200,2.524
22.9600,2.576
23.0000,2.583
23.0400,2.485
23.0800,2.517
23.1200,2.619
23.1600,2.533
23.2000,2.566
23.2400,2.626
23.2800,2.575
23.3200,2.606
23.3600,2.499
23.4000,2.548
23.4400,2.628
23.4800,2.600
23.5200,2.539
23.5600,2.577
23.6000,2.522
23.6400,2.580
23.6800,2.595
23.7200,2.516
23.7600,2.579
23.8000,2.493
23.8400,2.331
23.8800,2.503
23.9200,2.546
23.9600,2.472
24.0000,2.494
24.0400,2.523
24.0800,2.449
24.1200,2.398
24.1600,2.497
24.2000,2.445
24.2400,2.465
24.2800,2.490
24.3200,2.464
24.3600,2.480
24.4000,2.457
24.4400,2.405
24.4800,2.384
24.5200,2.519
24.5600,2.508
24.6000,2.446
24.6400,2.406
24.6800,2.420
24.7200,2.445
24.7600,2.456
24.8000,2.468
24.8400,2.440
24.8800,2.453
24.9200,2.428
24.9600,2.486
25.0000,2.308
25.0400,2.374
25.0800,2.320
25.1200,2.421
25.1600,2.415
25.2000,2.305
25.2400,2.373
25.2800,2.291
25.3200,2.394
25.3600,2.378
25.4000,2.447
25.4400,2.447
25.4800,2.405
25.5200,2.305
25.5600,2.342
25.6000,2.322
25.6400,2.331
25.6800,2.366
25.7200,2.312
25.7600,2.394
25.8000,2.312
25.8400,2.253
25.8800,2.378
25.9200,2.288
25.9600,2.307
26.0000,2.302
26.0400,2.246
26.0800,2.290
26.1200,2.344
26.1600,2.367
26.2000,2.329
26.2400,2.247
26.2800,2.216
26.3200,2.272
26.3600,2.232
26.4000,2.350
26.4400,2.293
26.4800,2.313
26.5200,2.280
26.5600,2.300
26.6000,2.268
26.6400,2.351
26.6800,2.180
26.7200,2.284
26.7600,2.251
26.8000,2.216
26.8400,2.177
26.8800,2.186
26.9200,2.186
26.9600,2.307
27.0000,2.278
27.0400,2.281
27.0800,2.179
27.1200,2.205
27.1600,2.276
27.2000,2.241
27.2400,2.194
27.2800,2.195
27.3200,2.188
27.3600,2.087
27.4000,2.110
27.4400,2.146
27.4800,2.166
27.5200,2.233
27.5600,2.176
27.6000,2.164
27.6400,2.139
27.6800,2.206
27.7200,2.166
27.7600,2.145
27.8000,2.177
27.8400,2.121
27.8800,2.121
27.9200,2.220
27.9600,2.140
28.0000,2.142
28.0400,2.166
28.0800,2.066
28.1200,2.058
28.1600,2.076
28.2000,2.110
28.2400,2.160
28.2800,2.124
28.3200,2.139
28.3600,2.154
28.4000,2.092
28.4400,2.132
28.4800,2.034
28.5200,2.075
28.5600,2.036
28.6000,2.070
28.6400,2.036
28.6800,2.121
28.7200,2.039
28.7600,2.038
28.8000,2.106
28.8400,2.059
28.8800,2.150
28.9200,2.141
28.9600,2.106
29.0000,2.020
29.0400,2.046
29.0800,2.054
29.1200,2.003
29.1600,2.003
29.2000,1.968
29.2400,1.987
29.2800,2.033
29.3200,1.973
29.3600,1.997
29.4000,2.033
29.4400,2.023
29.4800,2.010
29.5200,1.978
29.5600,2.018
29.6000,2.019
29.6400,2.004
29.6800,1.993
29.7200,1.945
29.7600,1.968
29.8000,1.914
29.8400,1.960
29.8800,1.968
29.9200,1.954
29.9600,2.007
30.0000,1.915
30.0400,1.993
30.0800,2.000
30.1200,1.992
30.1600,1.942
30.2000,1.996
30.2400,1.950
30.2800,1.923
30.3200,1.968
30.3600,1.988
30.4000,1.960
30.4400,1.941
30.4800,1.915
30.5200,1.939
30.5600,2.016
30.6000,1.898
30.6400,1.987
30.6800,1.888
30.7200,1.906
30.7600,1.973
30.8000,1.919
30.8400,1.888
30.8800,1.898
30.9200,1.942
30.9600,1.811
31.0000,1.871
31.0400,1.852
31.0800,1.888
31.1200,1.790
31.1600,1.817
31.2000,1.863
31.2400,1.892
31.2800,1.814
31.3200,1.873
31.3600,1.928
31.4000,1.921
31.4400,1.829
31.4800,1.819
31.5200,1.855
31.5600,1.836
31.6000,1.845
31.6400,1.849
31.6800,1.828
31.7200,1.816
31.7600,1.886
31.8000,1.863
31.8400,1.849
31.8800,1.744
31.9200,1.782
31.9600,1.834
32.0000,1.846
32.0400,1.795
32.0800,1.833
32.1200,1.811
32.1600,1.843
32.2000,1.813
32.2400,1.862
32.2800,1.779
32.3200,1.833
32.3600,1.719
32.4000,1.753
32.4400,1.835
32.4800,1.767
32.5200,1.769
32.5600,1.820
32.6000,1.783
32.6400,1.773
32.6800,1.846
32.7200,1.836
32.7600,1.833
32.8000,1.718
32.8400,1.767
32.8800,1.976
32.9200,3.841
32.9600,6.365
33.0000,4.464
33.0400,2.182
33.0800,1.871
33.1200,1.830
33.1600,1.723
33.2000,1.678
33.2400,1.838
33.2800,1.668
33.3200,1.693
33.3600,1.664
33.4000,1.648
33.4400,1.726
33.4800,1.662
33.5200,1.695
33.5600,1.691
33.6000,1.710
33.6400,1.632
33.6800,1.699
33.7200,1.661
33.7600,1.647
33.8000,1.667
33.8400,1.613
33.8800,1.691
33.9200,1.653
33.9600,1.687
34.0000,1.698
34.0400,1.631
34.0800,1.658
34.1200,1.646
34.1600,1.611
34.2000,1.730
34.2400,1.626
34.2800,1.645
34.3200,1.573
34.3600,1.616
34.4000,1.593
34.4400,1.617
34.4800,1.700
34.5200,1.611
34.5600,1.683
34.6000,1.657
34.6400,1.658
34.6800,1.662
34.7200,1.603
34.7600,1.591
34.8000,1.647
34.8400,1.585
34.8800,1.649
34.9200,1.647
34.9600,1.606
35.0000,1.658
35.0400,1.633
35.0800,1.628
35.1200,1.621
35.1600,1.608
35.2000,1.558
35.2400,1.584
35.2800,1.661
35.3200,1.597
35.3600,1.648
35.4000,1.603
35.4400,1.546
35.4800,1.562
35.5200,1.513
35.5600,1.551
35.6000,1.573
35.6400,1.582
35.6800,1.583
35.7200,1.548
35.7600,1.521
35.8000,1.550
35.8400,1.578
35.8800,1.488
35.9200,1.540
35.9600,1.543
36.0000,1.600
36.0400,1.522
36.0800,1.676
36.1200,1.531
36.1600,1.492
36.2000,1.575
36.2400,1.464
36.2800,1.525
36.3200,1.527
36.3600,1.504
36.4000,1.597
36.4400,1.501
36.4800,1.562
36.5200,1.564
36.5600,1.582
36.6000,1.495
36.6400,1.465
36.6800,1.528
36.7200,1.547
36.7600,1.502
36.8000,1.534
36.8400,1.463
36.8800,1.523
36.9200,1.500
36.9600,1.558
37.0000,1.506
37.0400,1.591
37.0800,1.510
37.1200,1.472
37.1600,1.509
37.2000,1.484
37.2400,1.523
37.2800,1.571
37.3200,1.560
37.3600,1.472
37.4000,1.482
37.4400,1.557
37.4800,1.502
37.5200,1.520
37.5600,1.504
37.6000,1.492
37.6400,1.500
37.6800,1.566
37.7200,1.521
37.7600,1.515
37.8000,1.467
37.8400,1.493
37.8800,1.533
37.9200,1.491
37.9600,1.422
38.0000,1.532
38.0400,1.524
38.0800,1.591
38.1200,1.590
38.1600,1.610
38.2000,1.593
38.2400,1.547
38.2800,1.547
38.3200,1.543
38.3600,1.542
38.4000,1.634
38.4400,1.663
38.4800,1.573
38.5200,1.657
38.5600,1.734
38.6000,1.731
38.6400,1.677
38.6800,1.751
38.7200,1.771
38.7600,1.870
38.8000,1.870
38.8400,2.071
38.8800,2.096
38.9200,2.296
38.9600,2.440
39.0000,2.644
39.0400,2.903
39.0800,3.327
39.1200,3.830
39.1600,4.628
39.2000,5.350
39.2400,6.341
39.2800,7.772
39.3200,9.088
39.3600,10.602
39.4000,12.215
39.4400,13.893
39.4800,15.295
39.5200,16.160
39.5600,16.173
39.6000,15.556
39.6400,14.387
39.6800,12.774
39.7200,10.908
39.7600,9.274
39.8000,7.929
39.8400,6.637
39.8800,5.630
39.9200,4.877
39.9600,4.129
40.0000,3.657
40.0400,3.307
40.0800,2.919
40.1200,2.600
40.1600,2.458
40.2000,2.279
40.2400,2.203
40.2800,2.051
40.3200,1.903
40.3600,1.861
40.4000,1.833
40.4400,1.701
40.4800,1.639
40.5200,1.705
40.5600,1.611
40.6000,1.602
40.6400,1.558
40.6800,1.557
40.7200,1.477
40.7600,1.512
40.8000,1.483
40.8400,1.429
40.8800,1.396
40.9200,1.405
40.9600,1.413
41.0000,1.409
41.0400,1.348
41.0800,1.387
41.1200,1.368
41.1600,1.368
41.2000,1.357
41.2400,1.323
41.2800,1.309
41.3200,1.291
41.3600,1.241
41.4000,1.271
41.4400,1.318
41.4800,1.267
41.5200,1.259
41.5600,1.294
41.6000,1.320
41.6400,1.341
41.6800,1.316
41.7200,1.251
41.7600,1.221
41.8000,1.320
41.8400,1.249
41.8800,1.224
41.9200,1.224
41.9600,1.183
42.0000,1.215
42.0400,1.232
42.0800,1.268
42.1200,1.189
42.1600,1.168
42.2000,1.232
42.2400,1.251
42.2800,1.217
42.3200,1.208
42.3600,1.199
42.4000,1.180
42.4400,1.201
42.4800,1.204
42.5200,1.200
42.5600,1.180
42.6000,1.148
42.6400,1.186
42.6800,1.162
42.7200,1.159
42.7600,1.163
42.8000,1.165
42.8400,1.168
42.8800,1.243
42.9200,1.177
42.9600,1.192
43.0000,1.199
43.0400,1.159
43.0800,1.157
43.1200,1.156
43.1600,1.133
43.2000,1.107
43.2400,1.149
43.2800,1.150
43.3200,1.141
43.3600,1.140
43.4000,1.187
43.4400,1.130
43.4800,1.166
43.5200,1.145
43.5600,1.168
43.6000,1.217
43.6400,1.153
43.6800,1.143
43.7200,1.176
43.7600,1.125
43.8000,1.112
43.8400,1.075
43.8800,1.185
43.9200,1.144
43.9600,1.112
44.0000,1.115
44.0400,1.137
44.0800,1.190
44.1200,1.179
44.1600,1.087
44.2000,1.121
44.2400,1.162
44.2800,1.133
44.3200,1.147
44.3600,1.146
44.4000,1.140
44.4400,1.129
44.4800,1.100
44.5200,1.113
44.5600,1.150
44.6000,1.147
44.6400,1.176
44.6800,1.135
44.7200,1.169
44.7600,1.223
44.8000,1.181
44.8400,1.170
44.8800,1.227
44.9200,1.182
44.9600,1.240
45.0000,1.266
45.0400,1.244
45.0800,1.221
45.1200,1.296
45.1600,1.265
45.2000,1.316
45.2400,1.406
45.2800,1.423
45.3200,1.543
45.3600,1.608
45.4000,1.585
45.4400,1.680
45.4800,1.853
45.5200,1.966
45.5600,2.172
45.6000,2.300
45.6400,2.520
45.6800,2.789
45.7200,3.131
45.7600,3.418
45.8000,3.665
45.8400,4.144
45.8800,4.370
45.9200,4.676
45.9600,5.068
46.0000,5.220
46.0400,5.233
46.0800,5.299
46.1200,4.978
46.1600,4.623
46.2000,4.442
46.2400,4.042
46.2800,3.690
46.3200,3.304
46.3600,3.006
46.4000,2.760
46.4400,2.403
46.4800,2.260
46.5200,2.047
46.5600,1.880
46.6000,1.790
46.6400,1.585
46.6800,1.589
46.7200,1.484
46.7600,1.407
46.8000,1.362
46.8400,1.332
46.8800,1.275
46.9200,1.167
46.9600,1.076
47.0000,1.189
47.0400,1.152
47.0800,1.128
47.1200,1.048
47.1600,1.070
47.2000,1.059
47.2400,1.040
47.2800,1.023
47.3200,1.013
47.3600,1.017
47.4000,0.967
47.4400,0.981
47.4800,0.997
47.5200,0.972
47.5600,1.009
47.6000,0.944
47.6400,0.985
47.6800,0.948
47.7200,0.934
47.7600,0.944
47.8000,0.937
47.8400,1.006
47.8800,0.920
47.9200,0.909
47.9600,0.945
48.0000,0.930
48.0400,0.927
48.0800,0.890
48.1200,0.938
48.1600,0.939
48.2000,0.927
48.2400,0.931
48.2800,0.914
48.3200,0.921
48.3600,0.908
48.4000,0.924
48.4400,0.934
48.4800,0.916
48.5200,0.888
48.5600,0.849
48.6000,0.850
48.6400,0.853
48.6800,0.878
48.7200,0.901
48.7600,0.814
48.8000,0.805
48.8400,0.889
48.8800,0.894
48.9200,0.927
48.9600,0.867
49.0000,0.902
49.0400,0.862
49.0800,0.834
49.1200,0.811
49.1600,0.861
49.2000,0.843
49.2400,0.839
49.2800,0.810
49.3200,0.847
49.3600,0.865
49.4000,0.838
49.4400,0.813
49.4800,0.811
49.5200,0.856
49.5600,0.866
49.6000,0.835
49.6400,0.810
49.6800,0.855
49.7200,0.844
49.7600,0.871
49.8000,0.883
49.8400,0.881
49.8800,0.908
49.9200,0.820
49.9600,0.844
50.0000,0.848
50.0400,0.797
50.0800,0.815
50.1200,0.798
50.1600,0.882
50.2000,0.860
50.2400,0.826
50.2800,0.830
50.3200,0.799
50.3600,0.807
50.4000,0.811
50.4400,0.822
50.4800,0.817
50.5200,0.809
50.5600,0.813
50.6000,0.815
50.6400,0.800
50.6800,0.817
50.7200,0.775
50.7600,0.820
50.8000,0.807
50.8400,0.818
50.8800,0.867
50.9200,0.802
50.9600,0.817
51.0000,0.833
51.0400,0.803
51.0800,0.814
51.1200,0.775
51.1600,0.819
51.2000,0.833
51.2400,0.815
51.2800,0.821
51.3200,0.824
51.3600,0.843
51.4000,0.836
51.4400,0.747
51.4800,0.742
51.5200,0.787
51.5600,0.768
51.6000,0.785
51.6400,0.761
51.6800,0.753
51.7200,0.788
51.7600,0.782
51.8000,0.776
51.8400,0.762
51.8800,0.799
51.9200,0.788
51.9600,0.752
52.0000,0.754
52.0400,0.729
52.0800,0.786
52.1200,0.774
52.1600,0.768
52.2000,0.729
52.2400,0.780
52.2800,0.702
52.3200,0.725
52.3600,0.799
52.4000,0.777
52.4400,0.755
52.4800,0.762
52.5200,0.751
52.5600,0.772
52.6000,0.753
52.6400,0.797
52.6800,0.726
52.7200,0.703
52.7600,0.721
52.8000,0.731
52.8400,0.771
52.8800,0.751
52.9200,0.732
52.9600,0.765
53.0000,0.741
53.0400,0.744
53.0800,0.740
53.1200,0.723
53.1600,0.800
53.2000,0.742
53.2400,0.751
53.2800,0.758
53.3200,0.714
53.3600,0.792
53.4000,0.818
53.4400,0.742
53.4800,0.729
53.5200,0.745
53.5600,0.770
53.6000,0.727
53.6400,0.752
53.6800,0.730
53.7200,0.728
53.7600,0.779
53.8000,0.743
53.8400,0.702
53.8800,0.747
53.9200,0.744
53.9600,0.721
54.0000,0.663
54.0400,0.714
54.0800,0.674
54.1200,0.729
54.1600,0.754
54.2000,0.739
54.2400,0.705
54.2800,0.740
54.3200,0.739
54.3600,0.714
54.4000,0.717
54.4400,0.681
54.4800,0.719
54.5200,0.705
54.5600,0.736
54.6000,0.730
54.6400,0.731
54.6800,0.706
54.7200,0.690
54.7600,0.664
54.8000,0.706
54.8400,0.728
54.8800,0.685
54.9200,0.677
54.9600,0.692
55.0000,0.677
55.0400,0.696
55.0800,0.722
55.1200,0.678
55.1600,0.695
55.2000,0.690
55.2400,0.706
55.2800,0.715
55.3200,0.648
55.3600,0.665
55.4000,0.674
55.4400,0.685
55.4800,0.655
55.5200,0.637
55.5600,0.658
55.6000,0.685
55.6400,0.691
55.6800,0.659
55.7200,0.671
55.7600,0.704
55.8000,0.653
55.8400,0.695
55.8800,0.680
55.9200,0.708
55.9600,0.669
56.0000,0.680
56.0400,0.709
56.0800,0.686
56.1200,0.695
56.1600,0.663
56.2000,0.643
56.2400,0.623
56.2800,0.611
56.3200,0.651
56.3600,0.667
56.4000,0.703
56.4400,0.698
56.4800,0.687
56.5200,0.670
56.5600,0.659
56.6000,0.666
56.6400,0.640
56.6800,0.664
56.7200,0.644
56.7600,0.673
56.8000,0.634
56.8400,0.620
56.8800,0.677
56.9200,0.633
56.9600,0.623
57.0000,0.672
57.0400,0.695
57.0800,0.711
57.1200,0.654
57.1600,0.664
57.2000,0.689
57.2400,0.673
57.2800,0.629
57.3200,0.676
57.3600,0.644
57.4000,0.651
57.4400,0.666
57.4800,0.670
57.5200,0.650
57.5600,0.651
57.6000,0.605
57.6400,0.643
57.6800,0.649
57.7200,0.623
57.7600,0.613
57.8000,0.643
57.8400,0.645
57.8800,0.605
57.9200,0.639
57.9600,0.615
58.0000,0.626
58.0400,0.628
58.0800,0.652
58.1200,0.643
58.1600,0.674
58.2000,0.642
58.2400,0.665
58.2800,0.617
58.3200,0.650
58.3600,0.658
58.4000,0.600
58.4400,0.644
58.4800,0.647
58.5200,0.615
58.5600,0.623
58.6000,0.643
58.6400,0.596
58.6800,0.655
58.7200,0.616
58.7600,0.646
58.8000,0.643
58.8400,0.638
58.8800,0.616
58.9200,0.621
58.9600,0.594
59.0000,0.655
59.0400,0.597
59.0800,0.612
59.1200,0.585
59.1600,0.622
59.2000,0.605
59.2400,0.614
59.2800,0.627
59.3200,0.613
59.3600,0.593
59.4000,0.617
59.4400,0.617
59.4800,0.606
59.5200,0.650
59.5600,0.620
59.6000,0.663
59.6400,0.611
59.6800,0.569
59.7200,0.600
59.7600,0.609
59.8000,0.584
59.8400,0.607
59.8800,0.629
59.9200,0.597
59.9600,0.606
60.0000,0.611
60.0400,0.619
60.0800,0.670
60.1200,0.574
60.1600,0.597
60.2000,0.610
60.2400,0.634
60.2800,0.544
60.3200,0.618
60.3600,0.633
60.4000,0.594
60.4400,0.633
60.4800,0.596
60.5200,0.608
60.5600,0.585
60.6000,0.592
60.6400,0.553
60.6800,0.639
60.7200,0.574
60.7600,0.553
60.8000,0.553
60.8400,0.615
60.8800,0.592
60.9200,0.631
60.9600,0.580
61.0000,0.586
61.0400,0.549
61.0800,0.625
61.1200,0.588
61.1600,0.631
61.2000,0.606
61.2400,0.581
61.2800,0.600
61.3200,0.584
61.3600,0.589
61.4000,0.596
61.4400,0.573
61.4800,0.579
61.5200,0.570
61.5600,0.590
61.6000,0.603
61.6400,0.677
61.6800,0.710
61.7200,0.637
61.7600,0.567
61.8000,0.539
61.8400,0.522
61.8800,0.561
61.9200,0.623
61.9600,0.583
62.0000,0.564
62.0400,0.533
62.0800,0.600
62.1200,0.617
62.1600,0.563
62.2000,0.531
62.2400,0.574
62.2800,0.584
62.3200,0.576
62.3600,0.523
62.4000,0.557
62.4400,0.542
62.4800,0.589
62.5200,0.553
62.5600,0.567
62.6000,0.538
62.6400,0.567
62.6800,0.541
62.7200,0.603
62.7600,0.564
62.8000,0.547
62.8400,0.566
62.8800,0.526
62.9200,0.531
62.9600,0.561
63.0000,0.585
63.0400,0.570
63.0800,0.560
63.1200,0.569
63.1600,0.539
63.2000,0.587
63.2400,0.548
63.2800,0.556
63.3200,0.578
63.3600,0.587
63.4000,0.573
63.4400,0.519
63.4800,0.540
63.5200,0.579
63.5600,0.582
63.6000,0.543
63.6400,0.556
63.6800,0.589
63.7200,0.552
63.7600,0.543
63.8000,0.625
63.8400,0.558
63.8800,0.562
63.9200,0.550
63.9600,0.567
64.0000,0.592
64.0400,0.579
64.0800,0.614
64.1200,0.559
64.1600,0.570
64.2000,0.587
64.2400,0.533
64.2800,0.579
64.3200,0.548
64.3600,0.589
64.4000,0.597
64.4400,0.586
64.4800,0.540
64.5200,0.611
64.5600,0.599
64.6000,0.597
64.6400,0.573
64.6800,0.578
64.7200,0.639
64.7600,0.631
64.8000,0.639
64.8400,0.614
64.8800,0.643
64.9200,0.628
64.9600,0.629
65.0000,0.625
65.0400,0.612
65.0800,0.631
65.1200,0.647
65.1600,0.647
65.2000,0.652
65.2400,0.642
65.2800,0.669
65.3200,0.698
65.3600,0.641
65.4000,0.716
65.4400,0.662
65.4800,0.646
65.5200,0.666
65.5600,0.720
65.6000,0.702
65.6400,0.683
65.6800,0.710
65.7200,0.687
65.7600,0.743
65.8000,0.745
65.8400,0.730
65.8800,0.770
65.9200,0.790
65.9600,0.773
66.0000,0.825
66.0400,0.840
66.0800,0.825
66.1200,0.916
66.1600,0.866
66.2000,0.895
66.2400,0.929
66.2800,0.922
66.3200,1.010
66.3600,1.056
66.4000,1.089
66.4400,1.152
66.4800,1.207
66.5200,1.225
66.5600,1.262
66.6000,1.405
66.6400,1.523
66.6800,1.602
66.7200,1.676
66.7600,1.705
66.8000,1.800
66.8400,1.949
66.8800,2.035
66.9200,2.256
66.9600,2.392
67.0000,2.408
67.0400,2.413
67.0800,2.526
67.1200,2.677
67.1600,2.633
67.2000,2.629
67.2400,2.683
67.2800,2.583
67.3200,2.564
67.3600,2.384
67.4000,2.252
67.4400,2.166
67.4800,2.011
67.5200,1.959
67.5600,1.948
67.6000,1.841
67.6400,1.760
67.6800,1.772
67.7200,1.696
67.7600,1.696
67.8000,1.715
67.8400,1.710
67.8800,1.631
67.9200,1.698
67.9600,1.703
68.0000,1.726
68.0400,1.719
68.0800,1.707
68.1200,1.783
68.1600,1.785
68.2000,1.807
68.2400,1.827
68.2800,1.826
68.3200,2.027
68.3600,1.969
68.4000,1.966
68.4400,2.115
68.4800,2.279
68.5200,2.292
68.5600,2.430
68.6000,2.613
68.6400,2.805
68.6800,3.181
68.7200,3.996
68.7600,5.157
68.8000,6.304
68.8400,6.502
68.8800,6.532
68.9200,7.374
68.9600,9.780
69.0000,15.075
69.0400,29.393
69.0800,109.786
69.1200,376.080
69.1600,393.287
69.2000,138.211
69.2400,46.051
69.2800,77.025
69.3200,200.717
69.3600,196.258
69.4000,68.418
69.4400,20.170
69.4800,10.884
69.5200,7.742
69.5600,5.910
69.6000,5.084
69.6400,4.313
69.6800,3.907
69.7200,3.468
69.7600,3.235
69.8000,2.979
69.8400,2.766
69.8800,2.562
69.9200,2.458
69.9600,2.344
70.0000,2.237
70.0400,2.223
70.0800,2.043
70.1200,2.000
70.1600,1.951
70.2000,1.922
70.2400,1.813
70.2800,1.734
70.3200,1.635
70.3600,1.566
70.4000,1.612
70.4400,1.461
70.4800,1.537
70.5200,1.467
70.5600,1.372
70.6000,1.360
70.6400,1.341
70.6800,1.283
70.7200,1.264
70.7600,1.224
70.8000,1.206
70.8400,1.141
70.8800,1.126
70.9200,1.146
70.9600,1.073
71.0000,1.087
71.0400,1.041
71.0800,1.076
71.1200,1.031
71.1600,0.986
71.2000,0.910
71.2400,0.913
71.2800,0.927
71.3200,0.905
71.3600,0.916
71.4000,0.957
71.4400,0.891
71.4800,0.859
71.5200,0.847
71.5600,0.773
71.6000,0.777
71.6400,0.753
71.6800,0.743
71.7200,0.730
71.7600,0.762
71.8000,0.755
71.8400,0.716
71.8800,0.699
71.9200,0.664
71.9600,0.680
72.0000,0.691
72.0400,0.660
72.0800,0.645
72.1200,0.609
72.1600,0.674
72.2000,0.691
72.2400,0.644
72.2800,0.588
72.3200,0.569
72.3600,0.590
72.4000,0.604
72.4400,0.575
72.4800,0.573
72.5200,0.580
72.5600,0.585
72.6000,0.597
72.6400,0.558
72.6800,0.535
72.7200,0.580
72.7600,0.520
72.8000,0.563
72.8400,0.509
72.8800,0.555
72.9200,0.508
72.9600,0.538
73.0000,0.500
73.0400,0.555
73.0800,0.488
73.1200,0.503
73.1600,0.533
73.2000,0.526
73.2400,0.468
73.2800,0.508
73.3200,0.485
73.3600,0.483
73.4000,0.486
73.4400,0.520
73.4800,0.461
73.5200,0.478
73.5600,0.486
73.6000,0.478
73.6400,0.504
73.6800,0.458
73.7200,0.462
73.7600,0.454
73.8000,0.430
73.8400,0.498
73.8800,0.436
73.9200,0.459
73.9600,0.447
74.0000,0.469
74.0400,0.420
74.0800,0.436
74.1200,0.448
74.1600,0.429
74.2000,0.445
74.2400,0.409
74.2800,0.418
74.3200,0.459
74.3600,0.472
74.4000,0.421
74.4400,0.422
74.4800,0.413
74.5200,0.387
74.5600,0.419
74.6000,0.407
74.6400,0.416
74.6800,0.423
74.7200,0.416
74.7600,0.426
74.8000,0.406
74.8400,0.408
74.8800,0.392
74.9200,0.416
74.9600,0.428
75.0000,0.413
75.0400,0.392
75.0800,0.445
75.1200,0.406
75.1600,0.396
75.2000,0.411
75.2400,0.422
75.2800,0.378
75.3200,0.375
75.3600,0.372
75.4000,0.360
75.4400,0.404
75.4800,0.388
75.5200,0.356
75.5600,0.371
75.6000,0.397
75.6400,0.379
75.6800,0.346
75.7200,0.378
75.7600,0.389
75.8000,0.413
75.8400,0.351
75.8800,0.376
75.9200,0.390
75.9600,0.386
76.0000,0.372
76.0400,0.364
76.0800,0.364
76.1200,0.381
76.1600,0.366
76.2000,0.360
76.2400,0.360
76.2800,0.382
76.3200,0.394
76.3600,0.349
76.4000,0.383
76.4400,0.370
76.4800,0.336
76.5200,0.347
76.5600,0.345
76.6000,0.343
76.6400,0.396
76.6800,0.398
76.7200,0.423
76.7600,0.368
76.8000,0.362
76.8400,0.348
76.8800,0.370
76.9200,0.375
76.9600,0.360
77.0000,0.366
77.0400,0.411
77.0800,0.349
77.1200,0.369
77.1600,0.387
77.2000,0.359
77.2400,0.358
77.2800,0.341
77.3200,0.322
77.3600,0.344
77.4000,0.366
77.4400,0.351
77.4800,0.358
77.5200,0.345
77.5600,0.335
77.6000,0.360
77.6400,0.341
77.6800,0.342
77.7200,0.356
77.7600,0.337
77.8000,0.343
77.8400,0.338
77.8800,0.330
77.9200,0.307
77.9600,0.364
78.0000,0.365
78.0400,0.349
78.0800,0.348
78.1200,0.370
78.1600,0.317
78.2000,0.344
78.2400,0.369
78.2800,0.333
78.3200,0.368
78.3600,0.362
78.4000,0.308
78.4400,0.344
78.4800,0.369
78.5200,0.363
78.5600,0.327
78.6000,0.363
78.6400,0.328
78.6800,0.341
78.7200,0.354
78.7600,0.343
78.8000,0.344
78.8400,0.332
78.8800,0.360
78.9200,0.348
78.9600,0.368
79.0000,0.365
79.0400,0.346
79.0800,0.370
79.1200,0.372
79.1600,0.362
79.2000,0.356
79.2400,0.345
79.2800,0.385
79.3200,0.418
79.3600,0.368
79.4000,0.390
79.4400,0.411
79.4800,0.388
79.5200,0.392
79.5600,0.408
79.6000,0.401
79.6400,0.415
79.6800,0.442
79.7200,0.427
79.7600,0.460
79.8000,0.485
79.8400,0.484
79.8800,0.505
79.9200,0.557
79.9600,0.552
80.0000,0.539
