theta,intensity
5.0000,5.996
5.0400,5.995
5.0800,5.835
5.1200,5.798
5.1600,5.743
5.2000,5.875
5.2400,5.730
5.2800,5.728
5.3200,5.520
5.3600,5.435
5.4000,5.492
5.4400,5.478
5.4800,5.390
5.5200,5.383
5.5600,5.285
5.6000,5.256
5.6400,5.118
5.6800,5.092
5.7200,5.158
5.7600,4.897
5.8000,4.875
5.8400,4.900
5.8800,4.892
5.9200,4.761
5.9600,4.670
6.0000,4.737
6.0400,4.694
6.0800,4.642
6.1200,4.546
6.1600,4.523
6.2000,4.465
6.2400,4.392
6.2800,4.311
6.3200,4.352
6.3600,4.257
6.4000,4.195
6.4400,4.238
6.4800,4.161
6.5200,4.001
6.5600,4.208
6.6000,4.060
6.6400,4.049
6.6800,4.047
6.7200,4.100
6.7600,4.099
6.8000,4.002
6.8400,4.210
6.8800,4.022
6.9200,3.934
6.9600,4.003
7.0000,3.925
7.0400,4.142
7.0800,4.059
7.1200,3.946
7.1600,3.992
7.2000,3.946
7.2400,3.951
7.2800,3.943
7.3200,3.941
7.3600,3.931
7.4000,3.906
7.4400,3.960
7.4800,3.853
7.5200,3.867
7.5600,3.963
7.6000,3.865
7.6400,3.902
7.6800,3.894
7.7200,3.820
7.7600,3.967
7.8000,3.861
7.8400,3.976
7.8800,3.885
7.9200,3.901
7.9600,3.907
8.0000,3.853
8.0400,3.859
8.0800,3.770
8.1200,3.864
8.1600,3.810
8.2000,3.853
8.2400,3.812
8.2800,3.781
8.3200,3.776
8.3600,3.853
8.4000,3.887
8.4400,3.847
8.4800,3.879
8.5200,3.782
8.5600,3.822
8.6000,3.800
8.6400,3.836
8.6800,3.769
8.7200,3.716
8.7600,3.816
8.8000,3.803
8.8400,3.728
8.8800,3.737
8.9200,3.664
8.9600,3.702
9.0000,3.755
9.0400,3.758
9.0800,3.723
9.1200,3.709
9.1600,3.793
9.2000,3.747
9.2400,3.773
9.2800,3.728
9.3200,3.685
9.3600,3.635
9.4000,3.618
9.4400,3.671
9.4800,3.693
9.5200,3.654
9.5600,3.703
9.6000,3.666
9.6400,3.630
9.6800,3.691
9.7200,3.702
9.7600,3.707
9.8000,3.598
9.8400,3.633
9.8800,3.724
9.9200,3.675
9.9600,3.633
10.0000,3.610
10.0400,3.497
10.0800,3.604
10.1200,3.575
10.1600,3.592
10.2000,3.656
10.2400,3.667
10.2800,3.651
10.3200,3.633
10.3600,3.542
10.4000,3.515
10.4400,3.640
10.4800,3.618
10.5200,3.477
10.5600,3.683
10.6000,3.589
10.6400,3.483
10.6800,3.529
10.7200,3.536
10.7600,3.601
10.8000,3.530
10.8400,3.466
10.8800,3.573
10.9200,3.542
10.9600,3.455
11.0000,3.468
11.0400,3.620
11.0800,3.530
11.1200,3.482
11.1600,3.530
11.2000,3.488
11.2400,3.413
11.2800,3.546
11.3200,3.559
11.3600,3.514
11.4000,3.468
11.4400,3.412
11.4800,3.452
11.5200,3.482
11.5600,3.427
11.6000,3.422
11.6400,3.504
11.6800,3.466
11.7200,3.562
11.7600,3.467
11.8000,3.339
11.8400,3.403
11.8800,3.428
11.9200,3.485
11.9600,3.461
12.0000,3.383
12.0400,3.442
12.0800,3.325
12.1200,3.434
12.1600,3.411
12.2000,3.401
12.2400,3.405
12.2800,3.384
12.3200,3.368
12.3600,3.437
12.4000,3.457
12.4400,3.453
12.4800,3.398
12.5200,3.398
12.5600,3.347
12.6000,3.366
12.6400,3.350
12.6800,3.347
12.7200,3.391
12.7600,3.324
12.8000,3.319
12.8400,3.439
12.8800,3.343
12.9200,3.331
12.9600,3.403
13.0000,3.305
13.0400,3.322
13.0800,3.341
13.1200,3.401
13.1600,3.270
13.2000,3.297
13.2400,3.343
13.2800,3.268
13.3200,3.356
13.3600,3.320
13.4000,3.391
13.4400,3.275
13.4800,3.241
13.5200,3.303
13.5600,3.211
13.6000,3.253
13.6400,3.331
13.6800,3.270
13.7200,3.302
13.7600,3.220
13.8000,3.169
13.8400,3.247
13.8800,3.272
13.9200,3.263
13.9600,3.270
14.0000,3.157
14.0400,3.249
14.0800,3.278
14.1200,3.267
14.1600,3.206
14.2000,3.167
14.2400,3.239
14.2800,3.186
14.3200,3.110
14.3600,3.101
14.4000,3.173
14.4400,3.150
14.4800,3.190
14.5200,3.180
14.5600,3.197
14.6000,3.123
14.6400,3.172
14.6800,3.182
14.7200,3.237
14.7600,3.135
14.8000,3.185
14.8400,3.191
14.8800,3.221
14.9200,3.199
14.9600,3.210
15.0000,3.196
15.0400,3.157
15.0800,3.171
15.1200,3.123
15.1600,3.147
15.2000,3.077
15.2400,3.148
15.2800,3.150
15.3200,3.105
15.3600,3.174
15.4000,3.064
15.4400,3.105
15.4800,3.146
15.5200,3.079
15.5600,3.075
15.6000,3.215
15.6400,3.106
15.6800,3.076
15.7200,3.130
15.7600,2.999
15.8000,3.047
15.8400,3.033
15.8800,3.007
15.9200,3.030
15.9600,3.086
16.0000,3.017
16.0400,3.023
16.0800,2.981
16.1200,3.063
16.1600,3.036
16.2000,2.965
16.2400,3.098
16.2800,3.039
16.3200,3.044
16.3600,2.947
16.4000,2.926
16.4400,2.976
16.4800,3.003
16.5200,3.002
16.5600,2.920
16.6000,3.043
16.6400,2.963
16.6800,3.011
16.7200,2.939
16.7600,2.960
16.8000,2.930
16.8400,2.959
16.8800,2.916
16.9200,2.853
16.9600,2.866
17.0000,2.934
17.0400,2.995
17.0800,2.939
17.1200,2.996
17.1600,2.926
17.2000,2.911
17.2400,2.965
17.2800,2.873
17.3200,2.940
17.3600,2.952
17.4000,2.955
17.4400,2.905
17.4800,2.886
17.5200,2.849
17.5600,2.913
17.6000,2.881
17.6400,2.862
17.6800,2.857
17.7200,2.890
17.7600,2.951
17.8000,2.797
17.8400,3.048
17.8800,2.861
17.9200,2.828
17.9600,2.909
18.0000,2.955
18.0400,2.949
18.0800,2.901
18.1200,2.847
18.1600,2.928
18.2000,2.896
18.2400,2.865
18.2800,2.783
18.3200,2.828
18.3600,2.845
18.4000,2.787
18.4400,2.864
18.4800,2.878
18.5200,2.825
18.5600,2.936
18.6000,2.885
18.6400,2.790
18.6800,2.874
18.7200,2.845
18.7600,2.850
18.8000,2.797
18.8400,2.798
18.8800,2.837
18.9200,2.785
18.9600,2.776
19.0000,2.869
19.0400,2.751
19.0800,2.848
19.1200,2.853
19.1600,2.792
19.2000,2.747
19.2400,2.753
19.2800,2.777
19.3200,2.768
19.3600,2.775
19.4000,2.720
19.4400,2.778
19.4800,2.745
19.5200,2.722
19.5600,2.623
19.6000,2.656
19.6400,2.655
19.6800,2.799
19.7200,2.744
19.7600,2.719
19.8000,2.694
19.8400,2.686
19.8800,2.768
19.9200,2.677
19.9600,2.740
20.0000,2.674
20.0400,2.678
20.0800,2.694
20.1200,2.647
20.1600,2.678
20.2000,2.664
20.2400,2.635
20.2800,2.766
20.3200,2.719
20.3600,2.745
20.4000,2.660
20.4400,2.691
20.4800,2.606
20.5200,2.677
20.5600,2.626
20.6000,2.630
20.6400,2.712
20.6800,2.602
20.7200,2.602
20.7600,2.665
20.8000,2.650
20.8400,2.577
20.8800,2.654
20.9200,2.646
20.9600,2.566
21.0000,2.657
21.0400,2.560
21.0800,2.550
21.1200,2.607
21.1600,2.623
21.2000,2.692
21.2400,2.632
21.2800,2.567
21.3200,2.505
21.3600,2.619
21.4000,2.658
21.4400,2.484
21.4800,2.539
21.5200,2.588
21.5600,2.500
21.6000,2.543
21.6400,2.644
21.6800,2.541
21.7200,2.558
21.7600,2.580
21.8000,2.499
21.8400,2.478
21.8800,2.575
21.9200,2.500
21.9600,2.595
22.0000,2.479
22.0400,2.535
22.0800,2.589
22.1200,2.419
22.1600,2.533
22.2000,2.520
22.2400,2.473
22.2800,2.486
22.3200,2.539
22.3600,2.555
22.4000,2.500
22.4400,2.526
22.4800,2.571
22.5200,2.382
22.5600,2.486
22.6000,2.526
22.6400,2.452
22.6800,2.557
22.7200,2.469
22.7600,2.484
22.8000,2.548
22.8400,2.533
22.8800,2.560
22.9200,2.471
22.9600,2.449
23.0000,2.460
23.0400,2.543
23.0800,2.490
23.1200,2.531
23.1600,2.487
23.2000,2.424
23.2400,2.492
23.2800,2.439
23.3200,2.550
23.3600,2.453
23.4000,2.507
23.4400,2.423
23.4800,2.454
23.5200,2.406
23.5600,2.436
23.6000,2.454
23.6400,2.481
23.6800,2.468
23.7200,2.443
23.7600,2.446
23.8000,2.368
23.8400,2.369
23.8800,2.405
23.9200,2.392
23.9600,2.355
24.0000,2.474
24.0400,2.371
24.0800,2.374
24.1200,2.337
24.1600,2.352
24.2000,2.375
24.2400,2.397
24.2800,2.380
24.3200,2.414
24.3600,2.344
24.4000,2.325
24.4400,2.289
24.4800,2.355
24.5200,2.483
24.5600,2.366
24.6000,2.328
24.6400,2.414
24.6800,2.360
24.7200,2.444
24.7600,2.422
24.8000,2.352
24.8400,2.366
24.8800,2.348
24.9200,2.244
24.9600,2.326
25.0000,2.338
25.0400,2.323
25.0800,2.308
25.1200,2.384
25.1600,2.335
25.2000,2.338
25.2400,2.280
25.2800,2.289
25.3200,2.290
25.3600,2.267
25.4000,2.356
25.4400,2.225
25.4800,2.291
25.5200,2.352
25.5600,2.344
25.6000,2.284
25.6400,2.294
25.6800,2.262
25.7200,2.229
25.7600,2.320
25.8000,2.181
25.8400,2.222
25.8800,2.319
25.9200,2.251
25.9600,2.288
26.0000,2.257
26.0400,2.162
26.0800,2.331
26.1200,2.235
26.1600,2.297
26.2000,2.270
26.2400,2.248
26.2800,2.263
26.3200,2.178
26.3600,2.284
26.4000,2.187
26.4400,2.186
26.4800,2.323
26.5200,2.168
26.5600,2.191
26.6000,2.173
26.6400,2.258
26.6800,2.252
26.7200,2.217
26.7600,2.196
26.8000,2.239
26.8400,2.246
26.8800,2.184
26.9200,2.190
26.9600,2.220
27.0000,2.156
27.0400,2.157
27.0800,2.173
27.1200,2.189
27.1600,2.125
27.2000,2.145
27.2400,2.191
27.2800,2.191
27.3200,2.193
27.3600,2.230
27.4000,2.229
27.4400,2.151
27.4800,2.114
27.5200,2.080
27.5600,2.155
27.6000,2.165
27.6400,2.132
27.6800,2.149
27.7200,2.051
27.7600,2.114
27.8000,2.126
27.8400,2.192
27.8800,2.074
27.9200,2.060
27.9600,2.099
28.0000,2.138
28.0400,2.144
28.0800,2.056
28.1200,2.131
28.1600,2.097
28.2000,2.134
28.2400,2.120
28.2800,2.090
28.3200,2.090
28.3600,2.046
28.4000,2.023
28.4400,2.098
28.4800,2.051
28.5200,2.125
28.5600,2.113
28.6000,2.108
28.6400,2.052
28.6800,2.124
28.7200,2.055
28.7600,2.071
28.8000,2.073
28.8400,2.056
28.8800,2.121
28.9200,2.039
28.9600,1.965
29.0000,2.090
29.0400,2.047
29.0800,2.052
29.1200,1.982
29.1600,2.072
29.2000,2.108
29.2400,2.080
29.2800,2.101
29.3200,2.014
29.3600,2.043
29.4000,2.060
29.4400,2.111
29.4800,2.082
29.5200,2.050
29.5600,1.967
29.6000,2.028
29.6400,2.012
29.6800,1.950
29.7200,2.084
29.7600,2.031
29.8000,1.941
29.8400,2.047
29.8800,2.004
29.9200,1.980
29.9600,1.944
30.0000,1.989
30.0400,1.941
30.0800,2.007
30.1200,1.929
30.1600,2.014
30.2000,1.960
30.2400,1.941
30.2800,1.944
30.3200,1.965
30.3600,1.973
30.4000,2.005
30.4400,1.978
30.4800,1.903
30.5200,1.960
30.5600,1.957
30.6000,1.963
30.6400,1.969
30.6800,1.922
30.7200,1.973
30.7600,1.891
30.8000,1.894
30.8400,1.891
30.8800,1.990
30.9200,1.933
30.9600,1.935
31.0000,1.965
31.0400,1.938
31.0800,1.997
31.1200,1.959
31.1600,1.959
31.2000,1.830
31.2400,1.868
31.2800,1.942
31.3200,1.943
31.3600,1.888
31.4000,1.883
31.4400,1.905
31.4800,1.864
31.5200,1.875
31.5600,1.873
31.6000,1.865
31.6400,1.911
31.6800,1.905
31.7200,1.856
31.7600,1.873
31.8000,1.831
31.8400,1.958
31.8800,1.844
31.9200,1.865
31.9600,1.858
32.0000,1.849
32.0400,1.883
32.0800,1.856
32.1200,1.829
32.1600,1.893
32.2000,1.822
32.2400,1.908
32.2800,1.844
32.3200,1.855
32.3600,1.864
32.4000,1.855
32.4400,1.800
32.4800,1.830
32.5200,1.846
32.5600,1.814
32.6000,1.781
32.6400,1.818
32.6800,1.865
32.7200,1.910
32.7600,1.872
32.8000,1.853
32.8400,1.852
32.8800,1.800
32.9200,1.905
32.9600,1.791
33.0000,1.881
33.0400,1.922
33.0800,1.991
33.1200,2.083
33.1600,2.021
33.2000,1.838
33.2400,1.808
33.2800,1.836
33.3200,1.806
33.3600,1.780
33.4000,1.801
33.4400,1.777
33.4800,1.782
33.5200,1.785
33.5600,1.698
33.6000,1.750
33.6400,1.757
33.6800,1.778
33.7200,1.823
33.7600,1.837
33.8000,1.809
33.8400,1.750
33.8800,1.753
33.9200,1.727
33.9600,1.740
34.0000,1.780
34.0400,1.748
34.0800,1.787
34.1200,1.694
34.1600,1.714
34.2000,1.748
34.2400,1.732
34.2800,1.743
34.3200,1.754
34.3600,1.810
34.4000,1.802
34.4400,1.739
34.4800,1.810
34.5200,1.691
34.5600,1.783
34.6000,1.772
34.6400,1.741
34.6800,1.666
34.7200,1.744
34.7600,1.751
34.8000,1.729
34.8400,1.718
34.8800,1.746
34.9200,1.720
34.9600,1.693
35.0000,1.733
35.0400,1.684
35.0800,1.761
35.1200,1.707
35.1600,1.777
35.2000,1.725
35.2400,1.716
35.2800,1.711
35.3200,1.699
35.3600,1.782
35.4000,1.670
35.4400,1.759
35.4800,1.697
35.5200,1.793
35.5600,1.794
35.6000,1.781
35.6400,1.774
35.6800,1.799
35.7200,1.738
35.7600,1.811
35.8000,1.773
35.8400,1.729
35.8800,1.720
35.9200,1.767
35.9600,1.741
36.0000,1.741
36.0400,1.780
36.0800,1.805
36.1200,1.750
36.1600,1.731
36.2000,1.826
36.2400,1.755
36.2800,1.798
36.3200,1.680
36.3600,1.745
36.4000,1.735
36.4400,1.863
36.4800,1.763
36.5200,1.734
36.5600,1.785
36.6000,1.831
36.6400,1.806
36.6800,1.796
36.7200,1.833
36.7600,1.809
36.8000,1.819
36.8400,1.793
36.8800,1.878
36.9200,1.846
36.9600,1.852
37.0000,1.804
37.0400,1.897
37.0800,1.983
37.1200,1.955
37.1600,2.031
37.2000,1.948
37.2400,1.956
37.2800,2.015
37.3200,2.025
37.3600,2.157
37.4000,2.098
37.4400,2.160
37.4800,2.222
37.5200,2.334
37.5600,2.500
37.6000,2.601
37.6400,2.582
37.6800,2.814
37.7200,2.903
37.7600,3.249
37.8000,3.449
37.8400,3.828
37.8800,4.257
37.9200,4.735
37.9600,5.490
38.0000,6.502
38.0400,7.419
38.0800,8.433
38.1200,8.988
38.1600,9.336
38.2000,9.071
38.2400,8.179
38.2800,7.249
38.3200,6.263
38.3600,5.465
38.4000,4.740
38.4400,4.129
38.4800,3.659
38.5200,3.439
38.5600,3.184
38.6000,2.864
38.6400,2.769
38.6800,2.686
38.7200,2.501
38.7600,2.333
38.8000,2.262
38.8400,2.265
38.8800,2.080
38.9200,2.202
38.9600,2.119
39.0000,2.020
39.0400,1.920
39.0800,1.865
39.1200,1.850
39.1600,1.905
39.2000,1.771
39.2400,1.824
39.2800,1.739
39.3200,1.729
39.3600,1.670
39.4000,1.650
39.4400,1.617
39.4800,1.651
39.5200,1.604
39.5600,1.574
39.6000,1.575
39.6400,1.571
39.6800,1.541
39.7200,1.571
39.7600,1.518
39.8000,1.457
39.8400,1.520
39.8800,1.513
39.9200,1.563
39.9600,1.512
40.0000,1.449
40.0400,1.470
40.0800,1.538
40.1200,1.471
40.1600,1.539
40.2000,1.563
40.2400,1.505
40.2800,1.498
40.3200,1.547
40.3600,1.513
40.4000,1.413
40.4400,1.439
40.4800,1.374
40.5200,1.397
40.5600,1.408
40.6000,1.419
40.6400,1.354
40.6800,1.396
40.7200,1.401
40.7600,1.433
40.8000,1.458
40.8400,1.467
40.8800,1.366
40.9200,1.408
40.9600,1.398
41.0000,1.383
41.0400,1.358
41.0800,1.353
41.1200,1.392
41.1600,1.369
41.2000,1.284
41.2400,1.322
41.2800,1.356
41.3200,1.353
41.3600,1.333
41.4000,1.301
41.4400,1.392
41.4800,1.263
41.5200,1.242
41.5600,1.364
41.6000,1.341
41.6400,1.321
41.6800,1.309
41.7200,1.341
41.7600,1.327
41.8000,1.315
41.8400,1.273
41.8800,1.304
41.9200,1.302
41.9600,1.361
42.0000,1.326
42.0400,1.308
42.0800,1.357
42.1200,1.297
42.1600,1.353
42.2000,1.282
42.2400,1.312
42.2800,1.301
42.3200,1.335
42.3600,1.311
42.4000,1.299
42.4400,1.252
42.4800,1.285
42.5200,1.319
42.5600,1.351
42.6000,1.235
42.6400,1.288
42.6800,1.289
42.7200,1.374
42.7600,1.335
42.8000,1.236
42.8400,1.311
42.8800,1.323
42.9200,1.324
42.9600,1.313
43.0000,1.327
43.0400,1.295
43.0800,1.414
43.1200,1.382
43.1600,1.408
43.2000,1.468
43.2400,1.417
43.2800,1.457
43.3200,1.451
43.3600,1.389
43.4000,1.483
43.4400,1.472
43.4800,1.493
43.5200,1.425
43.5600,1.566
43.6000,1.523
43.6400,1.572
43.6800,1.621
43.7200,1.625
43.7600,1.674
43.8000,1.793
43.8400,1.807
43.8800,1.823
43.9200,1.877
43.9600,1.969
44.0000,2.082
44.0400,2.207
44.0800,2.232
44.1200,2.306
44.1600,2.393
44.2000,2.555
44.2400,2.666
44.2800,2.726
44.3200,2.867
44.3600,2.847
44.4000,2.668
44.4400,2.678
44.4800,2.509
44.5200,2.358
44.5600,2.328
44.6000,2.119
44.6400,2.061
44.6800,1.956
44.7200,1.807
44.7600,1.792
44.8000,1.635
44.8400,1.600
44.8800,1.516
44.9200,1.481
44.9600,1.470
45.0000,1.433
45.0400,1.451
45.0800,1.286
45.1200,1.233
45.1600,1.281
45.2000,1.313
45.2400,1.230
45.2800,1.257
45.3200,1.233
45.3600,1.127
45.4000,1.177
45.4400,1.085
45.4800,1.169
45.5200,1.185
45.5600,1.105
45.6000,1.085
45.6400,1.127
45.6800,1.067
45.7200,1.109
45.7600,1.072
45.8000,1.081
45.8400,1.083
45.8800,1.080
45.9200,1.056
45.9600,1.035
46.0000,1.039
46.0400,1.038
46.0800,1.064
46.1200,1.063
46.1600,1.034
46.2000,1.032
46.2400,1.063
46.2800,1.001
46.3200,1.043
46.3600,1.005
46.4000,1.018
46.4400,0.898
46.4800,0.940
46.5200,0.985
46.5600,1.019
46.6000,0.980
46.6400,1.041
46.6800,0.991
46.7200,0.994
46.7600,0.941
46.8000,0.957
46.8400,1.015
46.8800,0.929
46.9200,0.981
46.9600,0.901
47.0000,0.954
47.0400,0.955
47.0800,0.938
47.1200,0.954
47.1600,0.903
47.2000,0.904
47.2400,0.947
47.2800,0.893
47.3200,0.949
47.3600,0.912
47.4000,0.947
47.4400,0.919
47.4800,0.900
47.5200,0.916
47.5600,0.936
47.6000,0.931
47.6400,0.927
47.6800,0.950
47.7200,0.963
47.7600,0.920
47.8000,0.893
47.8400,0.866
47.8800,0.910
47.9200,0.859
47.9600,0.871
48.0000,0.858
48.0400,0.883
48.0800,0.900
48.1200,0.867
48.1600,0.868
48.2000,0.898
48.2400,0.852
48.2800,0.911
48.3200,0.893
48.3600,0.847
48.4000,0.887
48.4400,0.868
48.4800,0.908
48.5200,0.905
48.5600,0.837
48.6000,0.843
48.6400,0.900
48.6800,0.857
48.7200,0.891
48.7600,0.816
48.8000,0.855
48.8400,0.895
48.8800,0.886
48.9200,0.877
48.9600,0.893
49.0000,0.833
49.0400,0.870
49.0800,0.872
49.1200,0.883
49.1600,0.863
49.2000,0.818
49.2400,0.842
49.2800,0.871
49.3200,0.829
49.3600,0.834
49.4000,0.840
49.4400,0.810
49.4800,0.824
49.5200,0.852
49.5600,0.836
49.6000,0.745
49.6400,0.807
49.6800,0.834
49.7200,0.854
49.7600,0.836
49.8000,0.828
49.8400,0.848
49.8800,0.774
49.9200,0.817
49.9600,0.827
50.0000,0.806
50.0400,0.792
50.0800,0.804
50.1200,0.871
50.1600,0.790
50.2000,0.812
50.2400,0.825
50.2800,0.764
50.3200,0.787
50.3600,0.824
50.4000,0.858
50.4400,0.806
50.4800,0.820
50.5200,0.797
50.5600,0.747
50.6000,0.763
50.6400,0.800
50.6800,0.754
50.7200,0.864
50.7600,0.821
50.8000,0.779
50.8400,0.782
50.8800,0.818
50.9200,0.816
50.9600,0.808
51.0000,0.805
51.0400,0.787
51.0800,0.800
51.1200,0.782
51.1600,0.794
51.2000,0.819
51.2400,0.811
51.2800,0.753
51.3200,0.824
51.3600,0.750
51.4000,0.781
51.4400,0.747
51.4800,0.773
51.5200,0.762
51.5600,0.782
51.6000,0.769
51.6400,0.804
51.6800,0.740
51.7200,0.754
51.7600,0.740
51.8000,0.766
51.8400,0.752
51.8800,0.740
51.9200,0.805
51.9600,0.729
52.0000,0.776
52.0400,0.725
52.0800,0.734
52.1200,0.750
52.1600,0.756
52.2000,0.751
52.2400,0.848
52.2800,0.783
52.3200,0.764
52.3600,0.751
52.4000,0.705
52.4400,0.758
52.4800,0.804
52.5200,0.726
52.5600,0.776
52.6000,0.754
52.6400,0.731
52.6800,0.752
52.7200,0.761
52.7600,0.734
52.8000,0.760
52.8400,0.750
52.8800,0.722
52.9200,0.736
52.9600,0.760
53.0000,0.776
53.0400,0.750
53.0800,0.708
53.1200,0.691
53.1600,0.705
53.2000,0.686
53.2400,0.736
53.2800,0.745
53.3200,0.717
53.3600,0.727
53.4000,0.717
53.4400,0.757
53.4800,0.741
53.5200,0.721
53.5600,0.731
53.6000,0.760
53.6400,0.699
53.6800,0.713
53.7200,0.725
53.7600,0.724
53.8000,0.726
53.8400,0.756
53.8800,0.734
53.9200,0.739
53.9600,0.771
54.0000,0.702
54.0400,0.748
54.0800,0.680
54.1200,0.709
54.1600,0.695
54.2000,0.781
54.2400,0.721
54.2800,0.700
54.3200,0.709
54.3600,0.716
54.4000,0.697
54.4400,0.744
54.4800,0.662
54.5200,0.698
54.5600,0.716
54.6000,0.714
54.6400,0.712
54.6800,0.729
54.7200,0.694
54.7600,0.705
54.8000,0.741
54.8400,0.726
54.8800,0.713
54.9200,0.681
54.9600,0.691
55.0000,0.650
55.0400,0.668
55.0800,0.661
55.1200,0.694
55.1600,0.673
55.2000,0.696
55.2400,0.701
55.2800,0.673
55.3200,0.680
55.3600,0.693
55.4000,0.675
55.4400,0.673
55.4800,0.644
55.5200,0.668
55.5600,0.652
55.6000,0.698
55.6400,0.707
55.6800,0.670
55.7200,0.675
55.7600,0.703
55.8000,0.698
55.8400,0.670
55.8800,0.621
55.9200,0.661
55.9600,0.705
56.0000,0.703
56.0400,0.649
56.0800,0.638
56.1200,0.682
56.1600,0.708
56.2000,0.676
56.2400,0.707
56.2800,0.681
56.3200,0.662
56.3600,0.659
56.4000,0.655
56.4400,0.689
56.4800,0.655
56.5200,0.653
56.5600,0.675
56.6000,0.697
56.6400,0.668
56.6800,0.683
56.7200,0.661
56.7600,0.661
56.8000,0.728
56.8400,0.725
56.8800,0.660
56.9200,0.653
56.9600,0.694
57.0000,0.690
57.0400,0.639
57.0800,0.676
57.1200,0.694
57.1600,0.605
57.2000,0.665
57.2400,0.680
57.2800,0.636
57.3200,0.660
57.3600,0.645
57.4000,0.634
57.4400,0.677
57.4800,0.694
57.5200,0.644
57.5600,0.703
57.6000,0.663
57.6400,0.652
57.6800,0.612
57.7200,0.648
57.7600,0.638
57.8000,0.630
57.8400,0.666
57.8800,0.603
57.9200,0.659
57.9600,0.615
58.0000,0.677
58.0400,0.667
58.0800,0.626
58.1200,0.647
58.1600,0.663
58.2000,0.645
58.2400,0.652
58.2800,0.669
58.3200,0.629
58.3600,0.648
58.4000,0.689
58.4400,0.643
58.4800,0.647
58.5200,0.647
58.5600,0.641
58.6000,0.616
58.6400,0.657
58.6800,0.628
58.7200,0.619
58.7600,0.632
58.8000,0.644
58.8400,0.640
58.8800,0.614
58.9200,0.680
58.9600,0.633
59.0000,0.664
59.0400,0.626
59.0800,0.663
59.1200,0.646
59.1600,0.720
59.2000,0.601
59.2400,0.614
59.2800,0.621
59.3200,0.664
59.3600,0.645
59.4000,0.638
59.4400,0.640
59.4800,0.648
59.5200,0.617
59.5600,0.650
59.6000,0.618
59.6400,0.637
59.6800,0.682
59.7200,0.637
59.7600,0.581
59.8000,0.607
59.8400,0.626
59.8800,0.572
59.9200,0.647
59.9600,0.573
60.0000,0.606
60.0400,0.612
60.0800,0.670
60.1200,0.618
60.1600,0.599
60.2000,0.563
60.2400,0.605
60.2800,0.594
60.3200,0.591
60.3600,0.639
60.4000,0.616
60.4400,0.615
60.4800,0.619
60.5200,0.608
60.5600,0.640
60.6000,0.583
60.6400,0.590
60.6800,0.617
60.7200,0.605
60.7600,0.634
60.8000,0.600
60.8400,0.621
60.8800,0.647
60.9200,0.603
60.9600,0.605
61.0000,0.604
61.0400,0.614
61.0800,0.611
61.1200,0.619
61.1600,0.556
61.2000,0.601
61.2400,0.618
61.2800,0.583
61.3200,0.576
61.3600,0.581
61.4000,0.608
61.4400,0.636
61.4800,0.579
61.5200,0.635
61.5600,0.651
61.6000,0.602
61.6400,0.685
61.6800,0.700
61.7200,0.687
61.7600,0.635
61.8000,0.612
61.8400,0.635
61.8800,0.606
61.9200,0.606
61.9600,0.576
62.0000,0.613
62.0400,0.582
62.0800,0.549
62.1200,0.581
62.1600,0.649
62.2000,0.607
62.2400,0.658
62.2800,0.582
62.3200,0.594
62.3600,0.588
62.4000,0.589
62.4400,0.588
62.4800,0.609
62.5200,0.619
62.5600,0.666
62.6000,0.567
62.6400,0.597
62.6800,0.620
62.7200,0.563
62.7600,0.634
62.8000,0.646
62.8400,0.642
62.8800,0.594
62.9200,0.603
62.9600,0.625
63.0000,0.646
63.0400,0.622
63.0800,0.644
63.1200,0.653
63.1600,0.582
63.2000,0.646
63.2400,0.618
63.2800,0.649
63.3200,0.603
63.3600,0.621
63.4000,0.611
63.4400,0.617
63.4800,0.707
63.5200,0.677
63.5600,0.715
63.6000,0.669
63.6400,0.693
63.6800,0.705
63.7200,0.749
63.7600,0.716
63.8000,0.735
63.8400,0.762
63.8800,0.768
63.9200,0.808
63.9600,0.817
64.0000,0.836
64.0400,0.905
64.0800,0.913
64.1200,1.000
64.1600,0.971
64.2000,1.016
64.2400,1.129
64.2800,1.168
64.3200,1.233
64.3600,1.304
64.4000,1.415
64.4400,1.476
64.4800,1.491
64.5200,1.539
64.5600,1.507
64.6000,1.496
64.6400,1.477
64.6800,1.369
64.7200,1.276
64.7600,1.221
64.8000,1.161
64.8400,1.051
64.8800,1.053
64.9200,0.999
64.9600,0.985
65.0000,0.919
65.0400,0.874
65.0800,0.858
65.1200,0.848
65.1600,0.826
65.2000,0.821
65.2400,0.776
65.2800,0.832
65.3200,0.768
65.3600,0.764
65.4000,0.713
65.4400,0.768
65.4800,0.770
65.5200,0.761
65.5600,0.791
65.6000,0.776
65.6400,0.747
65.6800,0.714
65.7200,0.738
65.7600,0.750
65.8000,0.745
65.8400,0.779
65.8800,0.807
65.9200,0.767
65.9600,0.772
66.0000,0.744
66.0400,0.763
66.0800,0.780
66.1200,0.760
66.1600,0.746
66.2000,0.776
66.2400,0.808
66.2800,0.845
66.3200,0.813
66.3600,0.820
66.4000,0.791
66.4400,0.798
66.4800,0.847
66.5200,0.839
66.5600,0.880
66.6000,0.866
66.6400,0.837
66.6800,0.822
66.7200,0.873
66.7600,0.920
66.8000,0.896
66.8400,0.909
66.8800,0.944
66.9200,0.922
66.9600,0.859
67.0000,0.963
67.0400,0.978
67.0800,0.906
67.1200,1.033
67.1600,1.004
67.2000,1.006
67.2400,1.017
67.2800,1.090
67.3200,1.072
67.3600,1.102
67.4000,1.077
67.4400,1.102
67.4800,1.122
67.5200,1.111
67.5600,1.114
67.6000,1.069
67.6400,1.125
67.6800,1.243
67.7200,1.252
67.7600,1.218
67.8000,1.320
67.8400,1.294
67.8800,1.312
67.9200,1.457
67.9600,1.416
68.0000,1.439
68.0400,1.500
68.0800,1.479
68.1200,1.564
68.1600,1.608
68.2000,1.643
68.2400,1.585
68.2800,1.714
68.3200,1.728
68.3600,1.866
68.4000,1.988
68.4400,2.116
68.4800,2.132
68.5200,2.284
68.5600,2.376
68.6000,2.531
68.6400,2.781
68.6800,3.114
68.7200,3.798
68.7600,4.987
68.8000,6.015
68.8400,6.734
68.8800,6.824
68.9200,7.521
68.9600,9.542
69.0000,14.261
69.0400,25.063
69.0800,75.916
69.1200,311.231
69.1600,414.804
69.2000,179.009
69.2400,50.459
69.2800,60.934
69.3200,175.336
69.3600,213.054
69.4000,89.775
69.4400,24.162
69.4800,12.339
69.5200,8.427
69.5600,6.534
69.6000,5.277
69.6400,4.713
69.6800,4.146
69.7200,3.592
69.7600,3.192
69.8000,2.989
69.8400,2.770
69.8800,2.581
69.9200,2.521
69.9600,2.322
70.0000,2.210
70.0400,2.117
70.0800,2.142
70.1200,1.998
70.1600,1.919
70.2000,1.819
70.2400,1.858
70.2800,1.727
70.3200,1.717
70.3600,1.658
70.4000,1.630
70.4400,1.530
70.4800,1.535
70.5200,1.398
70.5600,1.440
70.6000,1.343
70.6400,1.318
70.6800,1.322
70.7200,1.277
70.7600,1.292
70.8000,1.173
70.8400,1.239
70.8800,1.171
70.9200,1.129
70.9600,1.070
71.0000,1.089
71.0400,1.085
71.0800,1.000
71.1200,1.020
71.1600,1.047
71.2000,1.015
71.2400,0.919
71.2800,0.941
71.3200,0.920
71.3600,0.934
71.4000,0.883
71.4400,0.888
71.4800,0.828
71.5200,0.769
71.5600,0.792
71.6000,0.786
71.6400,0.787
71.6800,0.792
71.7200,0.784
71.7600,0.753
71.8000,0.809
71.8400,0.748
71.8800,0.730
71.9200,0.665
71.9600,0.703
72.0000,0.652
72.0400,0.738
72.0800,0.695
72.1200,0.630
72.1600,0.631
72.2000,0.627
72.2400,0.614
72.2800,0.650
72.3200,0.639
72.3600,0.624
72.4000,0.599
72.4400,0.583
72.4800,0.569
72.5200,0.631
72.5600,0.595
72.6000,0.602
72.6400,0.594
72.6800,0.547
72.7200,0.518
72.7600,0.554
72.8000,0.532
72.8400,0.572
72.8800,0.508
72.9200,0.549
72.9600,0.555
73.0000,0.475
73.0400,0.499
73.0800,0.521
73.1200,0.515
73.1600,0.523
73.2000,0.502
73.2400,0.504
73.2800,0.520
73.3200,0.503
73.3600,0.507
73.4000,0.521
73.4400,0.506
73.4800,0.501
73.5200,0.436
73.5600,0.509
73.6000,0.476
73.6400,0.479
73.6800,0.450
73.7200,0.483
73.7600,0.442
73.8000,0.453
73.8400,0.454
73.8800,0.455
73.9200,0.443
73.9600,0.451
74.0000,0.472
74.0400,0.459
74.0800,0.427
74.1200,0.424
74.1600,0.446
74.2000,0.460
74.2400,0.454
74.2800,0.436
74.3200,0.428
74.3600,0.416
74.4000,0.459
74.4400,0.474
74.4800,0.448
74.5200,0.421
74.5600,0.458
74.6000,0.414
74.6400,0.425
74.6800,0.416
74.7200,0.400
74.7600,0.422
74.8000,0.424
74.8400,0.414
74.8800,0.442
74.9200,0.371
74.9600,0.385
75.0000,0.388
75.0400,0.411
75.0800,0.399
75.1200,0.409
75.1600,0.383
75.2000,0.437
75.2400,0.426
75.2800,0.411
75.3200,0.393
75.3600,0.469
75.4000,0.407
75.4400,0.414
75.4800,0.404
75.5200,0.403
75.5600,0.383
75.6000,0.410
75.6400,0.406
75.6800,0.418
75.7200,0.380
75.7600,0.406
75.8000,0.402
75.8400,0.432
75.8800,0.435
75.9200,0.414
75.9600,0.428
76.0000,0.367
76.0400,0.409
76.0800,0.435
76.1200,0.403
76.1600,0.456
76.2000,0.408
76.2400,0.396
76.2800,0.432
76.3200,0.437
76.3600,0.434
76.4000,0.440
76.4400,0.425
76.4800,0.445
76.5200,0.481
76.5600,0.488
76.6000,0.485
76.6400,0.494
76.6800,0.489
76.7200,0.492
76.7600,0.484
76.8000,0.543
76.8400,0.495
76.8800,0.568
76.9200,0.605
76.9600,0.615
77.0000,0.622
77.0400,0.635
77.0800,0.682
77.1200,0.731
77.1600,0.766
77.2000,0.802
77.2400,0.858
77.2800,0.964
77.3200,1.075
77.3600,1.053
77.4000,1.079
77.4400,1.150
77.4800,1.180
77.5200,1.168
77.5600,1.132
77.6000,1.046
77.6400,1.007
77.6800,0.972
77.7200,0.944
77.7600,0.843
77.8000,0.773
77.8400,0.743
77.8800,0.673
77.9200,0.659
77.9600,0.633
78.0000,0.603
78.0400,0.554
78.0800,0.517
78.1200,0.554
78.1600,0.491
78.2000,0.469
78.2400,0.463
78.2800,0.452
78.3200,0.479
78.3600,0.444
78.4000,0.423
78.4400,0.439
78.4800,0.443
78.5200,0.380
78.5600,0.411
78.6000,0.382
78.6400,0.386
78.6800,0.408
78.7200,0.389
78.7600,0.385
78.8000,0.364
78.8400,0.366
78.8800,0.338
78.9200,0.367
78.9600,0.357
79.0000,0.369
79.0400,0.307
79.0800,0.347
79.1200,0.332
79.1600,0.343
79.2000,0.371
79.2400,0.364
79.2800,0.330
79.3200,0.368
79.3600,0.352
79.4000,0.328
79.4400,0.358
79.4800,0.342
79.5200,0.339
79.5600,0.330
79.6000,0.358
79.6400,0.331
79.6800,0.327
79.7200,0.335
79.7600,0.331
79.8000,0.357
79.8400,0.334
79.8800,0.325
79.9200,0.327
79.9600,0.338
80.0000,0.311
