theta,intensity
5.0000,5.753
5.0400,5.640
5.0800,5.740
5.1200,5.710
5.1600,5.687
5.2000,5.474
5.2400,5.586
5.2800,5.588
5.3200,5.629
5.3600,5.635
5.4000,5.549
5.4400,5.375
5.4800,5.319
5.5200,5.509
5.5600,5.451
5.6000,5.374
5.6400,5.295
5.6800,5.215
5.7200,5.243
5.7600,5.055
5.8000,4.932
5.8400,4.972
5.8800,4.907
5.9200,4.909
5.9600,4.806
6.0000,4.866
6.0400,4.623
6.0800,4.612
6.1200,4.710
6.1600,4.466
6.2000,4.500
6.2400,4.416
6.2800,4.286
6.3200,4.312
6.3600,4.323
6.4000,4.324
6.4400,4.361
6.4800,4.285
6.5200,4.224
6.5600,4.241
6.6000,4.122
6.6400,4.052
6.6800,4.116
6.7200,4.092
6.7600,4.108
6.8000,4.070
6.8400,4.141
6.8800,4.121
6.9200,4.055
6.9600,4.034
7.0000,4.043
7.0400,4.014
7.0800,4.083
7.1200,4.093
7.1600,4.018
7.2000,4.044
7.2400,4.037
7.2800,3.951
7.3200,4.077
7.3600,4.049
7.4000,4.013
7.4400,4.073
7.4800,4.075
7.5200,3.947
7.5600,4.059
7.6000,3.968
7.6400,3.858
7.6800,3.927
7.7200,3.937
7.7600,4.032
7.8000,3.869
7.8400,3.881
7.8800,3.867
7.9200,3.881
7.9600,3.849
8.0000,3.914
8.0400,3.937
8.0800,3.894
8.1200,3.960
8.1600,3.893
8.2000,3.765
8.2400,3.835
8.2800,3.929
8.3200,3.809
8.3600,3.945
8.4000,3.881
8.4400,3.778
8.4800,3.896
8.5200,3.891
8.5600,3.901
8.6000,3.814
8.6400,3.977
8.6800,3.809
8.7200,3.838
8.7600,3.735
8.8000,3.898
8.8400,3.885
8.8800,3.730
8.9200,3.781
8.9600,3.786
9.0000,3.687
9.0400,3.885
9.0800,3.731
9.1200,3.797
9.1600,3.770
9.2000,3.798
9.2400,3.802
9.2800,3.789
9.3200,3.792
9.3600,3.810
9.4000,3.821
9.4400,3.736
9.4800,3.779
9.5200,3.663
9.5600,3.759
9.6000,3.641
9.6400,3.742
9.6800,3.693
9.7200,3.691
9.7600,3.727
9.8000,3.670
9.8400,3.676
9.8800,3.710
9.9200,3.583
9.9600,3.568
10.0000,3.645
10.0400,3.704
10.0800,3.696
10.1200,3.670
10.1600,3.688
10.2000,3.637
10.2400,3.636
10.2800,3.653
10.3200,3.670
10.3600,3.633
10.4000,3.669
10.4400,3.670
10.4800,3.622
10.5200,3.635
10.5600,3.596
10.6000,3.677
10.6400,3.557
10.6800,3.525
10.7200,3.668
10.7600,3.535
10.8000,3.598
10.8400,3.519
10.8800,3.594
10.9200,3.565
10.9600,3.602
11.0000,3.516
11.0400,3.625
11.0800,3.636
11.1200,3.518
11.1600,3.608
11.2000,3.550
11.2400,3.550
11.2800,3.603
11.3200,3.552
11.3600,3.488
11.4000,3.531
11.4400,3.510
11.4800,3.531
11.5200,3.512
11.5600,3.560
11.6000,3.516
11.6400,3.485
11.6800,3.559
11.7200,3.566
11.7600,3.532
11.8000,3.437
11.8400,3.501
11.8800,3.533
11.9200,3.493
11.9600,3.619
12.0000,3.446
12.0400,3.424
12.0800,3.510
12.1200,3.432
12.1600,3.462
12.2000,3.398
12.2400,3.484
12.2800,3.556
12.3200,3.403
12.3600,3.505
12.4000,3.424
12.4400,3.326
12.4800,3.472
12.5200,3.489
12.5600,3.417
12.6000,3.442
12.6400,3.354
12.6800,3.401
12.7200,3.400
12.7600,3.347
12.8000,3.342
12.8400,3.473
12.8800,3.332
12.9200,3.494
12.9600,3.433
13.0000,3.413
13.0400,3.489
13.0800,3.410
13.1200,3.346
13.1600,3.369
13.2000,3.375
13.2400,3.430
13.2800,3.426
13.3200,3.357
13.3600,3.368
13.4000,3.325
13.4400,3.404
13.4800,3.329
13.5200,3.338
13.5600,3.356
13.6000,3.363
13.6400,3.304
13.6800,3.352
13.7200,3.323
13.7600,3.267
13.8000,3.313
13.8400,3.337
13.8800,3.333
13.9200,3.337
13.9600,3.364
14.0000,3.273
14.0400,3.209
14.0800,3.290
14.1200,3.329
14.1600,3.330
14.2000,3.417
14.2400,3.241
14.2800,3.177
14.3200,3.219
14.3600,3.298
14.4000,3.325
14.4400,3.213
14.4800,3.248
14.5200,3.180
14.5600,3.190
14.6000,3.257
14.6400,3.244
14.6800,3.189
14.7200,3.246
14.7600,3.170
14.8000,3.238
14.8400,3.269
14.8800,3.208
14.9200,3.149
14.9600,3.176
15.0000,3.217
15.0400,3.219
15.0800,3.230
15.1200,3.172
15.1600,3.216
15.2000,3.189
15.2400,3.230
15.2800,3.077
15.3200,3.118
15.3600,3.248
15.4000,3.182
15.4400,3.087
15.4800,3.217
15.5200,3.219
15.5600,3.212
15.6000,3.192
15.6400,3.091
15.6800,3.187
15.7200,3.061
15.7600,3.121
15.8000,3.057
15.8400,3.166
15.8800,3.063
15.9200,3.080
15.9600,3.241
16.0000,3.069
16.0400,3.245
16.0800,3.205
16.1200,3.175
16.1600,3.067
16.2000,3.154
16.2400,3.121
16.2800,3.053
16.3200,3.054
16.3600,3.024
16.4000,3.124
16.4400,3.000
16.4800,3.072
16.5200,3.048
16.5600,3.124
16.6000,2.989
16.6400,3.074
16.6800,3.021
16.7200,3.067
16.7600,2.944
16.8000,2.988
16.8400,3.131
16.8800,3.117
16.9200,3.045
16.9600,3.004
17.0000,3.027
17.0400,3.077
17.0800,3.040
17.1200,3.024
17.1600,3.028
17.2000,2.911
17.2400,2.933
17.2800,2.897
17.3200,3.021
17.3600,2.959
17.4000,2.959
17.4400,2.949
17.4800,3.053
17.5200,2.988
17.5600,2.993
17.6000,2.976
17.6400,3.020
17.6800,2.921
17.7200,3.028
17.7600,2.927
17.8000,3.033
17.8400,2.928
17.8800,2.996
17.9200,2.888
17.9600,2.857
18.0000,2.892
18.0400,3.000
18.0800,2.896
18.1200,2.928
18.1600,2.954
18.2000,2.900
18.2400,2.927
18.2800,2.895
18.3200,2.971
18.3600,2.917
18.4000,2.851
18.4400,2.845
18.4800,2.962
18.5200,2.839
18.5600,2.796
18.6000,2.852
18.6400,2.868
18.6800,2.821
18.7200,2.877
18.7600,2.972
18.8000,2.869
18.8400,2.852
18.8800,2.877
18.9200,2.876
18.9600,2.798
19.0000,2.870
19.0400,2.869
19.0800,2.904
19.1200,2.922
19.1600,2.734
19.2000,2.784
19.2400,2.882
19.2800,2.809
19.3200,2.756
19.3600,2.822
19.4000,2.880
19.4400,2.764
19.4800,2.829
19.5200,2.905
19.5600,2.848
19.6000,2.791
19.6400,2.747
19.6800,2.781
19.7200,2.795
19.7600,2.762
19.8000,2.799
19.8400,2.734
19.8800,2.711
19.9200,2.770
19.9600,2.786
20.0000,2.646
20.0400,2.773
20.0800,2.810
20.1200,2.798
20.1600,2.802
20.2000,2.769
20.2400,2.796
20.2800,2.773
20.3200,2.631
20.3600,2.699
20.4000,2.846
20.4400,2.798
20.4800,2.793
20.5200,2.772
20.5600,2.760
20.6000,2.655
20.6400,2.633
20.6800,2.627
20.7200,2.746
20.7600,2.677
20.8000,2.718
20.8400,2.733
20.8800,2.607
20.9200,2.649
20.9600,2.689
21.0000,2.669
21.0400,2.648
21.0800,2.672
21.1200,2.627
21.1600,2.612
21.2000,2.685
21.2400,2.697
21.2800,2.619
21.3200,2.639
21.3600,2.657
21.4000,2.647
21.4400,2.633
21.4800,2.661
21.5200,2.670
21.5600,2.646
21.6000,2.670
21.6400,2.739
21.6800,2.688
21.7200,2.642
21.7600,2.624
21.8000,2.647
21.8400,2.613
21.8800,2.569
21.9200,2.631
21.9600,2.596
22.0000,2.580
22.0400,2.567
22.0800,2.518
22.1200,2.609
22.1600,2.586
22.2000,2.524
22.2400,2.648
22.2800,2.604
22.3200,2.526
22.3600,2.499
22.4000,2.544
22.4400,2.519
22.4800,2.587
22.5200,2.586
22.5600,2.516
22.6000,2.519
22.6400,2.465
22.6800,2.557
22.7200,2.563
22.7600,2.511
22.8000,2.535
22.8400,2.405
22.8800,2.457
22.9200,2.445
22.9600,2.450
23.0000,2.401
23.0400,2.552
23.0800,2.498
23.1200,2.494
23.1600,2.427
23.2000,2.453
23.2400,2.560
23.2800,2.558
23.3200,2.452
23.3600,2.469
23.4000,2.501
23.4400,2.456
23.4800,2.473
23.5200,2.503
23.5600,2.457
23.6000,2.503
23.6400,2.492
23.6800,2.418
23.7200,2.487
23.7600,2.477
23.8000,2.494
23.8400,2.468
23.8800,2.390
23.9200,2.463
23.9600,2.552
24.0000,2.501
24.0400,2.486
24.0800,2.407
24.1200,2.337
24.1600,2.362
24.2000,2.450
24.2400,2.422
24.2800,2.353
24.3200,2.478
24.3600,2.429
24.4000,2.422
24.4400,2.393
24.4800,2.274
24.5200,2.324
24.5600,2.414
24.6000,2.313
24.6400,2.347
24.6800,2.407
24.7200,2.350
24.7600,2.372
24.8000,2.314
24.8400,2.389
24.8800,2.366
24.9200,2.376
24.9600,2.265
25.0000,2.323
25.0400,2.303
25.0800,2.363
25.1200,2.374
25.1600,2.344
25.2000,2.281
25.2400,2.348
25.2800,2.388
25.3200,2.351
25.3600,2.264
25.4000,2.306
25.4400,2.311
25.4800,2.329
25.5200,2.331
25.5600,2.252
25.6000,2.273
25.6400,2.237
25.6800,2.285
25.7200,2.256
25.7600,2.320
25.8000,2.244
25.8400,2.213
25.8800,2.201
25.9200,2.291
25.9600,2.168
26.0000,2.253
26.0400,2.184
26.0800,2.282
26.1200,2.241
26.1600,2.190
26.2000,2.272
26.2400,2.257
26.2800,2.233
26.3200,2.195
26.3600,2.190
26.4000,2.217
26.4400,2.288
26.4800,2.192
26.5200,2.156
26.5600,2.156
26.6000,2.204
26.6400,2.215
26.6800,2.185
26.7200,2.286
26.7600,2.190
26.8000,2.196
26.8400,2.169
26.8800,2.165
26.9200,2.229
26.9600,2.211
27.0000,2.211
27.0400,2.134
27.0800,2.281
27.1200,2.178
27.1600,2.107
27.2000,2.191
27.2400,2.150
27.2800,2.170
27.3200,2.095
27.3600,2.118
27.4000,2.160
27.4400,2.120
27.4800,2.161
27.5200,2.054
27.5600,2.059
27.6000,2.174
27.6400,2.103
27.6800,2.119
27.7200,2.061
27.7600,2.064
27.8000,2.056
27.8400,2.074
27.8800,2.056
27.9200,2.068
27.9600,2.083
28.0000,2.083
28.0400,2.097
28.0800,2.064
28.1200,2.053
28.1600,2.020
28.2000,2.059
28.2400,2.140
28.2800,2.089
28.3200,2.039
28.3600,2.043
28.4000,2.061
28.4400,2.107
28.4800,2.081
28.5200,2.125
28.5600,2.056
28.6000,2.058
28.6400,2.001
28.6800,2.091
28.7200,1.978
28.7600,2.023
28.8000,2.009
28.8400,2.003
28.8800,1.981
28.9200,2.029
28.9600,2.006
29.0000,1.951
29.0400,2.007
29.0800,1.973
29.1200,1.902
29.1600,2.035
29.2000,2.004
29.2400,1.940
29.2800,1.984
29.3200,1.967
29.3600,2.001
29.4000,1.907
29.4400,1.962
29.4800,1.890
29.5200,1.961
29.5600,1.882
29.6000,1.935
29.6400,1.963
29.6800,1.886
29.7200,1.967
29.7600,1.985
29.8000,1.937
29.8400,1.940
29.8800,1.946
29.9200,1.918
29.9600,1.950
30.0000,1.921
30.0400,1.982
30.0800,1.942
30.1200,1.924
30.1600,1.929
30.2000,1.905
30.2400,1.874
30.2800,1.903
30.3200,1.861
30.3600,1.874
30.4000,1.980
30.4400,1.935
30.4800,1.850
30.5200,1.826
30.5600,1.904
30.6000,1.906
30.6400,1.885
30.6800,1.866
30.7200,1.880
30.7600,1.885
30.8000,1.905
30.8400,1.904
30.8800,1.913
30.9200,1.868
30.9600,1.862
31.0000,1.846
31.0400,1.853
31.0800,1.841
31.1200,1.843
31.1600,1.896
31.2000,1.880
31.2400,1.850
31.2800,1.815
31.3200,1.809
31.3600,1.828
31.4000,1.816
31.4400,1.835
31.4800,1.775
31.5200,1.822
31.5600,1.771
31.6000,1.681
31.6400,1.795
31.6800,1.758
31.7200,1.808
31.7600,1.780
31.8000,1.808
31.8400,1.730
31.8800,1.770
31.9200,1.713
31.9600,1.764
32.0000,1.740
32.0400,1.721
32.0800,1.786
32.1200,1.726
32.1600,1.791
32.2000,1.734
32.2400,1.745
32.2800,1.731
32.3200,1.722
32.3600,1.713
32.4000,1.758
32.4400,1.739
32.4800,1.801
32.5200,1.800
32.5600,1.766
32.6000,1.653
32.6400,1.734
32.6800,1.812
32.7200,1.775
32.7600,1.715
32.8000,1.666
32.8400,1.696
32.8800,1.807
32.9200,1.730
32.9600,1.746
33.0000,1.648
33.0400,1.673
33.0800,1.642
33.1200,1.692
33.1600,1.660
33.2000,1.651
33.2400,1.699
33.2800,1.740
33.3200,1.688
33.3600,1.718
33.4000,1.679
33.4400,1.595
33.4800,1.637
33.5200,1.680
33.5600,1.681
33.6000,1.708
33.6400,1.652
33.6800,1.625
33.7200,1.677
33.7600,1.626
33.8000,1.680
33.8400,1.659
33.8800,1.645
33.9200,1.702
33.9600,1.607
34.0000,1.678
34.0400,1.600
34.0800,1.626
34.1200,1.677
34.1600,1.674
34.2000,1.620
34.2400,1.536
34.2800,1.619
34.3200,1.618
34.3600,1.676
34.4000,1.626
34.4400,1.566
34.4800,1.622
34.5200,1.576
34.5600,1.648
34.6000,1.623
34.6400,1.563
34.6800,1.675
34.7200,1.616
34.7600,1.594
34.8000,1.589
34.8400,1.551
34.8800,1.612
34.9200,1.580
34.9600,1.571
35.0000,1.499
35.0400,1.571
35.0800,1.628
35.1200,1.564
35.1600,1.598
35.2000,1.529
35.2400,1.591
35.2800,1.564
35.3200,1.563
35.3600,1.510
35.4000,1.552
35.4400,1.560
35.4800,1.522
35.5200,1.565
35.5600,1.567
35.6000,1.545
35.6400,1.522
35.6800,1.553
35.7200,1.535
35.7600,1.551
35.8000,1.532
35.8400,1.580
35.8800,1.553
35.9200,1.512
35.9600,1.479
36.0000,1.549
36.0400,1.565
36.0800,1.565
36.1200,1.472
36.1600,1.481
36.2000,1.540
36.2400,1.526
36.2800,1.480
36.3200,1.484
36.3600,1.602
36.4000,1.539
36.4400,1.525
36.4800,1.516
36.5200,1.460
36.5600,1.508
36.6000,1.484
36.6400,1.489
36.6800,1.503
36.7200,1.498
36.7600,1.502
36.8000,1.502
36.8400,1.498
36.8800,1.544
36.9200,1.586
36.9600,1.536
37.0000,1.484
37.0400,1.562
37.0800,1.488
37.1200,1.531
37.1600,1.555
37.2000,1.553
37.2400,1.525
37.2800,1.558
37.3200,1.536
37.3600,1.572
37.4000,1.607
37.4400,1.541
37.4800,1.504
37.5200,1.592
37.5600,1.644
37.6000,1.541
37.6400,1.627
37.6800,1.610
37.7200,1.585
37.7600,1.680
37.8000,1.554
37.8400,1.632
37.8800,1.613
37.9200,1.705
37.9600,1.593
38.0000,1.613
38.0400,1.701
38.0800,1.657
38.1200,1.611
38.1600,1.639
38.2000,1.730
38.2400,1.780
38.2800,1.737
38.3200,1.884
38.3600,1.857
38.4000,1.945
38.4400,1.991
38.4800,2.009
38.5200,2.147
38.5600,2.214
38.6000,2.342
38.6400,2.367
38.6800,2.546
38.7200,2.685
38.7600,2.844
38.8000,2.995
38.8400,3.262
38.8800,3.386
38.9200,3.534
38.9600,3.859
39.0000,4.037
39.0400,4.250
39.0800,4.511
39.1200,4.836
39.1600,5.015
39.2000,5.316
39.2400,5.589
39.2800,5.916
39.3200,6.236
39.3600,6.625
39.4000,6.821
39.4400,7.482
39.4800,7.758
39.5200,8.199
39.5600,8.673
39.6000,8.921
39.6400,9.386
39.6800,9.574
39.7200,9.804
39.7600,9.599
39.8000,9.482
39.8400,9.034
39.8800,8.764
39.9200,8.262
39.9600,7.893
40.0000,7.223
40.0400,6.931
40.0800,6.365
40.1200,6.013
40.1600,5.612
40.2000,5.162
40.2400,4.680
40.2800,4.539
40.3200,4.189
40.3600,4.032
40.4000,3.624
40.4400,3.439
40.4800,3.155
40.5200,2.997
40.5600,2.843
40.6000,2.634
40.6400,2.666
40.6800,2.459
40.7200,2.331
40.7600,2.324
40.8000,2.211
40.8400,2.091
40.8800,2.059
40.9200,1.971
40.9600,1.969
41.0000,1.886
41.0400,1.815
41.0800,1.726
41.1200,1.682
41.1600,1.743
41.2000,1.687
41.2400,1.643
41.2800,1.697
41.3200,1.613
41.3600,1.565
41.4000,1.558
41.4400,1.499
41.4800,1.531
41.5200,1.485
41.5600,1.461
41.6000,1.435
41.6400,1.466
41.6800,1.460
41.7200,1.453
41.7600,1.358
41.8000,1.397
41.8400,1.407
41.8800,1.388
41.9200,1.351
41.9600,1.367
42.0000,1.417
42.0400,1.378
42.0800,1.326
42.1200,1.316
42.1600,1.286
42.2000,1.303
42.2400,1.329
42.2800,1.360
42.3200,1.320
42.3600,1.253
42.4000,1.271
42.4400,1.418
42.4800,1.230
42.5200,1.321
42.5600,1.265
42.6000,1.213
42.6400,1.243
42.6800,1.312
42.7200,1.254
42.7600,1.245
42.8000,1.324
42.8400,1.304
42.8800,1.266
42.9200,1.245
42.9600,1.281
43.0000,1.238
43.0400,1.245
43.0800,1.249
43.1200,1.277
43.1600,1.225
43.2000,1.227
43.2400,1.294
43.2800,1.235
43.3200,1.222
43.3600,1.252
43.4000,1.231
43.4400,1.228
43.4800,1.213
43.5200,1.188
43.5600,1.210
43.6000,1.224
43.6400,1.220
43.6800,1.205
43.7200,1.211
43.7600,1.221
43.8000,1.199
43.8400,1.178
43.8800,1.260
43.9200,1.230
43.9600,1.212
44.0000,1.188
44.0400,1.233
44.0800,1.233
44.1200,1.264
44.1600,1.186
44.2000,1.242
44.2400,1.224
44.2800,1.279
44.3200,1.275
44.3600,1.285
44.4000,1.244
44.4400,1.284
44.4800,1.312
44.5200,1.347
44.5600,1.340
44.6000,1.377
44.6400,1.374
44.6800,1.373
44.7200,1.434
44.7600,1.477
44.8000,1.418
44.8400,1.456
44.8800,1.528
44.9200,1.566
44.9600,1.541
45.0000,1.532
45.0400,1.589
45.0800,1.614
45.1200,1.746
45.1600,1.714
45.2000,1.826
45.2400,1.849
45.2800,1.871
45.3200,1.928
45.3600,1.925
45.4000,1.928
45.4400,2.050
45.4800,2.081
45.5200,2.148
45.5600,2.319
45.6000,2.418
45.6400,2.329
45.6800,2.495
45.7200,2.604
45.7600,2.532
45.8000,2.641
45.8400,2.745
45.8800,2.950
45.9200,2.961
45.9600,3.077
46.0000,3.155
46.0400,3.214
46.0800,3.266
46.1200,3.305
46.1600,3.441
46.2000,3.411
46.2400,3.376
46.2800,3.336
46.3200,3.285
46.3600,3.260
46.4000,3.157
46.4400,3.088
46.4800,2.882
46.5200,2.881
46.5600,2.788
46.6000,2.657
46.6400,2.468
46.6800,2.388
46.7200,2.293
46.7600,2.227
46.8000,2.101
46.8400,2.105
46.8800,2.035
46.9200,1.973
46.9600,1.745
47.0000,1.818
47.0400,1.668
47.0800,1.675
47.1200,1.529
47.1600,1.519
47.2000,1.507
47.2400,1.465
47.2800,1.352
47.3200,1.391
47.3600,1.401
47.4000,1.327
47.4400,1.256
47.4800,1.287
47.5200,1.230
47.5600,1.202
47.6000,1.208
47.6400,1.149
47.6800,1.166
47.7200,1.150
47.7600,1.057
47.8000,1.089
47.8400,1.030
47.8800,1.043
47.9200,1.086
47.9600,1.086
48.0000,1.076
48.0400,1.027
48.0800,1.055
48.1200,1.004
48.1600,0.998
48.2000,0.980
48.2400,0.939
48.2800,0.964
48.3200,0.959
48.3600,0.985
48.4000,0.965
48.4400,0.980
48.4800,0.956
48.5200,0.909
48.5600,0.899
48.6000,0.909
48.6400,0.907
48.6800,0.945
48.7200,0.960
48.7600,0.900
48.8000,0.917
48.8400,0.925
48.8800,0.974
48.9200,0.864
48.9600,0.909
49.0000,0.918
49.0400,0.846
49.0800,0.853
49.1200,0.851
49.1600,0.912
49.2000,0.882
49.2400,0.853
49.2800,0.909
49.3200,0.881
49.3600,0.909
49.4000,0.901
49.4400,0.891
49.4800,0.938
49.5200,0.849
49.5600,0.871
49.6000,0.880
49.6400,0.857
49.6800,0.866
49.7200,0.852
49.7600,0.827
49.8000,0.807
49.8400,0.793
49.8800,0.876
49.9200,0.886
49.9600,0.872
50.0000,0.854
50.0400,0.836
50.0800,0.815
50.1200,0.800
50.1600,0.808
50.2000,0.843
50.2400,0.842
50.2800,0.862
50.3200,0.785
50.3600,0.778
50.4000,0.800
50.4400,0.804
50.4800,0.765
50.5200,0.810
50.5600,0.797
50.6000,0.801
50.6400,0.778
50.6800,0.872
50.7200,0.783
50.7600,0.795
50.8000,0.782
50.8400,0.843
50.8800,0.799
50.9200,0.798
50.9600,0.779
51.0000,0.792
51.0400,0.796
51.0800,0.813
51.1200,0.785
51.1600,0.820
51.2000,0.762
51.2400,0.748
51.2800,0.764
51.3200,0.775
51.3600,0.759
51.4000,0.808
51.4400,0.797
51.4800,0.777
51.5200,0.792
51.5600,0.749
51.6000,0.776
51.6400,0.765
51.6800,0.744
51.7200,0.755
51.7600,0.792
51.8000,0.745
51.8400,0.785
51.8800,0.719
51.9200,0.772
51.9600,0.757
52.0000,0.744
52.0400,0.763
52.0800,0.751
52.1200,0.798
52.1600,0.728
52.2000,0.749
52.2400,0.747
52.2800,0.752
52.3200,0.766
52.3600,0.787
52.4000,0.733
52.4400,0.767
52.4800,0.779
52.5200,0.781
52.5600,0.754
52.6000,0.752
52.6400,0.706
52.6800,0.765
52.7200,0.686
52.7600,0.724
52.8000,0.715
52.8400,0.719
52.8800,0.727
52.9200,0.732
52.9600,0.743
53.0000,0.727
53.0400,0.735
53.0800,0.708
53.1200,0.762
53.1600,0.704
53.2000,0.711
53.2400,0.728
53.2800,0.753
53.3200,0.695
53.3600,0.701
53.4000,0.740
53.4400,0.721
53.4800,0.720
53.5200,0.771
53.5600,0.714
53.6000,0.754
53.6400,0.741
53.6800,0.753
53.7200,0.687
53.7600,0.730
53.8000,0.693
53.8400,0.747
53.8800,0.677
53.9200,0.700
53.9600,0.703
54.0000,0.688
54.0400,0.685
54.0800,0.703
54.1200,0.714
54.1600,0.642
54.2000,0.677
54.2400,0.687
54.2800,0.730
54.3200,0.712
54.3600,0.679
54.4000,0.665
54.4400,0.685
54.4800,0.669
54.5200,0.704
54.5600,0.719
54.6000,0.690
54.6400,0.721
54.6800,0.712
54.7200,0.739
54.7600,0.716
54.8000,0.673
54.8400,0.682
54.8800,0.709
54.9200,0.702
54.9600,0.685
55.0000,0.637
55.0400,0.681
55.0800,0.691
55.1200,0.701
55.1600,0.690
55.2000,0.648
55.2400,0.698
55.2800,0.684
55.3200,0.688
55.3600,0.629
55.4000,0.666
55.4400,0.705
55.4800,0.628
55.5200,0.671
55.5600,0.703
55.6000,0.642
55.6400,0.707
55.6800,0.674
55.7200,0.628
55.7600,0.681
55.8000,0.660
55.8400,0.654
55.8800,0.648
55.9200,0.653
55.9600,0.644
56.0000,0.627
56.0400,0.641
56.0800,0.650
56.1200,0.665
56.1600,0.663
56.2000,0.661
56.2400,0.609
56.2800,0.674
56.3200,0.691
56.3600,0.669
56.4000,0.652
56.4400,0.680
56.4800,0.680
56.5200,0.650
56.5600,0.632
56.6000,0.642
56.6400,0.658
56.6800,0.651
56.7200,0.647
56.7600,0.623
56.8000,0.680
56.8400,0.654
56.8800,0.653
56.9200,0.672
56.9600,0.598
57.0000,0.651
57.0400,0.625
57.0800,0.633
57.1200,0.638
57.1600,0.682
57.2000,0.681
57.2400,0.619
57.2800,0.657
57.3200,0.645
57.3600,0.633
57.4000,0.661
57.4400,0.689
57.4800,0.621
57.5200,0.607
57.5600,0.647
57.6000,0.651
57.6400,0.658
57.6800,0.630
57.7200,0.617
57.7600,0.652
57.8000,0.648
57.8400,0.623
57.8800,0.616
57.9200,0.608
57.9600,0.661
58.0000,0.643
58.0400,0.663
58.0800,0.650
58.1200,0.618
58.1600,0.608
58.2000,0.655
58.2400,0.654
58.2800,0.642
58.3200,0.666
58.3600,0.610
58.4000,0.596
58.4400,0.626
58.4800,0.621
58.5200,0.596
58.5600,0.615
58.6000,0.615
58.6400,0.641
58.6800,0.599
58.7200,0.602
58.7600,0.619
58.8000,0.598
58.8400,0.595
58.8800,0.595
58.9200,0.633
58.9600,0.578
59.0000,0.669
59.0400,0.608
59.0800,0.655
59.1200,0.603
59.1600,0.598
59.2000,0.616
59.2400,0.644
59.2800,0.617
59.3200,0.579
59.3600,0.588
59.4000,0.629
59.4400,0.599
59.4800,0.608
59.5200,0.629
59.5600,0.609
59.6000,0.593
59.6400,0.604
59.6800,0.573
59.7200,0.586
59.7600,0.571
59.8000,0.596
59.8400,0.610
59.8800,0.591
59.9200,0.592
59.9600,0.588
60.0000,0.573
60.0400,0.615
60.0800,0.582
60.1200,0.577
60.1600,0.542
60.2000,0.596
60.2400,0.560
60.2800,0.570
60.3200,0.560
60.3600,0.607
60.4000,0.579
60.4400,0.569
60.4800,0.551
60.5200,0.564
60.5600,0.588
60.6000,0.610
60.6400,0.590
60.6800,0.584
60.7200,0.572
60.7600,0.565
60.8000,0.571
60.8400,0.575
60.8800,0.565
60.9200,0.557
60.9600,0.553
61.0000,0.563
61.0400,0.583
61.0800,0.549
61.1200,0.515
61.1600,0.580
61.2000,0.541
61.2400,0.554
61.2800,0.579
61.3200,0.533
61.3600,0.563
61.4000,0.576
61.4400,0.569
61.4800,0.534
61.5200,0.586
61.5600,0.556
61.6000,0.559
61.6400,0.641
61.6800,0.695
61.7200,0.626
61.7600,0.584
61.8000,0.577
61.8400,0.576
61.8800,0.572
61.9200,0.553
61.9600,0.570
62.0000,0.557
62.0400,0.543
62.0800,0.517
62.1200,0.558
62.1600,0.522
62.2000,0.543
62.2400,0.493
62.2800,0.534
62.3200,0.550
62.3600,0.567
62.4000,0.565
62.4400,0.630
62.4800,0.582
62.5200,0.591
62.5600,0.557
62.6000,0.548
62.6400,0.539
62.6800,0.523
62.7200,0.591
62.7600,0.547
62.8000,0.556
62.8400,0.519
62.8800,0.559
62.9200,0.572
62.9600,0.539
63.0000,0.541
63.0400,0.578
63.0800,0.571
63.1200,0.577
63.1600,0.582
63.2000,0.527
63.2400,0.545
63.2800,0.594
63.3200,0.536
63.3600,0.533
63.4000,0.542
63.4400,0.586
63.4800,0.593
63.5200,0.528
63.5600,0.556
63.6000,0.485
63.6400,0.567
63.6800,0.551
63.7200,0.593
63.7600,0.542
63.8000,0.555
63.8400,0.565
63.8800,0.541
63.9200,0.569
63.9600,0.598
64.0000,0.587
64.0400,0.576
64.0800,0.565
64.1200,0.592
64.1600,0.563
64.2000,0.610
64.2400,0.550
64.2800,0.574
64.3200,0.594
64.3600,0.569
64.4000,0.618
64.4400,0.599
64.4800,0.580
64.5200,0.569
64.5600,0.589
64.6000,0.594
64.6400,0.579
64.6800,0.640
64.7200,0.587
64.7600,0.622
64.8000,0.599
64.8400,0.626
64.8800,0.613
64.9200,0.659
64.9600,0.642
65.0000,0.623
65.0400,0.620
65.0800,0.647
65.1200,0.638
65.1600,0.619
65.2000,0.670
65.2400,0.672
65.2800,0.719
65.3200,0.691
65.3600,0.728
65.4000,0.728
65.4400,0.722
65.4800,0.709
65.5200,0.750
65.5600,0.748
65.6000,0.759
65.6400,0.815
65.6800,0.814
65.7200,0.810
65.7600,0.811
65.8000,0.848
65.8400,0.867
65.8800,0.929
65.9200,0.927
65.9600,0.869
66.0000,0.914
66.0400,0.963
66.0800,0.904
66.1200,0.934
66.1600,1.015
66.2000,1.029
66.2400,1.082
66.2800,1.115
66.3200,1.073
66.3600,1.160
66.4000,1.133
66.4400,1.108
66.4800,1.129
66.5200,1.184
66.5600,1.216
66.6000,1.252
66.6400,1.239
66.6800,1.284
66.7200,1.265
66.7600,1.348
66.8000,1.396
66.8400,1.442
66.8800,1.448
66.9200,1.458
66.9600,1.510
67.0000,1.552
67.0400,1.525
67.0800,1.657
67.1200,1.674
67.1600,1.701
67.2000,1.740
67.2400,1.812
67.2800,1.870
67.3200,1.923
67.3600,1.933
67.4000,1.907
67.4400,1.919
67.4800,1.966
67.5200,1.909
67.5600,2.030
67.6000,1.964
67.6400,2.027
67.6800,1.969
67.7200,2.022
67.7600,2.020
67.8000,1.983
67.8400,1.907
67.8800,1.936
67.9200,1.949
67.9600,1.999
68.0000,1.947
68.0400,1.969
68.0800,1.917
68.1200,1.927
68.1600,1.919
68.2000,2.039
68.2400,2.015
68.2800,2.019
68.3200,2.045
68.3600,2.071
68.4000,2.112
68.4400,2.225
68.4800,2.257
68.5200,2.343
68.5600,2.351
68.6000,2.493
68.6400,2.708
68.6800,3.063
68.7200,3.623
68.7600,4.564
68.8000,5.571
68.8400,5.894
68.8800,6.202
68.9200,6.928
68.9600,8.598
69.0000,12.502
69.0400,22.123
69.0800,69.567
69.1200,284.965
69.1600,364.751
69.2000,151.244
69.2400,43.241
69.2800,54.797
69.3200,158.395
69.3600,183.587
69.4000,74.705
69.4400,20.686
69.4800,10.753
69.5200,7.662
69.5600,5.889
69.6000,4.804
69.6400,4.230
69.6800,3.546
69.7200,3.253
69.7600,3.025
69.8000,2.773
69.8400,2.541
69.8800,2.386
69.9200,2.269
69.9600,2.068
70.0000,2.039
70.0400,2.001
70.0800,1.918
70.1200,1.872
70.1600,1.814
70.2000,1.722
70.2400,1.668
70.2800,1.672
70.3200,1.541
70.3600,1.496
70.4000,1.455
70.4400,1.462
70.4800,1.351
70.5200,1.338
70.5600,1.278
70.6000,1.294
70.6400,1.269
70.6800,1.204
70.7200,1.180
70.7600,1.210
70.8000,1.133
70.8400,1.067
70.8800,1.046
70.9200,1.034
70.9600,1.008
71.0000,0.999
71.0400,0.957
71.0800,0.935
71.1200,0.916
71.1600,0.954
71.2000,0.882
71.2400,0.796
71.2800,0.858
71.3200,0.870
71.3600,0.884
71.4000,0.818
71.4400,0.804
71.4800,0.820
71.5200,0.802
71.5600,0.770
71.6000,0.797
71.6400,0.744
71.6800,0.732
71.7200,0.752
71.7600,0.705
71.8000,0.671
71.8400,0.752
71.8800,0.713
71.9200,0.660
71.9600,0.675
72.0000,0.629
72.0400,0.608
72.0800,0.624
72.1200,0.642
72.1600,0.594
72.2000,0.603
72.2400,0.627
72.2800,0.595
72.3200,0.586
72.3600,0.601
72.4000,0.630
72.4400,0.573
72.4800,0.583
72.5200,0.573
72.5600,0.551
72.6000,0.534
72.6400,0.522
72.6800,0.505
72.7200,0.529
72.7600,0.561
72.8000,0.552
72.8400,0.526
72.8800,0.551
72.9200,0.513
72.9600,0.519
73.0000,0.505
73.0400,0.477
73.0800,0.503
73.1200,0.516
73.1600,0.445
73.2000,0.516
73.2400,0.460
73.2800,0.496
73.3200,0.497
73.3600,0.498
73.4000,0.468
73.4400,0.492
73.4800,0.467
73.5200,0.438
73.5600,0.475
73.6000,0.488
73.6400,0.473
73.6800,0.485
73.7200,0.440
73.7600,0.459
73.8000,0.469
73.8400,0.465
73.8800,0.451
73.9200,0.440
73.9600,0.451
74.0000,0.445
74.0400,0.438
74.0800,0.426
74.1200,0.451
74.1600,0.444
74.2000,0.418
74.2400,0.426
74.2800,0.402
74.3200,0.412
74.3600,0.404
74.4000,0.415
74.4400,0.449
74.4800,0.394
74.5200,0.393
74.5600,0.413
74.6000,0.400
74.6400,0.394
74.6800,0.399
74.7200,0.441
74.7600,0.425
74.8000,0.396
74.8400,0.398
74.8800,0.417
74.9200,0.386
74.9600,0.420
75.0000,0.352
75.0400,0.413
75.0800,0.389
75.1200,0.377
75.1600,0.380
75.2000,0.386
75.2400,0.385
75.2800,0.410
75.3200,0.408
75.3600,0.373
75.4000,0.378
75.4400,0.357
75.4800,0.409
75.5200,0.396
75.5600,0.376
75.6000,0.374
75.6400,0.397
75.6800,0.366
75.7200,0.420
75.7600,0.372
75.8000,0.371
75.8400,0.362
75.8800,0.359
75.9200,0.352
75.9600,0.353
76.0000,0.380
76.0400,0.382
76.0800,0.374
76.1200,0.382
76.1600,0.398
76.2000,0.395
76.2400,0.372
76.2800,0.361
76.3200,0.370
76.3600,0.349
76.4000,0.371
76.4400,0.359
76.4800,0.351
76.5200,0.364
76.5600,0.389
76.6000,0.378
76.6400,0.381
76.6800,0.384
76.7200,0.381
76.7600,0.401
76.8000,0.384
76.8400,0.349
76.8800,0.377
76.9200,0.332
76.9600,0.380
77.0000,0.385
77.0400,0.354
77.0800,0.345
77.1200,0.353
77.1600,0.368
77.2000,0.401
77.2400,0.393
77.2800,0.371
77.3200,0.347
77.3600,0.380
77.4000,0.367
77.4400,0.398
77.4800,0.336
77.5200,0.373
77.5600,0.356
77.6000,0.379
77.6400,0.379
77.6800,0.324
77.7200,0.380
77.7600,0.377
77.8000,0.336
77.8400,0.373
77.8800,0.336
77.9200,0.335
77.9600,0.382
78.0000,0.358
78.0400,0.391
78.0800,0.388
78.1200,0.378
78.1600,0.359
78.2000,0.386
78.2400,0.356
78.2800,0.430
78.3200,0.384
78.3600,0.400
78.4000,0.393
78.4400,0.392
78.4800,0.401
78.5200,0.404
78.5600,0.387
78.6000,0.375
78.6400,0.395
78.6800,0.404
78.7200,0.395
78.7600,0.396
78.8000,0.418
78.8400,0.384
78.8800,0.392
78.9200,0.431
78.9600,0.439
79.0000,0.440
79.0400,0.453
79.0800,0.445
79.1200,0.459
79.1600,0.490
79.2000,0.523
79.2400,0.464
79.2800,0.513
79.3200,0.502
79.3600,0.517
79.4000,0.531
79.4400,0.536
79.4800,0.516
79.5200,0.519
79.5600,0.558
79.6000,0.529
79.6400,0.569
79.6800,0.553
79.7200,0.552
79.7600,0.596
79.8000,0.613
79.8400,0.586
79.8800,0.619
79.9200,0.609
79.9600,0.626
80.0000,0.647
