theta,intensity
5.0000,4.477
5.0400,4.604
5.0800,4.682
5.1200,4.509
5.1600,4.527
5.2000,4.428
5.2400,4.459
5.2800,4.342
5.3200,4.483
5.3600,4.519
5.4000,4.248
5.4400,4.380
5.4800,4.389
5.5200,4.317
5.5600,4.283
5.6000,4.237
5.6400,4.253
5.6800,4.312
5.7200,4.319
5.7600,4.186
5.8000,4.194
5.8400,4.096
5.8800,4.215
5.9200,4.208
5.9600,4.045
6.0000,4.101
6.0400,4.079
6.0800,4.138
6.1200,4.103
6.1600,4.165
6.2000,4.072
6.2400,4.070
6.2800,4.061
6.3200,4.086
6.3600,4.042
6.4000,4.087
6.4400,4.058
6.4800,4.023
6.5200,4.071
6.5600,3.959
6.6000,4.008
6.6400,4.082
6.6800,3.969
6.7200,4.002
6.7600,4.111
6.8000,4.084
6.8400,4.058
6.8800,3.959
6.9200,3.983
6.9600,3.898
7.0000,3.958
7.0400,3.954
7.0800,3.938
7.1200,3.946
7.1600,4.048
7.2000,3.959
7.2400,3.971
7.2800,3.850
7.3200,3.826
7.3600,3.950
7.4000,3.976
7.4400,4.005
7.4800,3.940
7.5200,3.996
7.5600,3.891
7.6000,3.907
7.6400,3.899
7.6800,3.830
7.7200,3.870
7.7600,3.830
7.8000,3.912
7.8400,3.813
7.8800,3.780
7.9200,3.829
7.9600,3.908
8.0000,3.918
8.0400,3.791
8.0800,3.877
8.1200,3.778
8.1600,3.788
8.2000,3.859
8.2400,3.795
8.2800,3.724
8.3200,3.838
8.3600,3.933
8.4000,3.889
8.4400,3.776
8.4800,3.771
8.5200,3.811
8.5600,3.823
8.6000,3.737
8.6400,3.767
8.6800,3.762
8.7200,3.751
8.7600,3.742
8.8000,3.746
8.8400,3.832
8.8800,3.809
8.9200,3.714
8.9600,3.692
9.0000,3.716
9.0400,3.819
9.0800,3.752
9.1200,3.723
9.1600,3.765
9.2000,3.661
9.2400,3.699
9.2800,3.714
9.3200,3.734
9.3600,3.700
9.4000,3.623
9.4400,3.618
9.4800,3.733
9.5200,3.699
9.5600,3.674
9.6000,3.680
9.6400,3.652
9.6800,3.615
9.7200,3.644
9.7600,3.638
9.8000,3.572
9.8400,3.637
9.8800,3.635
9.9200,3.562
9.9600,3.608
10.0000,3.705
10.0400,3.668
10.0800,3.654
10.1200,3.614
10.1600,3.689
10.2000,3.596
10.2400,3.611
10.2800,3.647
10.3200,3.622
10.3600,3.524
10.4000,3.551
10.4400,3.491
10.4800,3.611
10.5200,3.473
10.5600,3.575
10.6000,3.597
10.6400,3.580
10.6800,3.644
10.7200,3.581
10.7600,3.566
10.8000,3.529
10.8400,3.508
10.8800,3.508
10.9200,3.576
10.9600,3.450
11.0000,3.411
11.0400,3.550
11.0800,3.435
11.1200,3.582
11.1600,3.502
11.2000,3.511
11.2400,3.492
11.2800,3.512
11.3200,3.433
11.3600,3.437
11.4000,3.464
11.4400,3.502
11.4800,3.544
11.5200,3.475
11.5600,3.404
11.6000,3.488
11.6400,3.420
11.6800,3.487
11.7200,3.368
11.7600,3.511
11.8000,3.475
11.8400,3.351
11.8800,3.449
11.9200,3.375
11.9600,3.287
12.0000,3.347
12.0400,3.402
12.0800,3.343
12.1200,3.383
12.1600,3.457
12.2000,3.400
12.2400,3.380
12.2800,3.338
12.3200,3.400
12.3600,3.449
12.4000,3.476
12.4400,3.396
12.4800,3.453
12.5200,3.386
12.5600,3.531
12.6000,3.416
12.6400,3.427
12.6800,3.439
12.7200,3.404
12.7600,3.264
12.8000,3.411
12.8400,3.323
12.8800,3.284
12.9200,3.347
12.9600,3.385
13.0000,3.201
13.0400,3.279
13.0800,3.256
13.1200,3.241
13.1600,3.387
13.2000,3.371
13.2400,3.230
13.2800,3.291
13.3200,3.227
13.3600,3.346
13.4000,3.302
13.4400,3.319
13.4800,3.289
13.5200,3.236
13.5600,3.282
13.6000,3.270
13.6400,3.248
13.6800,3.295
13.7200,3.288
13.7600,3.281
13.8000,3.287
13.8400,3.267
13.8800,3.219
13.9200,3.242
13.9600,3.181
14.0000,3.159
14.0400,3.252
14.0800,3.259
14.1200,3.201
14.1600,3.146
14.2000,3.259
14.2400,3.196
14.2800,3.203
14.3200,3.190
14.3600,3.222
14.4000,3.323
14.4400,3.281
14.4800,3.289
14.5200,3.222
14.5600,3.139
14.6000,3.188
14.6400,3.129
14.6800,3.203
14.7200,3.255
14.7600,3.258
14.8000,3.166
14.8400,3.132
14.8800,3.189
14.9200,3.140
14.9600,3.182
15.0000,3.168
15.0400,3.265
15.0800,3.177
15.1200,3.124
15.1600,3.033
15.2000,3.121
15.2400,3.056
15.2800,3.086
15.3200,3.063
15.3600,2.998
15.4000,3.106
15.4400,3.062
15.4800,3.151
15.5200,3.138
15.5600,3.063
15.6000,3.141
15.6400,3.138
15.6800,3.169
15.7200,2.969
15.7600,3.081
15.8000,3.141
15.8400,3.015
15.8800,3.006
15.9200,3.013
15.9600,3.073
16.0000,3.123
16.0400,2.970
16.0800,3.074
16.1200,3.055
16.1600,3.035
16.2000,2.935
16.2400,3.080
16.2800,3.149
16.3200,2.965
16.3600,3.008
16.4000,3.036
16.4400,3.015
16.4800,2.964
16.5200,3.012
16.5600,3.131
16.6000,2.957
16.6400,3.070
16.6800,2.996
16.7200,3.027
16.7600,2.994
16.8000,2.926
16.8400,2.900
16.8800,3.012
16.9200,3.038
16.9600,3.068
17.0000,2.971
17.0400,2.996
17.0800,2.976
17.1200,2.922
17.1600,2.893
17.2000,2.891
17.2400,2.933
17.2800,3.010
17.3200,2.929
17.3600,2.944
17.4000,3.022
17.4400,2.929
17.4800,2.884
17.5200,2.982
17.5600,2.930
17.6000,2.869
17.6400,2.955
17.6800,2.862
17.7200,2.863
17.7600,2.895
17.8000,2.934
17.8400,2.861
17.8800,2.906
17.9200,3.029
17.9600,2.863
18.0000,2.873
18.0400,2.855
18.0800,2.921
18.1200,2.916
18.1600,2.890
18.2000,2.847
18.2400,2.852
18.2800,2.850
18.3200,2.926
18.3600,2.853
18.4000,2.753
18.4400,2.842
18.4800,2.789
18.5200,2.785
18.5600,2.854
18.6000,2.770
18.6400,2.798
18.6800,2.853
18.7200,2.779
18.7600,2.743
18.8000,2.762
18.8400,2.794
18.8800,2.827
18.9200,2.798
18.9600,2.802
19.0000,2.709
19.0400,2.770
19.0800,2.764
19.1200,2.732
19.1600,2.731
19.2000,2.863
19.2400,2.792
19.2800,2.771
19.3200,2.749
19.3600,2.789
19.4000,2.745
19.4400,2.755
19.4800,2.753
19.5200,2.776
19.5600,2.781
19.6000,2.755
19.6400,2.710
19.6800,2.742
19.7200,2.689
19.7600,2.697
19.8000,2.744
19.8400,2.686
19.8800,2.843
19.9200,2.750
19.9600,2.637
20.0000,2.630
20.0400,2.739
20.0800,2.729
20.1200,2.687
20.1600,2.776
20.2000,2.756
20.2400,2.618
20.2800,2.752
20.3200,2.612
20.3600,2.727
20.4000,2.691
20.4400,2.601
20.4800,2.658
20.5200,2.719
20.5600,2.713
20.6000,2.733
20.6400,2.686
20.6800,2.682
20.7200,2.663
20.7600,2.696
20.8000,2.761
20.8400,2.729
20.8800,2.755
20.9200,2.766
20.9600,2.715
21.0000,2.729
21.0400,2.909
21.0800,2.762
21.1200,2.855
21.1600,2.841
21.2000,2.942
21.2400,3.029
21.2800,3.139
21.3200,3.135
21.3600,3.261
21.4000,3.302
21.4400,3.369
21.4800,3.315
21.5200,3.499
21.5600,3.438
21.6000,3.439
21.6400,3.468
21.6800,3.230
21.7200,3.205
21.7600,3.157
21.8000,2.964
21.8400,2.965
21.8800,2.873
21.9200,2.784
21.9600,2.814
22.0000,2.797
22.0400,2.768
22.0800,2.697
22.1200,2.651
22.1600,2.571
22.2000,2.535
22.2400,2.573
22.2800,2.617
22.3200,2.548
22.3600,2.561
22.4000,2.541
22.4400,2.517
22.4800,2.601
22.5200,2.586
22.5600,2.566
22.6000,2.594
22.6400,2.567
22.6800,2.567
22.7200,2.566
22.7600,2.440
22.8000,2.388
22.8400,2.500
22.8800,2.470
22.9200,2.430
22.9600,2.397
23.0000,2.389
23.0400,2.444
23.0800,2.380
23.1200,2.435
23.1600,2.373
23.2000,2.472
23.2400,2.433
23.2800,2.371
23.3200,2.465
23.3600,2.472
23.4000,2.418
23.4400,2.456
23.4800,2.453
23.5200,2.506
23.5600,2.506
23.6000,2.377
23.6400,2.391
23.6800,2.463
23.7200,2.491
23.7600,2.498
23.8000,2.417
23.8400,2.345
23.8800,2.345
23.9200,2.350
23.9600,2.376
24.0000,2.243
24.0400,2.236
24.0800,2.392
24.1200,2.386
24.1600,2.318
24.2000,2.322
24.2400,2.381
24.2800,2.351
24.3200,2.323
24.3600,2.303
24.4000,2.348
24.4400,2.328
24.4800,2.308
24.5200,2.337
24.5600,2.238
24.6000,2.274
24.6400,2.243
24.6800,2.281
24.7200,2.256
24.7600,2.270
24.8000,2.248
24.8400,2.253
24.8800,2.236
24.9200,2.277
24.9600,2.231
25.0000,2.205
25.0400,2.251
25.0800,2.237
25.1200,2.273
25.1600,2.177
25.2000,2.231
25.2400,2.279
25.2800,2.191
25.3200,2.228
25.3600,2.294
25.4000,2.218
25.4400,2.190
25.4800,2.183
25.5200,2.206
25.5600,2.296
25.6000,2.279
25.6400,2.233
25.6800,2.243
25.7200,2.132
25.7600,2.179
25.8000,2.246
25.8400,2.194
25.8800,2.144
25.9200,2.200
25.9600,2.238
26.0000,2.096
26.0400,2.145
26.0800,2.210
26.1200,2.158
26.1600,2.160
26.2000,2.223
26.2400,2.158
26.2800,2.196
26.3200,2.206
26.3600,2.169
26.4000,2.212
26.4400,2.137
26.4800,2.095
26.5200,2.207
26.5600,2.118
26.6000,2.176
26.6400,2.069
26.6800,2.116
26.7200,2.144
26.7600,2.211
26.8000,2.233
26.8400,2.088
26.8800,2.127
26.9200,2.140
26.9600,2.090
27.0000,2.145
27.0400,2.138
27.0800,2.160
27.1200,2.034
27.1600,2.099
27.2000,2.144
27.2400,2.066
27.2800,2.062
27.3200,2.151
27.3600,2.091
27.4000,2.126
27.4400,2.061
27.4800,2.063
27.5200,2.034
27.5600,2.117
27.6000,2.048
27.6400,2.017
27.6800,2.087
27.7200,2.080
27.7600,2.043
27.8000,2.002
27.8400,2.054
27.8800,2.115
27.9200,2.084
27.9600,2.037
28.0000,2.027
28.0400,2.040
28.0800,2.077
28.1200,2.018
28.1600,2.046
28.2000,2.064
28.2400,2.047
28.2800,2.026
28.3200,2.106
28.3600,2.084
28.4000,2.107
28.4400,2.099
28.4800,2.099
28.5200,2.070
28.5600,2.061
28.6000,2.081
28.6400,2.133
28.6800,2.124
28.7200,2.098
28.7600,2.118
28.8000,2.098
28.8400,2.102
28.8800,2.138
28.9200,2.096
28.9600,2.124
29.0000,2.081
29.0400,2.091
29.0800,2.172
29.1200,2.216
29.1600,2.115
29.2000,2.121
29.2400,2.114
29.2800,2.103
29.3200,2.143
29.3600,2.158
29.4000,2.215
29.4400,2.182
29.4800,2.189
29.5200,2.268
29.5600,2.366
29.6000,2.346
29.6400,2.421
29.6800,2.395
29.7200,2.472
29.7600,2.540
29.8000,2.595
29.8400,2.658
29.8800,2.797
29.9200,2.917
29.9600,3.056
30.0000,3.203
30.0400,3.417
30.0800,3.640
30.1200,3.765
30.1600,3.987
30.2000,4.508
30.2400,4.885
30.2800,5.382
30.3200,5.925
30.3600,6.451
30.4000,7.116
30.4400,7.642
30.4800,8.559
30.5200,9.191
30.5600,9.797
30.6000,10.398
30.6400,10.667
30.6800,10.550
30.7200,10.179
30.7600,9.573
30.8000,8.859
30.8400,8.063
30.8800,7.454
30.9200,6.703
30.9600,6.307
31.0000,5.524
31.0400,4.933
31.0800,4.527
31.1200,4.312
31.1600,3.906
31.2000,3.643
31.2400,3.471
31.2800,3.213
31.3200,3.162
31.3600,2.830
31.4000,2.825
31.4400,2.621
31.4800,2.558
31.5200,2.418
31.5600,2.381
31.6000,2.266
31.6400,2.217
31.6800,2.269
31.7200,2.054
31.7600,2.060
31.8000,2.095
31.8400,2.149
31.8800,2.104
31.9200,2.075
31.9600,1.976
32.0000,1.978
32.0400,2.005
32.0800,1.943
32.1200,1.946
32.1600,1.887
32.2000,1.897
32.2400,1.856
32.2800,1.870
32.3200,1.949
32.3600,1.823
32.4000,1.815
32.4400,1.742
32.4800,1.749
32.5200,1.890
32.5600,1.828
32.6000,1.839
32.6400,1.908
32.6800,1.853
32.7200,1.802
32.7600,1.850
32.8000,1.784
32.8400,1.779
32.8800,1.866
32.9200,1.822
32.9600,1.833
33.0000,1.838
33.0400,1.867
33.0800,1.816
33.1200,1.841
33.1600,1.779
33.2000,1.757
33.2400,1.787
33.2800,1.718
33.3200,1.751
33.3600,1.749
33.4000,1.811
33.4400,1.775
33.4800,1.749
33.5200,1.722
33.5600,1.715
33.6000,1.681
33.6400,1.722
33.6800,1.690
33.7200,1.686
33.7600,1.728
33.8000,1.685
33.8400,1.727
33.8800,1.700
33.9200,1.719
33.9600,1.736
34.0000,1.664
34.0400,1.668
34.0800,1.674
34.1200,1.659
34.1600,1.695
34.2000,1.645
34.2400,1.676
34.2800,1.672
34.3200,1.712
34.3600,1.666
34.4000,1.662
34.4400,1.684
34.4800,1.711
34.5200,1.701
34.5600,1.751
34.6000,1.623
34.6400,1.838
34.6800,1.763
34.7200,1.784
34.7600,1.867
34.8000,1.861
34.8400,1.878
34.8800,1.999
34.9200,1.910
34.9600,2.049
35.0000,2.117
35.0400,2.220
35.0800,2.273
35.1200,2.378
35.1600,2.555
35.2000,2.722
35.2400,2.806
35.2800,2.940
35.3200,3.282
35.3600,3.407
35.4000,3.682
35.4400,3.767
35.4800,3.888
35.5200,3.989
35.5600,3.960
35.6000,3.886
35.6400,3.621
35.6800,3.454
35.7200,3.350
35.7600,3.083
35.8000,2.781
35.8400,2.719
35.8800,2.498
35.9200,2.325
35.9600,2.253
36.0000,2.146
36.0400,2.093
36.0800,1.986
36.1200,1.907
36.1600,1.859
36.2000,1.805
36.2400,1.799
36.2800,1.726
36.3200,1.706
36.3600,1.635
36.4000,1.594
36.4400,1.623
36.4800,1.601
36.5200,1.554
36.5600,1.533
36.6000,1.560
36.6400,1.599
36.6800,1.525
36.7200,1.485
36.7600,1.523
36.8000,1.501
36.8400,1.526
36.8800,1.472
36.9200,1.464
36.9600,1.461
37.0000,1.487
37.0400,1.425
37.0800,1.493
37.1200,1.491
37.1600,1.503
37.2000,1.531
37.2400,1.540
37.2800,1.510
37.3200,1.515
37.3600,1.513
37.4000,1.572
37.4400,1.581
37.4800,1.583
37.5200,1.572
37.5600,1.708
37.6000,1.678
37.6400,1.733
37.6800,1.706
37.7200,1.767
37.7600,1.741
37.8000,1.806
37.8400,1.726
37.8800,1.574
37.9200,1.715
37.9600,1.688
38.0000,1.580
38.0400,1.577
38.0800,1.496
38.1200,1.519
38.1600,1.474
38.2000,1.538
38.2400,1.395
38.2800,1.414
38.3200,1.383
38.3600,1.399
38.4000,1.411
38.4400,1.428
38.4800,1.380
38.5200,1.301
38.5600,1.334
38.6000,1.321
38.6400,1.341
38.6800,1.352
38.7200,1.356
38.7600,1.313
38.8000,1.337
38.8400,1.373
38.8800,1.317
38.9200,1.390
38.9600,1.313
39.0000,1.357
39.0400,1.296
39.0800,1.437
39.1200,1.421
39.1600,1.503
39.2000,1.422
39.2400,1.483
39.2800,1.363
39.3200,1.352
39.3600,1.435
39.4000,1.316
39.4400,1.349
39.4800,1.318
39.5200,1.295
39.5600,1.276
39.6000,1.280
39.6400,1.280
39.6800,1.412
39.7200,1.399
39.7600,1.376
39.8000,1.390
39.8400,1.343
39.8800,1.349
39.9200,1.378
39.9600,1.430
40.0000,1.362
40.0400,1.318
40.0800,1.344
40.1200,1.296
40.1600,1.262
40.2000,1.254
40.2400,1.231
40.2800,1.225
40.3200,1.230
40.3600,1.208
40.4000,1.184
40.4400,1.212
40.4800,1.193
40.5200,1.172
40.5600,1.218
40.6000,1.174
40.6400,1.237
40.6800,1.146
40.7200,1.197
40.7600,1.249
40.8000,1.208
40.8400,1.252
40.8800,1.208
40.9200,1.223
40.9600,1.164
41.0000,1.212
41.0400,1.177
41.0800,1.154
41.1200,1.199
41.1600,1.230
41.2000,1.157
41.2400,1.184
41.2800,1.202
41.3200,1.196
41.3600,1.213
41.4000,1.158
41.4400,1.219
41.4800,1.274
41.5200,1.279
41.5600,1.261
41.6000,1.295
41.6400,1.337
41.6800,1.391
41.7200,1.408
41.7600,1.409
41.8000,1.424
41.8400,1.442
41.8800,1.477
41.9200,1.441
41.9600,1.574
42.0000,1.456
42.0400,1.406
42.0800,1.340
42.1200,1.386
42.1600,1.319
42.2000,1.334
42.2400,1.337
42.2800,1.261
42.3200,1.223
42.3600,1.168
42.4000,1.216
42.4400,1.174
42.4800,1.167
42.5200,1.163
42.5600,1.143
42.6000,1.078
42.6400,1.147
42.6800,1.062
42.7200,1.116
42.7600,1.083
42.8000,1.103
42.8400,1.084
42.8800,1.098
42.9200,1.055
42.9600,1.114
43.0000,1.073
43.0400,1.043
43.0800,1.034
43.1200,1.023
43.1600,1.055
43.2000,1.058
43.2400,1.128
43.2800,1.118
43.3200,1.032
43.3600,1.087
43.4000,1.023
43.4400,1.066
43.4800,1.055
43.5200,1.082
43.5600,1.028
43.6000,1.177
43.6400,1.038
43.6800,1.101
43.7200,1.085
43.7600,1.112
43.8000,1.096
43.8400,1.123
43.8800,1.118
43.9200,1.057
43.9600,1.050
44.0000,1.043
44.0400,1.079
44.0800,1.112
44.1200,1.109
44.1600,1.051
44.2000,1.060
44.2400,1.002
44.2800,1.087
44.3200,1.080
44.3600,1.087
44.4000,1.073
44.4400,0.964
44.4800,1.074
44.5200,1.036
44.5600,1.031
44.6000,1.013
44.6400,1.001
44.6800,0.948
44.7200,1.035
44.7600,1.016
44.8000,1.049
44.8400,1.034
44.8800,0.999
44.9200,1.058
44.9600,1.060
45.0000,1.083
45.0400,1.062
45.0800,1.076
45.1200,1.086
45.1600,1.084
45.2000,1.059
45.2400,1.131
45.2800,1.101
45.3200,1.158
45.3600,1.171
45.4000,1.200
45.4400,1.245
45.4800,1.291
45.5200,1.259
45.5600,1.387
45.6000,1.441
45.6400,1.477
45.6800,1.537
45.7200,1.548
45.7600,1.521
45.8000,1.526
45.8400,1.539
45.8800,1.418
45.9200,1.472
45.9600,1.423
46.0000,1.300
46.0400,1.259
46.0800,1.274
46.1200,1.246
46.1600,1.163
46.2000,1.159
46.2400,1.175
46.2800,1.154
46.3200,1.083
46.3600,1.056
46.4000,1.041
46.4400,1.025
46.4800,1.029
46.5200,1.001
46.5600,0.982
46.6000,0.933
46.6400,0.989
46.6800,1.037
46.7200,0.977
46.7600,0.910
46.8000,0.934
46.8400,0.959
46.8800,0.948
46.9200,0.895
46.9600,0.974
47.0000,0.929
47.0400,0.887
47.0800,0.888
47.1200,0.903
47.1600,0.916
47.2000,0.889
47.2400,0.867
47.2800,0.984
47.3200,0.906
47.3600,0.849
47.4000,0.921
47.4400,0.912
47.4800,0.940
47.5200,0.919
47.5600,0.948
47.6000,0.915
47.6400,0.890
47.6800,0.862
47.7200,0.889
47.7600,0.910
47.8000,0.885
47.8400,0.850
47.8800,0.876
47.9200,0.901
47.9600,0.891
48.0000,0.875
48.0400,0.890
48.0800,0.868
48.1200,0.849
48.1600,0.834
48.2000,0.861
48.2400,0.859
48.2800,0.883
48.3200,0.867
48.3600,0.874
48.4000,0.888
48.4400,0.877
48.4800,0.885
48.5200,0.921
48.5600,0.897
48.6000,0.906
48.6400,0.944
48.6800,0.877
48.7200,0.930
48.7600,0.901
48.8000,0.843
48.8400,0.878
48.8800,0.917
48.9200,0.957
48.9600,0.921
49.0000,0.922
49.0400,0.962
49.0800,0.936
49.1200,1.027
49.1600,0.963
49.2000,0.962
49.2400,1.006
49.2800,1.027
49.3200,1.039
49.3600,1.010
49.4000,1.055
49.4400,1.062
49.4800,0.993
49.5200,1.008
49.5600,0.962
49.6000,0.972
49.6400,0.991
49.6800,1.009
49.7200,0.979
49.7600,1.007
49.8000,0.943
49.8400,1.003
49.8800,0.987
49.9200,0.899
49.9600,0.989
50.0000,0.932
50.0400,0.967
50.0800,0.973
50.1200,0.968
50.1600,1.003
50.2000,1.031
50.2400,1.087
50.2800,1.071
50.3200,1.151
50.3600,1.201
50.4000,1.208
50.4400,1.231
50.4800,1.216
50.5200,1.373
50.5600,1.456
50.6000,1.553
50.6400,1.637
50.6800,1.677
50.7200,1.910
50.7600,1.950
50.8000,2.202
50.8400,2.328
50.8800,2.530
50.9200,2.718
50.9600,2.833
51.0000,3.073
51.0400,3.164
51.0800,3.212
51.1200,3.181
51.1600,3.128
51.2000,3.000
51.2400,2.917
51.2800,2.697
51.3200,2.488
51.3600,2.373
51.4000,2.290
51.4400,2.008
51.4800,1.862
51.5200,1.701
51.5600,1.588
51.6000,1.461
51.6400,1.373
51.6800,1.306
51.7200,1.294
51.7600,1.139
51.8000,1.113
51.8400,1.090
51.8800,1.039
51.9200,1.068
51.9600,1.020
52.0000,0.973
52.0400,0.984
52.0800,0.958
52.1200,0.932
52.1600,0.904
52.2000,0.925
52.2400,0.873
52.2800,0.857
52.3200,0.885
52.3600,0.859
52.4000,0.889
52.4400,0.943
52.4800,0.858
52.5200,0.849
52.5600,0.927
52.6000,0.897
52.6400,0.861
52.6800,0.847
52.7200,0.916
52.7600,0.917
52.8000,0.909
52.8400,0.950
52.8800,0.905
52.9200,0.883
52.9600,0.874
53.0000,0.834
53.0400,0.856
53.0800,0.851
53.1200,0.821
53.1600,0.801
53.2000,0.795
53.2400,0.742
53.2800,0.754
53.3200,0.770
53.3600,0.750
53.4000,0.751
53.4400,0.751
53.4800,0.718
53.5200,0.707
53.5600,0.742
53.6000,0.762
53.6400,0.727
53.6800,0.724
53.7200,0.738
53.7600,0.721
53.8000,0.778
53.8400,0.702
53.8800,0.743
53.9200,0.732
53.9600,0.770
54.0000,0.747
54.0400,0.713
54.0800,0.746
54.1200,0.719
54.1600,0.743
54.2000,0.709
54.2400,0.743
54.2800,0.717
54.3200,0.698
54.3600,0.709
54.4000,0.778
54.4400,0.720
54.4800,0.734
54.5200,0.748
54.5600,0.714
54.6000,0.759
54.6400,0.717
54.6800,0.724
54.7200,0.755
54.7600,0.734
54.8000,0.748
54.8400,0.742
54.8800,0.669
54.9200,0.708
54.9600,0.713
55.0000,0.688
55.0400,0.738
55.0800,0.714
55.1200,0.761
55.1600,0.713
55.2000,0.692
55.2400,0.686
55.2800,0.724
55.3200,0.730
55.3600,0.725
55.4000,0.736
55.4400,0.743
55.4800,0.712
55.5200,0.765
55.5600,0.798
55.6000,0.812
55.6400,0.809
55.6800,0.832
55.7200,0.773
55.7600,0.874
55.8000,0.871
55.8400,0.845
55.8800,0.866
55.9200,0.855
55.9600,0.951
56.0000,1.002
56.0400,0.965
56.0800,0.943
56.1200,0.940
56.1600,0.962
56.2000,0.925
56.2400,0.907
56.2800,0.888
56.3200,0.874
56.3600,0.838
56.4000,0.856
56.4400,0.817
56.4800,0.755
56.5200,0.810
56.5600,0.768
56.6000,0.769
56.6400,0.756
56.6800,0.712
56.7200,0.737
56.7600,0.735
56.8000,0.706
56.8400,0.690
56.8800,0.698
56.9200,0.646
56.9600,0.660
57.0000,0.703
57.0400,0.692
57.0800,0.717
57.1200,0.717
57.1600,0.697
57.2000,0.705
57.2400,0.670
57.2800,0.734
57.3200,0.678
57.3600,0.685
57.4000,0.684
57.4400,0.707
57.4800,0.661
57.5200,0.666
57.5600,0.708
57.6000,0.713
57.6400,0.704
57.6800,0.756
57.7200,0.699
57.7600,0.769
57.8000,0.804
57.8400,0.728
57.8800,0.727
57.9200,0.669
57.9600,0.690
58.0000,0.686
58.0400,0.653
58.0800,0.705
58.1200,0.657
58.1600,0.648
58.2000,0.715
58.2400,0.682
58.2800,0.624
58.3200,0.624
58.3600,0.668
58.4000,0.736
58.4400,0.671
58.4800,0.667
58.5200,0.695
58.5600,0.722
58.6000,0.688
58.6400,0.652
58.6800,0.692
58.7200,0.711
58.7600,0.704
58.8000,0.717
58.8400,0.750
58.8800,0.849
58.9200,0.819
58.9600,0.857
59.0000,0.822
59.0400,0.800
59.0800,0.846
59.1200,0.843
59.1600,0.854
59.2000,0.883
59.2400,0.892
59.2800,0.874
59.3200,0.895
59.3600,0.819
59.4000,0.843
59.4400,0.847
59.4800,0.827
59.5200,0.838
59.5600,0.847
59.6000,0.760
59.6400,0.774
59.6800,0.752
59.7200,0.785
59.7600,0.775
59.8000,0.756
59.8400,0.813
59.8800,0.793
59.9200,0.865
59.9600,0.816
60.0000,0.868
60.0400,0.914
60.0800,0.891
60.1200,0.945
60.1600,1.005
60.2000,1.043
60.2400,1.066
60.2800,1.111
60.3200,1.259
60.3600,1.312
60.4000,1.439
60.4400,1.478
60.4800,1.558
60.5200,1.681
60.5600,1.862
60.6000,1.887
60.6400,1.999
60.6800,2.056
60.7200,2.119
60.7600,2.044
60.8000,2.124
60.8400,2.002
60.8800,1.919
60.9200,1.826
60.9600,1.715
61.0000,1.673
61.0400,1.540
61.0800,1.426
61.1200,1.294
61.1600,1.253
61.2000,1.149
61.2400,1.075
61.2800,0.993
61.3200,0.961
61.3600,0.927
61.4000,0.907
61.4400,0.894
61.4800,0.804
61.5200,0.801
61.5600,0.866
61.6000,0.785
61.6400,0.781
61.6800,0.769
61.7200,0.904
61.7600,0.843
61.8000,0.785
61.8400,0.856
61.8800,0.771
61.9200,0.840
61.9600,0.785
62.0000,0.793
62.0400,0.832
62.0800,0.848
62.1200,0.826
62.1600,0.925
62.2000,0.940
62.2400,0.912
62.2800,0.902
62.3200,0.902
62.3600,0.879
62.4000,0.814
62.4400,0.858
62.4800,0.793
62.5200,0.776
62.5600,0.774
62.6000,0.718
62.6400,0.703
62.6800,0.671
62.7200,0.697
62.7600,0.735
62.8000,0.680
62.8400,0.670
62.8800,0.644
62.9200,0.634
62.9600,0.673
63.0000,0.632
63.0400,0.611
63.0800,0.628
63.1200,0.626
63.1600,0.681
63.2000,0.626
63.2400,0.654
63.2800,0.683
63.3200,0.698
63.3600,0.705
63.4000,0.685
63.4400,0.687
63.4800,0.708
63.5200,0.754
63.5600,0.782
63.6000,0.769
63.6400,0.840
63.6800,0.779
63.7200,0.847
63.7600,0.858
63.8000,0.806
63.8400,0.801
63.8800,0.796
63.9200,0.755
63.9600,0.788
64.0000,0.762
64.0400,0.755
64.0800,0.739
64.1200,0.691
64.1600,0.671
64.2000,0.628
64.2400,0.633
64.2800,0.637
64.3200,0.633
64.3600,0.595
64.4000,0.607
64.4400,0.565
64.4800,0.573
64.5200,0.577
64.5600,0.607
64.6000,0.582
64.6400,0.594
64.6800,0.642
64.7200,0.591
64.7600,0.612
64.8000,0.611
64.8400,0.583
64.8800,0.663
64.9200,0.622
64.9600,0.625
65.0000,0.639
65.0400,0.635
65.0800,0.679
65.1200,0.667
65.1600,0.628
65.2000,0.667
65.2400,0.658
65.2800,0.654
65.3200,0.654
65.3600,0.674
65.4000,0.662
65.4400,0.652
65.4800,0.630
65.5200,0.623
65.5600,0.625
65.6000,0.605
65.6400,0.646
65.6800,0.665
65.7200,0.660
65.7600,0.626
65.8000,0.628
65.8400,0.635
65.8800,0.601
65.9200,0.604
65.9600,0.661
66.0000,0.664
66.0400,0.695
66.0800,0.638
66.1200,0.678
66.1600,0.672
66.2000,0.661
66.2400,0.706
66.2800,0.713
66.3200,0.740
66.3600,0.686
66.4000,0.729
66.4400,0.695
66.4800,0.768
66.5200,0.729
66.5600,0.831
66.6000,0.765
66.6400,0.800
66.6800,0.813
66.7200,0.810
66.7600,0.798
66.8000,0.798
66.8400,0.789
66.8800,0.786
66.9200,0.808
66.9600,0.813
67.0000,0.887
67.0400,0.800
67.0800,0.830
67.1200,0.862
67.1600,0.876
67.2000,0.913
67.2400,0.875
67.2800,0.914
67.3200,0.941
67.3600,0.920
67.4000,0.922
67.4400,0.931
67.4800,0.984
67.5200,1.001
67.5600,1.017
67.6000,1.023
67.6400,1.049
67.6800,1.149
67.7200,1.108
67.7600,1.063
67.8000,1.156
67.8400,1.195
67.8800,1.216
67.9200,1.296
67.9600,1.301
68.0000,1.312
68.0400,1.322
68.0800,1.386
68.1200,1.416
68.1600,1.514
68.2000,1.518
68.2400,1.526
68.2800,1.582
68.3200,1.626
68.3600,1.656
68.4000,1.726
68.4400,1.776
68.4800,1.876
68.5200,1.797
68.5600,1.903
68.6000,2.137
68.6400,2.320
68.6800,2.436
68.7200,2.764
68.7600,3.350
68.8000,4.199
68.8400,5.271
68.8800,5.753
68.9200,5.937
68.9600,6.349
69.0000,8.099
69.0400,11.601
69.0800,20.656
69.1200,58.054
69.1600,242.984
69.2000,359.887
69.2400,168.040
69.2800,43.976
69.3200,46.885
69.3600,137.182
69.4000,182.328
69.4400,82.171
69.4800,21.154
69.5200,10.281
69.5600,7.191
69.6000,5.795
69.6400,4.717
69.6800,4.047
69.7200,3.660
69.7600,3.212
69.8000,2.853
69.8400,2.587
69.8800,2.432
69.9200,2.306
69.9600,2.156
70.0000,2.122
70.0400,1.937
70.0800,1.880
70.1200,1.862
70.1600,1.698
70.2000,1.632
70.2400,1.584
70.2800,1.531
70.3200,1.437
70.3600,1.480
70.4000,1.364
70.4400,1.368
70.4800,1.325
70.5200,1.262
70.5600,1.189
70.6000,1.209
70.6400,1.193
70.6800,1.147
70.7200,1.127
70.7600,1.106
70.8000,1.076
70.8400,1.060
70.8800,1.017
70.9200,1.027
70.9600,1.004
71.0000,1.002
71.0400,0.986
71.0800,0.918
71.1200,0.904
71.1600,0.864
71.2000,0.819
71.2400,0.867
71.2800,0.833
71.3200,0.787
71.3600,0.739
71.4000,0.730
71.4400,0.732
71.4800,0.735
71.5200,0.733
71.5600,0.718
71.6000,0.720
71.6400,0.701
71.6800,0.743
71.7200,0.654
71.7600,0.661
71.8000,0.636
71.8400,0.635
71.8800,0.622
71.9200,0.664
71.9600,0.634
72.0000,0.611
72.0400,0.596
72.0800,0.614
72.1200,0.572
72.1600,0.629
72.2000,0.575
72.2400,0.562
72.2800,0.565
72.3200,0.568
72.3600,0.583
72.4000,0.547
72.4400,0.525
72.4800,0.540
72.5200,0.478
72.5600,0.498
72.6000,0.519
72.6400,0.530
72.6800,0.558
72.7200,0.470
72.7600,0.515
72.8000,0.495
72.8400,0.456
72.8800,0.473
72.9200,0.505
72.9600,0.460
73.0000,0.485
73.0400,0.478
73.0800,0.498
73.1200,0.469
73.1600,0.469
73.2000,0.480
73.2400,0.464
73.2800,0.457
73.3200,0.497
73.3600,0.467
73.4000,0.469
73.4400,0.489
73.4800,0.502
73.5200,0.543
73.5600,0.543
73.6000,0.513
73.6400,0.539
73.6800,0.479
73.7200,0.508
73.7600,0.544
73.8000,0.556
73.8400,0.489
73.8800,0.501
73.9200,0.481
73.9600,0.424
74.0000,0.481
74.0400,0.482
74.0800,0.489
74.1200,0.467
74.1600,0.453
74.2000,0.463
74.2400,0.475
74.2800,0.438
74.3200,0.451
74.3600,0.456
74.4000,0.443
74.4400,0.408
74.4800,0.457
74.5200,0.446
74.5600,0.459
74.6000,0.506
74.6400,0.443
74.6800,0.470
74.7200,0.469
74.7600,0.461
74.8000,0.443
74.8400,0.467
74.8800,0.530
74.9200,0.504
74.9600,0.477
75.0000,0.499
75.0400,0.498
75.0800,0.523
75.1200,0.508
75.1600,0.534
75.2000,0.564
75.2400,0.543
75.2800,0.506
75.3200,0.482
75.3600,0.484
75.4000,0.475
75.4400,0.483
75.4800,0.498
75.5200,0.383
75.5600,0.438
75.6000,0.433
75.6400,0.440
75.6800,0.436
75.7200,0.397
75.7600,0.408
75.8000,0.421
75.8400,0.427
75.8800,0.384
75.9200,0.406
75.9600,0.435
76.0000,0.448
76.0400,0.440
76.0800,0.414
76.1200,0.462
76.1600,0.461
76.2000,0.430
76.2400,0.423
76.2800,0.459
76.3200,0.486
76.3600,0.465
76.4000,0.513
76.4400,0.463
76.4800,0.469
76.5200,0.480
76.5600,0.506
76.6000,0.483
76.6400,0.467
76.6800,0.463
76.7200,0.455
76.7600,0.427
76.8000,0.429
76.8400,0.439
76.8800,0.431
76.9200,0.396
76.9600,0.379
77.0000,0.411
77.0400,0.405
77.0800,0.396
77.1200,0.394
77.1600,0.395
77.2000,0.386
77.2400,0.360
77.2800,0.342
77.3200,0.401
77.3600,0.378
77.4000,0.376
77.4400,0.359
77.4800,0.373
77.5200,0.350
77.5600,0.385
77.6000,0.365
77.6400,0.400
77.6800,0.383
77.7200,0.415
77.7600,0.396
77.8000,0.413
77.8400,0.414
77.8800,0.432
77.9200,0.370
77.9600,0.361
78.0000,0.416
78.0400,0.457
78.0800,0.433
78.1200,0.365
78.1600,0.392
78.2000,0.371
78.2400,0.373
78.2800,0.360
78.3200,0.379
78.3600,0.337
78.4000,0.346
78.4400,0.365
78.4800,0.313
78.5200,0.332
78.5600,0.386
78.6000,0.363
78.6400,0.336
78.6800,0.363
78.7200,0.328
78.7600,0.356
78.8000,0.350
78.8400,0.380
78.8800,0.391
78.9200,0.380
78.9600,0.402
79.0000,0.381
79.0400,0.359
79.0800,0.381
79.1200,0.366
79.1600,0.385
79.2000,0.370
79.2400,0.384
79.2800,0.379
79.3200,0.399
79.3600,0.370
79.4000,0.347
79.4400,0.342
79.4800,0.353
79.5200,0.398
79.5600,0.369
79.6000,0.329
79.6400,0.329
79.6800,0.337
79.7200,0.347
79.7600,0.320
79.8000,0.314
79.8400,0.314
79.8800,0.321
79.9200,0.305
79.9600,0.295
80.0000,0.349
