theta,intensity
5.0000,4.145
5.0400,4.336
5.0800,4.334
5.1200,4.317
5.1600,4.250
5.2000,4.237
5.2400,4.263
5.2800,4.097
5.3200,4.158
5.3600,4.143
5.4000,4.201
5.4400,4.210
5.4800,4.220
5.5200,4.197
5.5600,4.220
5.6000,4.179
5.6400,4.160
5.6800,4.107
5.7200,4.059
5.7600,4.101
5.8000,4.201
5.8400,4.174
5.8800,3.968
5.9200,4.143
5.9600,4.046
6.0000,3.930
6.0400,4.052
6.0800,3.948
6.1200,3.991
6.1600,4.031
6.2000,3.954
6.2400,4.020
6.2800,3.961
6.3200,3.997
6.3600,4.040
6.4000,3.888
6.4400,3.864
6.4800,3.943
6.5200,3.921
6.5600,3.926
6.6000,3.912
6.6400,3.930
6.6800,3.914
6.7200,4.068
6.7600,3.917
6.8000,3.846
6.8400,3.916
6.8800,3.910
6.9200,3.927
6.9600,3.836
7.0000,3.872
7.0400,3.816
7.0800,3.827
7.1200,3.880
7.1600,3.874
7.2000,3.851
7.2400,3.925
7.2800,3.953
7.3200,3.927
7.3600,3.772
7.4000,3.866
7.4400,3.906
7.4800,3.812
7.5200,3.838
7.5600,3.823
7.6000,3.837
7.6400,3.834
7.6800,3.688
7.7200,3.763
7.7600,3.737
7.8000,3.966
7.8400,3.767
7.8800,3.841
7.9200,3.713
7.9600,3.740
8.0000,3.700
8.0400,3.695
8.0800,3.795
8.1200,3.705
8.1600,3.775
8.2000,3.697
8.2400,3.769
8.2800,3.657
8.3200,3.846
8.3600,3.705
8.4000,3.732
8.4400,3.810
8.4800,3.648
8.5200,3.760
8.5600,3.728
8.6000,3.776
8.6400,3.672
8.6800,3.662
8.7200,3.680
8.7600,3.753
8.8000,3.778
8.8400,3.664
8.8800,3.706
8.9200,3.780
8.9600,3.683
9.0000,3.699
9.0400,3.665
9.0800,3.641
9.1200,3.694
9.1600,3.582
9.2000,3.705
9.2400,3.630
9.2800,3.582
9.3200,3.589
9.3600,3.632
9.4000,3.507
9.4400,3.586
9.4800,3.587
9.5200,3.695
9.5600,3.738
9.6000,3.663
9.6400,3.613
9.6800,3.506
9.7200,3.571
9.7600,3.583
9.8000,3.587
9.8400,3.554
9.8800,3.610
9.9200,3.488
9.9600,3.573
10.0000,3.659
10.0400,3.509
10.0800,3.699
10.1200,3.509
10.1600,3.623
10.2000,3.577
10.2400,3.572
10.2800,3.497
10.3200,3.612
10.3600,3.483
10.4000,3.590
10.4400,3.512
10.4800,3.547
10.5200,3.570
10.5600,3.554
10.6000,3.494
10.6400,3.521
10.6800,3.434
10.7200,3.596
10.7600,3.551
10.8000,3.548
10.8400,3.478
10.8800,3.514
10.9200,3.413
10.9600,3.498
11.0000,3.594
11.0400,3.607
11.0800,3.433
11.1200,3.442
11.1600,3.404
11.2000,3.436
11.2400,3.501
11.2800,3.489
11.3200,3.418
11.3600,3.496
11.4000,3.439
11.4400,3.413
11.4800,3.393
11.5200,3.357
11.5600,3.447
11.6000,3.412
11.6400,3.367
11.6800,3.392
11.7200,3.500
11.7600,3.319
11.8000,3.437
11.8400,3.440
11.8800,3.430
11.9200,3.249
11.9600,3.325
12.0000,3.367
12.0400,3.425
12.0800,3.449
12.1200,3.408
12.1600,3.334
12.2000,3.310
12.2400,3.296
12.2800,3.427
12.3200,3.417
12.3600,3.359
12.4000,3.415
12.4400,3.379
12.4800,3.403
12.5200,3.343
12.5600,3.358
12.6000,3.243
12.6400,3.370
12.6800,3.387
12.7200,3.416
12.7600,3.289
12.8000,3.355
12.8400,3.256
12.8800,3.326
12.9200,3.322
12.9600,3.345
13.0000,3.317
13.0400,3.371
13.0800,3.432
13.1200,3.342
13.1600,3.298
13.2000,3.255
13.2400,3.261
13.2800,3.276
13.3200,3.331
13.3600,3.412
13.4000,3.357
13.4400,3.263
13.4800,3.265
13.5200,3.262
13.5600,3.238
13.6000,3.295
13.6400,3.144
13.6800,3.210
13.7200,3.292
13.7600,3.243
13.8000,3.245
13.8400,3.212
13.8800,3.205
13.9200,3.226
13.9600,3.122
14.0000,3.180
14.0400,3.104
14.0800,3.190
14.1200,3.207
14.1600,3.186
14.2000,3.175
14.2400,3.189
14.2800,3.152
14.3200,3.234
14.3600,3.152
14.4000,3.212
14.4400,3.133
14.4800,3.211
14.5200,3.159
14.5600,3.197
14.6000,3.233
14.6400,3.132
14.6800,3.105
14.7200,3.082
14.7600,3.067
14.8000,3.116
14.8400,3.172
14.8800,3.215
14.9200,3.178
14.9600,3.160
15.0000,3.257
15.0400,3.114
15.0800,3.178
15.1200,3.066
15.1600,3.143
15.2000,3.078
15.2400,3.152
15.2800,3.077
15.3200,3.109
15.3600,3.061
15.4000,3.052
15.4400,3.055
15.4800,3.107
15.5200,3.062
15.5600,3.030
15.6000,3.069
15.6400,2.978
15.6800,3.030
15.7200,2.978
15.7600,3.022
15.8000,2.951
15.8400,2.998
15.8800,3.030
15.9200,3.005
15.9600,2.992
16.0000,3.092
16.0400,3.200
16.0800,3.058
16.1200,2.977
16.1600,3.015
16.2000,3.010
16.2400,2.974
16.2800,2.989
16.3200,2.993
16.3600,2.903
16.4000,3.003
16.4400,2.963
16.4800,2.985
16.5200,2.955
16.5600,2.914
16.6000,3.004
16.6400,2.972
16.6800,2.927
16.7200,2.854
16.7600,2.834
16.8000,3.007
16.8400,2.873
16.8800,2.923
16.9200,2.920
16.9600,2.974
17.0000,2.978
17.0400,2.929
17.0800,2.964
17.1200,2.871
17.1600,2.906
17.2000,2.946
17.2400,2.867
17.2800,2.904
17.3200,3.045
17.3600,2.952
17.4000,2.853
17.4400,2.844
17.4800,2.871
17.5200,2.757
17.5600,2.899
17.6000,2.859
17.6400,2.744
17.6800,2.838
17.7200,2.944
17.7600,2.899
17.8000,2.854
17.8400,2.913
17.8800,2.890
17.9200,2.833
17.9600,2.776
18.0000,2.864
18.0400,2.833
18.0800,2.779
18.1200,2.860
18.1600,2.832
18.2000,2.793
18.2400,2.760
18.2800,2.768
18.3200,2.847
18.3600,2.819
18.4000,2.830
18.4400,2.733
18.4800,2.872
18.5200,2.844
18.5600,2.830
18.6000,2.836
18.6400,2.755
18.6800,2.721
18.7200,2.841
18.7600,2.773
18.8000,2.793
18.8400,2.662
18.8800,2.643
18.9200,2.661
18.9600,2.801
19.0000,2.644
19.0400,2.859
19.0800,2.720
19.1200,2.774
19.1600,2.774
19.2000,2.751
19.2400,2.764
19.2800,2.759
19.3200,2.685
19.3600,2.756
19.4000,2.781
19.4400,2.799
19.4800,2.748
19.5200,2.735
19.5600,2.663
19.6000,2.723
19.6400,2.709
19.6800,2.680
19.7200,2.732
19.7600,2.710
19.8000,2.658
19.8400,2.665
19.8800,2.684
19.9200,2.640
19.9600,2.673
20.0000,2.632
20.0400,2.688
20.0800,2.712
20.1200,2.650
20.1600,2.610
20.2000,2.707
20.2400,2.665
20.2800,2.589
20.3200,2.626
20.3600,2.684
20.4000,2.599
20.4400,2.604
20.4800,2.618
20.5200,2.637
20.5600,2.643
20.6000,2.608
20.6400,2.692
20.6800,2.599
20.7200,2.617
20.7600,2.585
20.8000,2.650
20.8400,2.608
20.8800,2.679
20.9200,2.630
20.9600,2.511
21.0000,2.629
21.0400,2.554
21.0800,2.637
21.1200,2.650
21.1600,2.660
21.2000,2.688
21.2400,2.566
21.2800,2.516
21.3200,2.596
21.3600,2.527
21.4000,2.609
21.4400,2.583
21.4800,2.555
21.5200,2.582
21.5600,2.585
21.6000,2.694
21.6400,2.613
21.6800,2.609
21.7200,2.521
21.7600,2.557
21.8000,2.526
21.8400,2.533
21.8800,2.501
21.9200,2.541
21.9600,2.560
22.0000,2.481
22.0400,2.482
22.0800,2.456
22.1200,2.462
22.1600,2.478
22.2000,2.383
22.2400,2.470
22.2800,2.504
22.3200,2.422
22.3600,2.413
22.4000,2.520
22.4400,2.498
22.4800,2.452
22.5200,2.445
22.5600,2.551
22.6000,2.449
22.6400,2.433
22.6800,2.414
22.7200,2.352
22.7600,2.384
22.8000,2.373
22.8400,2.380
22.8800,2.404
22.9200,2.442
22.9600,2.422
23.0000,2.461
23.0400,2.418
23.0800,2.417
23.1200,2.391
23.1600,2.334
23.2000,2.386
23.2400,2.414
23.2800,2.423
23.3200,2.313
23.3600,2.306
23.4000,2.366
23.4400,2.466
23.4800,2.341
23.5200,2.266
23.5600,2.346
23.6000,2.367
23.6400,2.259
23.6800,2.376
23.7200,2.293
23.7600,2.326
23.8000,2.308
23.8400,2.309
23.8800,2.287
23.9200,2.274
23.9600,2.354
24.0000,2.333
24.0400,2.323
24.0800,2.300
24.1200,2.292
24.1600,2.321
24.2000,2.288
24.2400,2.297
24.2800,2.293
24.3200,2.255
24.3600,2.290
24.4000,2.234
24.4400,2.293
24.4800,2.260
24.5200,2.220
24.5600,2.171
24.6000,2.248
24.6400,2.226
24.6800,2.307
24.7200,2.234
24.7600,2.296
24.8000,2.290
24.8400,2.182
24.8800,2.209
24.9200,2.246
24.9600,2.249
25.0000,2.262
25.0400,2.189
25.0800,2.227
25.1200,2.121
25.1600,2.127
25.2000,2.236
25.2400,2.185
25.2800,2.276
25.3200,2.225
25.3600,2.143
25.4000,2.162
25.4400,2.221
25.4800,2.239
25.5200,2.228
25.5600,2.223
25.6000,2.183
25.6400,2.109
25.6800,2.195
25.7200,2.205
25.7600,2.192
25.8000,2.126
25.8400,2.087
25.8800,2.123
25.9200,2.101
25.9600,2.185
26.0000,2.073
26.0400,2.136
26.0800,2.191
26.1200,2.119
26.1600,2.129
26.2000,2.092
26.2400,2.180
26.2800,2.147
26.3200,2.150
26.3600,2.130
26.4000,2.143
26.4400,2.183
26.4800,2.105
26.5200,2.076
26.5600,2.111
26.6000,2.056
26.6400,2.099
26.6800,2.054
26.7200,2.054
26.7600,2.061
26.8000,2.131
26.8400,2.036
26.8800,2.117
26.9200,2.020
26.9600,2.066
27.0000,2.193
27.0400,2.025
27.0800,2.109
27.1200,2.098
27.1600,2.027
27.2000,1.986
27.2400,1.960
27.2800,2.010
27.3200,2.036
27.3600,2.070
27.4000,2.032
27.4400,2.098
27.4800,1.966
27.5200,1.999
27.5600,2.047
27.6000,1.902
27.6400,2.022
27.6800,2.014
27.7200,2.013
27.7600,1.996
27.8000,2.115
27.8400,2.116
27.8800,2.023
27.9200,1.964
27.9600,2.021
28.0000,1.962
28.0400,1.950
28.0800,1.978
28.1200,1.992
28.1600,2.020
28.2000,1.988
28.2400,2.023
28.2800,1.989
28.3200,1.972
28.3600,1.971
28.4000,1.889
28.4400,1.972
28.4800,1.934
28.5200,1.889
28.5600,1.882
28.6000,1.948
28.6400,1.836
28.6800,1.864
28.7200,1.920
28.7600,1.963
28.8000,1.967
28.8400,1.979
28.8800,1.887
28.9200,1.829
28.9600,1.883
29.0000,1.873
29.0400,1.910
29.0800,1.948
29.1200,1.923
29.1600,1.878
29.2000,1.943
29.2400,1.951
29.2800,1.914
29.3200,1.901
29.3600,1.906
29.4000,1.863
29.4400,1.882
29.4800,1.925
29.5200,1.939
29.5600,1.874
29.6000,1.928
29.6400,1.963
29.6800,1.831
29.7200,1.845
29.7600,1.958
29.8000,1.934
29.8400,1.844
29.8800,1.996
29.9200,1.993
29.9600,1.949
30.0000,1.887
30.0400,1.945
30.0800,1.937
30.1200,1.982
30.1600,2.036
30.2000,2.049
30.2400,1.979
30.2800,2.057
30.3200,2.149
30.3600,2.191
30.4000,2.203
30.4400,2.214
30.4800,2.219
30.5200,2.314
30.5600,2.358
30.6000,2.410
30.6400,2.416
30.6800,2.436
30.7200,2.411
30.7600,2.429
30.8000,2.344
30.8400,2.300
30.8800,2.307
30.9200,2.318
30.9600,2.224
31.0000,2.142
31.0400,2.132
31.0800,2.094
31.1200,2.014
31.1600,2.043
31.2000,1.976
31.2400,1.896
31.2800,1.925
31.3200,1.856
31.3600,1.868
31.4000,1.851
31.4400,1.888
31.4800,1.839
31.5200,1.814
31.5600,1.793
31.6000,1.817
31.6400,1.789
31.6800,1.712
31.7200,1.760
31.7600,1.801
31.8000,1.763
31.8400,1.793
31.8800,1.691
31.9200,1.737
31.9600,1.677
32.0000,1.656
32.0400,1.674
32.0800,1.706
32.1200,1.672
32.1600,1.724
32.2000,1.702
32.2400,1.688
32.2800,1.673
32.3200,1.709
32.3600,1.665
32.4000,1.645
32.4400,1.711
32.4800,1.715
32.5200,1.635
32.5600,1.634
32.6000,1.749
32.6400,1.742
32.6800,1.708
32.7200,1.705
32.7600,1.724
32.8000,1.638
32.8400,1.686
32.8800,1.709
32.9200,1.658
32.9600,1.633
33.0000,1.614
33.0400,1.599
33.0800,1.647
33.1200,1.631
33.1600,1.634
33.2000,1.619
33.2400,1.566
33.2800,1.646
33.3200,1.674
33.3600,1.585
33.4000,1.589
33.4400,1.584
33.4800,1.592
33.5200,1.630
33.5600,1.675
33.6000,1.615
33.6400,1.572
33.6800,1.585
33.7200,1.600
33.7600,1.614
33.8000,1.618
33.8400,1.631
33.8800,1.569
33.9200,1.600
33.9600,1.542
34.0000,1.545
34.0400,1.656
34.0800,1.597
34.1200,1.563
34.1600,1.564
34.2000,1.566
34.2400,1.562
34.2800,1.574
34.3200,1.641
34.3600,1.600
34.4000,1.566
34.4400,1.645
34.4800,1.523
34.5200,1.463
34.5600,1.568
34.6000,1.552
34.6400,1.664
34.6800,1.610
34.7200,1.585
34.7600,1.538
34.8000,1.554
34.8400,1.608
34.8800,1.607
34.9200,1.544
34.9600,1.616
35.0000,1.607
35.0400,1.583
35.0800,1.561
35.1200,1.657
35.1600,1.654
35.2000,1.622
35.2400,1.690
35.2800,1.611
35.3200,1.704
35.3600,1.702
35.4000,1.799
35.4400,1.742
35.4800,1.880
35.5200,1.956
35.5600,2.014
35.6000,1.997
35.6400,2.109
35.6800,2.282
35.7200,2.436
35.7600,2.619
35.8000,2.956
35.8400,3.160
35.8800,3.328
35.9200,3.281
35.9600,3.238
36.0000,3.058
36.0400,2.898
36.0800,2.684
36.1200,2.567
36.1600,2.301
36.2000,2.279
36.2400,2.227
36.2800,2.088
36.3200,1.936
36.3600,1.853
36.4000,1.844
36.4400,1.843
36.4800,1.820
36.5200,1.742
36.5600,1.746
36.6000,1.707
36.6400,1.632
36.6800,1.659
36.7200,1.677
36.7600,1.653
36.8000,1.696
36.8400,1.634
36.8800,1.666
36.9200,1.706
36.9600,1.701
37.0000,1.647
37.0400,1.645
37.0800,1.631
37.1200,1.729
37.1600,1.643
37.2000,1.782
37.2400,1.708
37.2800,1.760
37.3200,1.801
37.3600,1.736
37.4000,1.921
37.4400,1.930
37.4800,1.992
37.5200,2.110
37.5600,2.498
37.6000,2.945
37.6400,3.451
37.6800,4.202
37.7200,4.677
37.7600,5.210
37.8000,5.244
37.8400,5.133
37.8800,4.618
37.9200,4.108
37.9600,3.524
38.0000,3.018
38.0400,2.717
38.0800,2.472
38.1200,2.264
38.1600,2.127
38.2000,2.064
38.2400,1.909
38.2800,1.814
38.3200,1.856
38.3600,1.791
38.4000,1.734
38.4400,1.738
38.4800,1.621
38.5200,1.612
38.5600,1.664
38.6000,1.539
38.6400,1.717
38.6800,1.545
38.7200,1.613
38.7600,1.646
38.8000,1.602
38.8400,1.594
38.8800,1.590
38.9200,1.578
38.9600,1.547
39.0000,1.565
39.0400,1.547
39.0800,1.607
39.1200,1.651
39.1600,1.584
39.2000,1.585
39.2400,1.622
39.2800,1.610
39.3200,1.688
39.3600,1.646
39.4000,1.635
39.4400,1.787
39.4800,1.694
39.5200,1.874
39.5600,1.812
39.6000,1.951
39.6400,1.896
39.6800,2.026
39.7200,2.037
39.7600,2.076
39.8000,2.059
39.8400,2.156
39.8800,2.279
39.9200,2.260
39.9600,2.337
40.0000,2.378
40.0400,2.415
40.0800,2.478
40.1200,2.563
40.1600,2.670
40.2000,2.736
40.2400,2.849
40.2800,2.877
40.3200,3.031
40.3600,3.159
40.4000,3.385
40.4400,3.578
40.4800,3.741
40.5200,3.947
40.5600,4.331
40.6000,4.441
40.6400,4.522
40.6800,4.569
40.7200,4.562
40.7600,4.485
40.8000,4.318
40.8400,4.072
40.8800,3.760
40.9200,3.617
40.9600,3.434
41.0000,3.186
41.0400,3.006
41.0800,2.817
41.1200,2.773
41.1600,2.673
41.2000,2.516
41.2400,2.429
41.2800,2.416
41.3200,2.287
41.3600,2.120
41.4000,2.184
41.4400,2.058
41.4800,1.982
41.5200,1.930
41.5600,1.933
41.6000,1.901
41.6400,1.861
41.6800,1.726
41.7200,1.755
41.7600,1.769
41.8000,1.683
41.8400,1.680
41.8800,1.707
41.9200,1.514
41.9600,1.548
42.0000,1.572
42.0400,1.512
42.0800,1.487
42.1200,1.470
42.1600,1.416
42.2000,1.400
42.2400,1.342
42.2800,1.378
42.3200,1.312
42.3600,1.305
42.4000,1.344
42.4400,1.323
42.4800,1.283
42.5200,1.298
42.5600,1.277
42.6000,1.236
42.6400,1.252
42.6800,1.234
42.7200,1.175
42.7600,1.251
42.8000,1.140
42.8400,1.179
42.8800,1.196
42.9200,1.178
42.9600,1.135
43.0000,1.211
43.0400,1.179
43.0800,1.159
43.1200,1.118
43.1600,1.147
43.2000,1.139
43.2400,1.114
43.2800,1.144
43.3200,1.107
43.3600,1.119
43.4000,1.042
43.4400,1.160
43.4800,1.166
43.5200,1.108
43.5600,1.127
43.6000,1.124
43.6400,1.067
43.6800,1.132
43.7200,1.128
43.7600,1.097
43.8000,1.095
43.8400,1.090
43.8800,1.146
43.9200,1.126
43.9600,1.100
44.0000,1.091
44.0400,1.059
44.0800,1.126
44.1200,1.150
44.1600,1.077
44.2000,1.096
44.2400,1.098
44.2800,1.114
44.3200,1.103
44.3600,1.091
44.4000,1.046
44.4400,1.052
44.4800,1.082
44.5200,1.042
44.5600,0.996
44.6000,0.999
44.6400,1.042
44.6800,1.037
44.7200,1.058
44.7600,1.000
44.8000,1.032
44.8400,1.074
44.8800,1.059
44.9200,1.003
44.9600,1.039
45.0000,1.023
45.0400,1.048
45.0800,0.995
45.1200,1.038
45.1600,1.035
45.2000,1.017
45.2400,1.043
45.2800,1.046
45.3200,1.000
45.3600,1.039
45.4000,1.049
45.4400,1.089
45.4800,1.015
45.5200,1.018
45.5600,1.051
45.6000,1.053
45.6400,0.999
45.6800,1.019
45.7200,1.081
45.7600,1.013
45.8000,1.017
45.8400,1.048
45.8800,1.037
45.9200,1.030
45.9600,0.992
46.0000,0.976
46.0400,0.975
46.0800,1.041
46.1200,0.995
46.1600,0.926
46.2000,0.960
46.2400,0.952
46.2800,0.982
46.3200,0.948
46.3600,0.975
46.4000,0.962
46.4400,1.019
46.4800,0.968
46.5200,0.896
46.5600,0.920
46.6000,0.874
46.6400,0.941
46.6800,0.947
46.7200,0.895
46.7600,0.951
46.8000,0.942
46.8400,0.909
46.8800,0.889
46.9200,0.909
46.9600,0.895
47.0000,0.937
47.0400,0.861
47.0800,0.901
47.1200,0.902
47.1600,0.951
47.2000,0.930
47.2400,0.851
47.2800,0.971
47.3200,0.855
47.3600,0.875
47.4000,0.887
47.4400,0.882
47.4800,0.892
47.5200,0.980
47.5600,0.933
47.6000,0.937
47.6400,0.923
47.6800,0.866
47.7200,0.817
47.7600,0.886
47.8000,0.918
47.8400,0.850
47.8800,0.891
47.9200,0.888
47.9600,0.881
48.0000,0.917
48.0400,0.891
48.0800,0.861
48.1200,0.864
48.1600,0.891
48.2000,0.860
48.2400,0.861
48.2800,0.889
48.3200,0.905
48.3600,0.861
48.4000,0.907
48.4400,0.815
48.4800,0.838
48.5200,0.826
48.5600,0.802
48.6000,0.875
48.6400,0.849
48.6800,0.845
48.7200,0.883
48.7600,0.914
48.8000,0.898
48.8400,0.890
48.8800,0.876
48.9200,0.819
48.9600,0.825
49.0000,0.912
49.0400,0.881
49.0800,0.873
49.1200,0.868
49.1600,0.853
49.2000,0.846
49.2400,0.867
49.2800,0.863
49.3200,0.869
49.3600,0.921
49.4000,0.830
49.4400,0.862
49.4800,0.927
49.5200,0.891
49.5600,0.856
49.6000,0.867
49.6400,0.908
49.6800,0.867
49.7200,0.897
49.7600,0.871
49.8000,0.853
49.8400,0.870
49.8800,0.853
49.9200,0.804
49.9600,0.862
50.0000,0.820
50.0400,0.904
50.0800,0.838
50.1200,0.840
50.1600,0.854
50.2000,0.891
50.2400,0.882
50.2800,0.893
50.3200,0.867
50.3600,0.816
50.4000,0.857
50.4400,0.843
50.4800,0.820
50.5200,0.871
50.5600,0.877
50.6000,0.930
50.6400,0.879
50.6800,0.937
50.7200,0.972
50.7600,0.928
50.8000,0.974
50.8400,0.942
50.8800,0.976
50.9200,0.968
50.9600,0.995
51.0000,1.021
51.0400,0.987
51.0800,1.012
51.1200,1.037
51.1600,1.017
51.2000,0.997
51.2400,0.982
51.2800,0.984
51.3200,1.034
51.3600,0.944
51.4000,0.935
51.4400,0.924
51.4800,0.948
51.5200,0.890
51.5600,0.878
51.6000,0.940
51.6400,0.889
51.6800,0.859
51.7200,0.844
51.7600,0.805
51.8000,0.841
51.8400,0.836
51.8800,0.873
51.9200,0.873
51.9600,0.820
52.0000,0.843
52.0400,0.869
52.0800,0.845
52.1200,0.859
52.1600,0.832
52.2000,0.829
52.2400,0.828
52.2800,0.830
52.3200,0.881
52.3600,0.813
52.4000,0.904
52.4400,0.917
52.4800,0.903
52.5200,0.902
52.5600,0.834
52.6000,0.856
52.6400,0.884
52.6800,0.862
52.7200,0.909
52.7600,0.824
52.8000,0.857
52.8400,0.914
52.8800,0.872
52.9200,0.904
52.9600,0.921
53.0000,0.918
53.0400,0.942
53.0800,0.966
53.1200,0.917
53.1600,0.863
53.2000,0.865
53.2400,0.888
53.2800,0.884
53.3200,0.870
53.3600,0.908
53.4000,0.882
53.4400,0.863
53.4800,0.803
53.5200,0.826
53.5600,0.823
53.6000,0.799
53.6400,0.842
53.6800,0.799
53.7200,0.724
53.7600,0.804
53.8000,0.756
53.8400,0.760
53.8800,0.769
53.9200,0.791
53.9600,0.731
54.0000,0.740
54.0400,0.796
54.0800,0.775
54.1200,0.741
54.1600,0.742
54.2000,0.722
54.2400,0.707
54.2800,0.742
54.3200,0.732
54.3600,0.751
54.4000,0.719
54.4400,0.745
54.4800,0.662
54.5200,0.747
54.5600,0.736
54.6000,0.711
54.6400,0.708
54.6800,0.707
54.7200,0.736
54.7600,0.713
54.8000,0.691
54.8400,0.688
54.8800,0.727
54.9200,0.677
54.9600,0.735
55.0000,0.740
55.0400,0.687
55.0800,0.687
55.1200,0.699
55.1600,0.725
55.2000,0.707
55.2400,0.708
55.2800,0.687
55.3200,0.683
55.3600,0.742
55.4000,0.717
55.4400,0.729
55.4800,0.663
55.5200,0.715
55.5600,0.712
55.6000,0.671
55.6400,0.711
55.6800,0.684
55.7200,0.724
55.7600,0.667
55.8000,0.678
55.8400,0.634
55.8800,0.713
55.9200,0.710
55.9600,0.736
56.0000,0.680
56.0400,0.761
56.0800,0.739
56.1200,0.709
56.1600,0.668
56.2000,0.682
56.2400,0.725
56.2800,0.715
56.3200,0.716
56.3600,0.710
56.4000,0.700
56.4400,0.654
56.4800,0.690
56.5200,0.715
56.5600,0.663
56.6000,0.698
56.6400,0.671
56.6800,0.663
56.7200,0.671
56.7600,0.694
56.8000,0.631
56.8400,0.655
56.8800,0.650
56.9200,0.663
56.9600,0.638
57.0000,0.679
57.0400,0.679
57.0800,0.656
57.1200,0.632
57.1600,0.648
57.2000,0.670
57.2400,0.683
57.2800,0.654
57.3200,0.643
57.3600,0.623
57.4000,0.631
57.4400,0.650
57.4800,0.614
57.5200,0.639
57.5600,0.603
57.6000,0.662
57.6400,0.581
57.6800,0.625
57.7200,0.670
57.7600,0.590
57.8000,0.629
57.8400,0.653
57.8800,0.649
57.9200,0.647
57.9600,0.641
58.0000,0.645
58.0400,0.615
58.0800,0.601
58.1200,0.619
58.1600,0.630
58.2000,0.623
58.2400,0.612
58.2800,0.632
58.3200,0.651
58.3600,0.620
58.4000,0.614
58.4400,0.608
58.4800,0.632
58.5200,0.596
58.5600,0.631
58.6000,0.582
58.6400,0.635
58.6800,0.638
58.7200,0.651
58.7600,0.586
58.8000,0.616
58.8400,0.608
58.8800,0.592
58.9200,0.630
58.9600,0.621
59.0000,0.599
59.0400,0.624
59.0800,0.661
59.1200,0.607
59.1600,0.625
59.2000,0.634
59.2400,0.653
59.2800,0.647
59.3200,0.653
59.3600,0.593
59.4000,0.627
59.4400,0.612
59.4800,0.656
59.5200,0.598
59.5600,0.626
59.6000,0.582
59.6400,0.612
59.6800,0.621
59.7200,0.671
59.7600,0.640
59.8000,0.640
59.8400,0.627
59.8800,0.609
59.9200,0.620
59.9600,0.612
60.0000,0.579
60.0400,0.590
60.0800,0.647
60.1200,0.603
60.1600,0.588
60.2000,0.644
60.2400,0.631
60.2800,0.577
60.3200,0.622
60.3600,0.651
60.4000,0.627
60.4400,0.646
60.4800,0.660
60.5200,0.647
60.5600,0.659
60.6000,0.659
60.6400,0.626
60.6800,0.735
60.7200,0.682
60.7600,0.654
60.8000,0.695
60.8400,0.675
60.8800,0.716
60.9200,0.674
60.9600,0.688
61.0000,0.678
61.0400,0.594
61.0800,0.629
61.1200,0.652
61.1600,0.640
61.2000,0.588
61.2400,0.618
61.2800,0.624
61.3200,0.599
61.3600,0.641
61.4000,0.578
61.4400,0.620
61.4800,0.583
61.5200,0.582
61.5600,0.613
61.6000,0.580
61.6400,0.590
61.6800,0.619
61.7200,0.617
61.7600,0.687
61.8000,0.636
61.8400,0.585
61.8800,0.595
61.9200,0.581
61.9600,0.555
62.0000,0.553
62.0400,0.623
62.0800,0.603
62.1200,0.570
62.1600,0.567
62.2000,0.601
62.2400,0.559
62.2800,0.563
62.3200,0.535
62.3600,0.564
62.4000,0.559
62.4400,0.558
62.4800,0.554
62.5200,0.559
62.5600,0.560
62.6000,0.562
62.6400,0.561
62.6800,0.593
62.7200,0.569
62.7600,0.573
62.8000,0.533
62.8400,0.529
62.8800,0.565
62.9200,0.566
62.9600,0.550
63.0000,0.543
63.0400,0.571
63.0800,0.576
63.1200,0.550
63.1600,0.551
63.2000,0.557
63.2400,0.572
63.2800,0.542
63.3200,0.569
63.3600,0.572
63.4000,0.586
63.4400,0.568
63.4800,0.609
63.5200,0.633
63.5600,0.608
63.6000,0.559
63.6400,0.623
63.6800,0.648
63.7200,0.620
63.7600,0.654
63.8000,0.662
63.8400,0.637
63.8800,0.675
63.9200,0.732
63.9600,0.798
64.0000,0.785
64.0400,0.836
64.0800,0.876
64.1200,1.030
64.1600,1.057
64.2000,1.136
64.2400,1.230
64.2800,1.290
64.3200,1.370
64.3600,1.314
64.4000,1.328
64.4400,1.275
64.4800,1.212
64.5200,1.176
64.5600,1.042
64.6000,1.012
64.6400,0.971
64.6800,0.850
64.7200,0.790
64.7600,0.738
64.8000,0.778
64.8400,0.728
64.8800,0.755
64.9200,0.724
64.9600,0.723
65.0000,0.708
65.0400,0.647
65.0800,0.673
65.1200,0.674
65.1600,0.728
65.2000,0.607
65.2400,0.635
65.2800,0.631
65.3200,0.655
65.3600,0.698
65.4000,0.662
65.4400,0.636
65.4800,0.668
65.5200,0.676
65.5600,0.655
65.6000,0.695
65.6400,0.671
65.6800,0.711
65.7200,0.699
65.7600,0.692
65.8000,0.673
65.8400,0.687
65.8800,0.728
65.9200,0.666
65.9600,0.681
66.0000,0.747
66.0400,0.722
66.0800,0.693
66.1200,0.750
66.1600,0.741
66.2000,0.744
66.2400,0.727
66.2800,0.768
66.3200,0.789
66.3600,0.786
66.4000,0.769
66.4400,0.847
66.4800,0.764
66.5200,0.786
66.5600,0.830
66.6000,0.759
66.6400,0.785
66.6800,0.856
66.7200,0.846
66.7600,0.875
66.8000,0.831
66.8400,0.877
66.8800,0.899
66.9200,0.914
66.9600,0.927
67.0000,0.967
67.0400,0.945
67.0800,0.990
67.1200,0.981
67.1600,0.983
67.2000,1.020
67.2400,0.976
67.2800,1.042
67.3200,1.042
67.3600,1.133
67.4000,1.105
67.4400,1.094
67.4800,1.130
67.5200,1.130
67.5600,1.217
67.6000,1.200
67.6400,1.193
67.6800,1.241
67.7200,1.284
67.7600,1.296
67.8000,1.347
67.8400,1.427
67.8800,1.336
67.9200,1.422
67.9600,1.399
68.0000,1.494
68.0400,1.554
68.0800,1.659
68.1200,1.619
68.1600,1.667
68.2000,1.727
68.2400,1.740
68.2800,1.727
68.3200,1.847
68.3600,1.928
68.4000,2.017
68.4400,2.145
68.4800,2.081
68.5200,2.254
68.5600,2.338
68.6000,2.491
68.6400,2.613
68.6800,2.718
68.7200,2.967
68.7600,3.283
68.8000,3.891
68.8400,4.979
68.8800,6.371
68.9200,7.080
68.9600,7.047
69.0000,7.542
69.0400,9.132
69.0800,12.963
69.1200,22.330
69.1600,65.799
69.2000,311.013
69.2400,486.853
69.2800,246.891
69.3200,61.558
69.3600,57.450
69.4000,177.421
69.4400,248.176
69.4800,120.533
69.5200,30.074
69.5600,13.600
69.6000,9.297
69.6400,7.252
69.6800,6.128
69.7200,5.163
69.7600,4.529
69.8000,4.191
69.8400,3.805
69.8800,3.564
69.9200,3.426
69.9600,3.130
70.0000,3.087
70.0400,2.810
70.0800,2.722
70.1200,2.695
70.1600,2.571
70.2000,2.472
70.2400,2.369
70.2800,2.188
70.3200,2.122
70.3600,2.130
70.4000,2.048
70.4400,2.062
70.4800,1.845
70.5200,1.767
70.5600,1.711
70.6000,1.673
70.6400,1.708
70.6800,1.670
70.7200,1.571
70.7600,1.485
70.8000,1.399
70.8400,1.450
70.8800,1.452
70.9200,1.306
70.9600,1.353
71.0000,1.384
71.0400,1.262
71.0800,1.262
71.1200,1.132
71.1600,1.239
71.2000,1.175
71.2400,1.162
71.2800,1.083
71.3200,1.041
71.3600,1.046
71.4000,1.035
71.4400,1.033
71.4800,1.041
71.5200,0.942
71.5600,0.976
71.6000,0.926
71.6400,0.878
71.6800,0.905
71.7200,0.899
71.7600,0.844
71.8000,0.820
71.8400,0.844
71.8800,0.826
71.9200,0.795
71.9600,0.789
72.0000,0.793
72.0400,0.751
72.0800,0.729
72.1200,0.778
72.1600,0.748
72.2000,0.686
72.2400,0.687
72.2800,0.681
72.3200,0.675
72.3600,0.643
72.4000,0.689
72.4400,0.684
72.4800,0.657
72.5200,0.643
72.5600,0.611
72.6000,0.591
72.6400,0.606
72.6800,0.601
72.7200,0.585
72.7600,0.597
72.8000,0.588
72.8400,0.595
72.8800,0.576
72.9200,0.589
72.9600,0.599
73.0000,0.577
73.0400,0.551
73.0800,0.557
73.1200,0.523
73.1600,0.549
73.2000,0.524
73.2400,0.503
73.2800,0.529
73.3200,0.571
73.3600,0.504
73.4000,0.486
73.4400,0.508
73.4800,0.506
73.5200,0.486
73.5600,0.531
73.6000,0.522
73.6400,0.530
73.6800,0.489
73.7200,0.471
73.7600,0.492
73.8000,0.461
73.8400,0.509
73.8800,0.468
73.9200,0.422
73.9600,0.443
74.0000,0.460
74.0400,0.490
74.0800,0.480
74.1200,0.426
74.1600,0.440
74.2000,0.434
74.2400,0.464
74.2800,0.445
74.3200,0.433
74.3600,0.442
74.4000,0.450
74.4400,0.473
74.4800,0.473
74.5200,0.424
74.5600,0.452
74.6000,0.410
74.6400,0.430
74.6800,0.452
74.7200,0.418
74.7600,0.428
74.8000,0.449
74.8400,0.443
74.8800,0.427
74.9200,0.420
74.9600,0.424
75.0000,0.434
75.0400,0.462
75.0800,0.409
75.1200,0.440
75.1600,0.425
75.2000,0.411
75.2400,0.445
75.2800,0.443
75.3200,0.441
75.3600,0.416
75.4000,0.433
75.4400,0.455
75.4800,0.443
75.5200,0.438
75.5600,0.432
75.6000,0.416
75.6400,0.480
75.6800,0.474
75.7200,0.469
75.7600,0.481
75.8000,0.503
75.8400,0.469
75.8800,0.479
75.9200,0.465
75.9600,0.492
76.0000,0.465
76.0400,0.454
76.0800,0.504
76.1200,0.459
76.1600,0.476
76.2000,0.494
76.2400,0.460
76.2800,0.440
76.3200,0.453
76.3600,0.469
76.4000,0.471
76.4400,0.508
76.4800,0.480
76.5200,0.549
76.5600,0.551
76.6000,0.577
76.6400,0.612
76.6800,0.636
76.7200,0.630
76.7600,0.750
76.8000,0.797
76.8400,0.839
76.8800,0.860
76.9200,0.931
76.9600,0.982
77.0000,0.968
77.0400,1.015
77.0800,0.937
77.1200,0.985
77.1600,0.908
77.2000,0.888
77.2400,0.840
77.2800,0.782
77.3200,0.734
77.3600,0.663
77.4000,0.624
77.4400,0.610
77.4800,0.547
77.5200,0.515
77.5600,0.541
77.6000,0.524
77.6400,0.483
77.6800,0.452
77.7200,0.468
77.7600,0.426
77.8000,0.414
77.8400,0.426
77.8800,0.431
77.9200,0.410
77.9600,0.414
78.0000,0.445
78.0400,0.401
78.0800,0.446
78.1200,0.422
78.1600,0.396
78.2000,0.416
78.2400,0.406
78.2800,0.437
78.3200,0.448
78.3600,0.416
78.4000,0.491
78.4400,0.460
78.4800,0.491
78.5200,0.513
78.5600,0.536
78.6000,0.527
78.6400,0.563
78.6800,0.566
78.7200,0.534
78.7600,0.518
78.8000,0.565
78.8400,0.581
78.8800,0.583
78.9200,0.592
78.9600,0.609
79.0000,0.567
79.0400,0.590
79.0800,0.536
79.1200,0.539
79.1600,0.528
79.2000,0.533
79.2400,0.483
79.2800,0.495
79.3200,0.475
79.3600,0.471
79.4000,0.462
79.4400,0.440
79.4800,0.416
79.5200,0.439
79.5600,0.404
79.6000,0.389
79.6400,0.403
79.6800,0.373
79.7200,0.361
79.7600,0.394
79.8000,0.357
79.8400,0.368
79.8800,0.361
79.9200,0.328
79.9600,0.367
80.0000,0.384
