theta,intensity
5.0000,17.893
5.0400,17.827
5.0800,17.637
5.1200,17.466
5.1600,17.663
5.2000,17.373
5.2400,17.312
5.2800,17.066
5.3200,17.152
5.3600,16.789
5.4000,16.617
5.4400,16.731
5.4800,16.448
5.5200,16.208
5.5600,16.217
5.6000,15.823
5.6400,15.757
5.6800,15.882
5.7200,15.539
5.7600,15.101
5.8000,15.004
5.8400,14.761
5.8800,14.909
5.9200,14.517
5.9600,14.385
6.0000,14.476
6.0400,14.119
6.0800,13.813
6.1200,13.804
6.1600,13.497
6.2000,13.223
6.2400,13.132
6.2800,12.958
6.3200,12.518
6.3600,12.496
6.4000,12.396
6.4400,12.347
6.4800,12.231
6.5200,12.102
6.5600,11.789
6.6000,11.551
6.6400,11.510
6.6800,11.377
6.7200,11.134
6.7600,10.958
6.8000,10.816
6.8400,10.787
6.8800,10.912
6.9200,10.604
6.9600,10.408
7.0000,10.098
7.0400,10.337
7.0800,10.117
7.1200,9.848
7.1600,9.732
7.2000,9.855
7.2400,9.620
7.2800,9.365
7.3200,9.445
7.3600,9.379
7.4000,9.198
7.4400,9.179
7.4800,9.146
7.5200,8.916
7.5600,8.732
7.6000,8.675
7.6400,8.485
7.6800,8.573
7.7200,8.422
7.7600,8.338
7.8000,8.101
7.8400,8.029
7.8800,8.014
7.9200,7.925
7.9600,7.904
8.0000,7.824
8.0400,7.625
8.0800,7.802
8.1200,7.509
8.1600,7.381
8.2000,7.331
8.2400,7.388
8.2800,7.193
8.3200,7.020
8.3600,7.000
8.4000,6.984
8.4400,6.963
8.4800,6.805
8.5200,6.769
8.5600,6.690
8.6000,6.742
8.6400,6.465
8.6800,6.582
8.7200,6.546
8.7600,6.421
8.8000,6.397
8.8400,6.309
8.8800,6.146
8.9200,6.153
8.9600,6.211
9.0000,6.048
9.0400,5.999
9.0800,5.905
9.1200,5.872
9.1600,5.800
9.2000,5.902
9.2400,5.845
9.2800,5.669
9.3200,5.722
9.3600,5.534
9.4000,5.596
9.4400,5.319
9.4800,5.456
9.5200,5.496
9.5600,5.324
9.6000,5.387
9.6400,5.193
9.6800,5.266
9.7200,5.288
9.7600,5.139
9.8000,5.129
9.8400,5.051
9.8800,4.964
9.9200,4.997
9.9600,5.088
10.0000,4.937
10.0400,5.056
10.0800,4.854
10.1200,4.965
10.1600,4.872
10.2000,4.778
10.2400,4.773
10.2800,4.666
10.3200,4.749
10.3600,4.796
10.4000,4.581
10.4400,4.594
10.4800,4.513
10.5200,4.543
10.5600,4.554
10.6000,4.417
10.6400,4.352
10.6800,4.373
10.7200,4.314
10.7600,4.324
10.8000,4.386
10.8400,4.244
10.8800,4.310
10.9200,4.277
10.9600,4.302
11.0000,4.212
11.0400,4.157
11.0800,4.286
11.1200,4.123
11.1600,4.054
11.2000,4.110
11.2400,4.092
11.2800,4.064
11.3200,4.124
11.3600,4.082
11.4000,3.954
11.4400,3.971
11.4800,3.975
11.5200,3.929
11.5600,3.819
11.6000,3.921
11.6400,3.830
11.6800,3.930
11.7200,3.846
11.7600,3.917
11.8000,3.789
11.8400,3.725
11.8800,3.877
11.9200,3.807
11.9600,3.744
12.0000,3.722
12.0400,3.699
12.0800,3.791
12.1200,3.715
12.1600,3.636
12.2000,3.666
12.2400,3.598
12.2800,3.658
12.3200,3.579
12.3600,3.622
12.4000,3.663
12.4400,3.639
12.4800,3.532
12.5200,3.584
12.5600,3.587
12.6000,3.542
12.6400,3.487
12.6800,3.567
12.7200,3.429
12.7600,3.445
12.8000,3.405
12.8400,3.458
12.8800,3.413
12.9200,3.518
12.9600,3.436
13.0000,3.423
13.0400,3.456
13.0800,3.446
13.1200,3.401
13.1600,3.419
13.2000,3.444
13.2400,3.365
13.2800,3.338
13.3200,3.444
13.3600,3.345
13.4000,3.334
13.4400,3.378
13.4800,3.431
13.5200,3.359
13.5600,3.350
13.6000,3.280
13.6400,3.299
13.6800,3.283
13.7200,3.372
13.7600,3.392
13.8000,3.228
13.8400,3.359
13.8800,3.336
13.9200,3.268
13.9600,3.327
14.0000,3.320
14.0400,3.283
14.0800,3.269
14.1200,3.114
14.1600,3.199
14.2000,3.244
14.2400,3.287
14.2800,3.283
14.3200,3.105
14.3600,3.173
14.4000,3.164
14.4400,3.164
14.4800,3.129
14.5200,3.273
14.5600,3.067
14.6000,3.182
14.6400,3.241
14.6800,3.111
14.7200,3.191
14.7600,3.072
14.8000,3.194
14.8400,3.081
14.8800,3.215
14.9200,3.196
14.9600,3.099
15.0000,3.139
15.0400,3.116
15.0800,3.086
15.1200,3.116
15.1600,3.027
15.2000,3.114
15.2400,3.183
15.2800,3.171
15.3200,3.140
15.3600,3.173
15.4000,3.059
15.4400,3.267
15.4800,3.174
15.5200,3.181
15.5600,3.173
15.6000,3.096
15.6400,3.049
15.6800,3.046
15.7200,3.062
15.7600,3.008
15.8000,3.038
15.8400,3.125
15.8800,3.202
15.9200,3.092
15.9600,3.032
16.0000,3.009
16.0400,3.041
16.0800,2.943
16.1200,2.972
16.1600,3.042
16.2000,3.023
16.2400,3.046
16.2800,3.008
16.3200,3.080
16.3600,2.911
16.4000,2.992
16.4400,2.944
16.4800,2.956
16.5200,2.952
16.5600,3.006
16.6000,2.947
16.6400,2.928
16.6800,2.963
16.7200,3.055
16.7600,2.998
16.8000,2.925
16.8400,3.008
16.8800,2.890
16.9200,2.972
16.9600,2.978
17.0000,2.909
17.0400,2.931
17.0800,2.853
17.1200,2.933
17.1600,2.919
17.2000,2.907
17.2400,2.947
17.2800,2.904
17.3200,2.751
17.3600,2.921
17.4000,2.964
17.4400,2.947
17.4800,2.828
17.5200,2.920
17.5600,2.920
17.6000,2.866
17.6400,2.874
17.6800,2.894
17.7200,2.962
17.7600,2.933
17.8000,2.810
17.8400,2.943
17.8800,2.968
17.9200,2.884
17.9600,2.860
18.0000,2.807
18.0400,2.894
18.0800,2.878
18.1200,2.876
18.1600,2.771
18.2000,2.835
18.2400,2.880
18.2800,2.855
18.3200,2.818
18.3600,2.758
18.4000,2.730
18.4400,2.820
18.4800,2.818
18.5200,2.747
18.5600,2.900
18.6000,2.804
18.6400,2.836
18.6800,2.790
18.7200,2.748
18.7600,2.824
18.8000,2.814
18.8400,2.795
18.8800,2.784
18.9200,2.881
18.9600,2.704
19.0000,2.788
19.0400,2.760
19.0800,2.732
19.1200,2.683
19.1600,2.652
19.2000,2.757
19.2400,2.703
19.2800,2.728
19.3200,2.726
19.3600,2.820
19.4000,2.695
19.4400,2.683
19.4800,2.719
19.5200,2.693
19.5600,2.716
19.6000,2.715
19.6400,2.753
19.6800,2.720
19.7200,2.733
19.7600,2.637
19.8000,2.681
19.8400,2.661
19.8800,2.672
19.9200,2.741
19.9600,2.698
20.0000,2.681
20.0400,2.688
20.0800,2.626
20.1200,2.611
20.1600,2.610
20.2000,2.668
20.2400,2.714
20.2800,2.705
20.3200,2.599
20.3600,2.657
20.4000,2.643
20.4400,2.683
20.4800,2.577
20.5200,2.632
20.5600,2.684
20.6000,2.617
20.6400,2.584
20.6800,2.617
20.7200,2.549
20.7600,2.619
20.8000,2.581
20.8400,2.652
20.8800,2.658
20.9200,2.640
20.9600,2.532
21.0000,2.533
21.0400,2.608
21.0800,2.512
21.1200,2.466
21.1600,2.476
21.2000,2.583
21.2400,2.491
21.2800,2.510
21.3200,2.549
21.3600,2.560
21.4000,2.534
21.4400,2.596
21.4800,2.477
21.5200,2.533
21.5600,2.521
21.6000,2.564
21.6400,2.537
21.6800,2.502
21.7200,2.479
21.7600,2.490
21.8000,2.477
21.8400,2.448
21.8800,2.434
21.9200,2.451
21.9600,2.509
22.0000,2.447
22.0400,2.534
22.0800,2.437
22.1200,2.496
22.1600,2.454
22.2000,2.421
22.2400,2.362
22.2800,2.403
22.3200,2.384
22.3600,2.438
22.4000,2.442
22.4400,2.497
22.4800,2.439
22.5200,2.364
22.5600,2.436
22.6000,2.457
22.6400,2.335
22.6800,2.396
22.7200,2.403
22.7600,2.423
22.8000,2.355
22.8400,2.339
22.8800,2.360
22.9200,2.309
22.9600,2.344
23.0000,2.484
23.0400,2.390
23.0800,2.348
23.1200,2.371
23.1600,2.364
23.2000,2.389
23.2400,2.442
23.2800,2.435
23.3200,2.315
23.3600,2.377
23.4000,2.388
23.4400,2.394
23.4800,2.346
23.5200,2.293
23.5600,2.345
23.6000,2.343
23.6400,2.343
23.6800,2.265
23.7200,2.314
23.7600,2.333
23.8000,2.289
23.8400,2.273
23.8800,2.343
23.9200,2.350
23.9600,2.290
24.0000,2.224
24.0400,2.286
24.0800,2.332
24.1200,2.353
24.1600,2.269
24.2000,2.296
24.2400,2.251
24.2800,2.289
24.3200,2.176
24.3600,2.290
24.4000,2.212
24.4400,2.180
24.4800,2.190
24.5200,2.295
24.5600,2.348
24.6000,2.299
24.6400,2.253
24.6800,2.219
24.7200,2.142
24.7600,2.238
24.8000,2.246
24.8400,2.256
24.8800,2.135
24.9200,2.256
24.9600,2.232
25.0000,2.296
25.0400,2.247
25.0800,2.215
25.1200,2.291
25.1600,2.178
25.2000,2.197
25.2400,2.190
25.2800,2.131
25.3200,2.153
25.3600,2.113
25.4000,2.142
25.4400,2.157
25.4800,2.150
25.5200,2.196
25.5600,2.106
25.6000,2.235
25.6400,2.265
25.6800,2.175
25.7200,2.215
25.7600,2.209
25.8000,2.134
25.8400,2.144
25.8800,2.151
25.9200,2.133
25.9600,2.108
26.0000,2.199
26.0400,2.172
26.0800,2.133
26.1200,2.140
26.1600,2.058
26.2000,2.187
26.2400,2.087
26.2800,2.146
26.3200,2.111
26.3600,2.184
26.4000,2.087
26.4400,2.133
26.4800,2.141
26.5200,2.118
26.5600,2.058
26.6000,2.065
26.6400,2.129
26.6800,2.088
26.7200,2.033
26.7600,2.017
26.8000,2.075
26.8400,2.075
26.8800,2.016
26.9200,2.047
26.9600,2.014
27.0000,2.060
27.0400,2.058
27.0800,2.070
27.1200,2.055
27.1600,2.067
27.2000,2.056
27.2400,2.010
27.2800,2.031
27.3200,2.039
27.3600,1.982
27.4000,2.076
27.4400,1.993
27.4800,2.045
27.5200,2.016
27.5600,1.950
27.6000,2.031
27.6400,2.028
27.6800,2.031
27.7200,2.045
27.7600,1.974
27.8000,1.992
27.8400,1.959
27.8800,1.920
27.9200,1.972
27.9600,1.929
28.0000,1.957
28.0400,2.026
28.0800,2.025
28.1200,2.004
28.1600,1.998
28.2000,1.971
28.2400,1.959
28.2800,1.961
28.3200,1.946
28.3600,1.913
28.4000,1.891
28.4400,1.925
28.4800,1.928
28.5200,1.918
28.5600,1.946
28.6000,1.866
28.6400,1.885
28.6800,1.956
28.7200,1.886
28.7600,1.921
28.8000,1.919
28.8400,1.922
28.8800,1.953
28.9200,1.928
28.9600,1.926
29.0000,1.859
29.0400,1.880
29.0800,1.859
29.1200,1.965
29.1600,1.880
29.2000,1.855
29.2400,1.881
29.2800,1.896
29.3200,1.886
29.3600,1.863
29.4000,1.840
29.4400,1.875
29.4800,1.889
29.5200,1.937
29.5600,1.862
29.6000,1.973
29.6400,1.925
29.6800,1.877
29.7200,1.914
29.7600,1.862
29.8000,1.830
29.8400,1.836
29.8800,1.823
29.9200,1.829
29.9600,1.830
30.0000,1.792
30.0400,1.812
30.0800,1.813
30.1200,1.787
30.1600,1.876
30.2000,1.806
30.2400,1.807
30.2800,1.786
30.3200,1.819
30.3600,1.779
30.4000,1.772
30.4400,1.719
30.4800,1.804
30.5200,1.820
30.5600,1.745
30.6000,1.810
30.6400,1.755
30.6800,1.755
30.7200,1.747
30.7600,1.802
30.8000,1.725
30.8400,1.787
30.8800,1.753
30.9200,1.782
30.9600,1.671
31.0000,1.728
31.0400,1.713
31.0800,1.753
31.1200,1.713
31.1600,1.707
31.2000,1.736
31.2400,1.726
31.2800,1.767
31.3200,1.714
31.3600,1.773
31.4000,1.787
31.4400,1.753
31.4800,1.706
31.5200,1.766
31.5600,1.746
31.6000,1.701
31.6400,1.801
31.6800,1.677
31.7200,1.699
31.7600,1.699
31.8000,1.717
31.8400,1.700
31.8800,1.667
31.9200,1.688
31.9600,1.741
32.0000,1.602
32.0400,1.672
32.0800,1.687
32.1200,1.619
32.1600,1.681
32.2000,1.603
32.2400,1.682
32.2800,1.604
32.3200,1.580
32.3600,1.696
32.4000,1.676
32.4400,1.682
32.4800,1.640
32.5200,1.635
32.5600,1.624
32.6000,1.583
32.6400,1.590
32.6800,1.676
32.7200,1.627
32.7600,1.692
32.8000,1.649
32.8400,1.626
32.8800,1.631
32.9200,1.603
32.9600,1.595
33.0000,1.577
33.0400,1.666
33.0800,1.646
33.1200,1.593
33.1600,1.628
33.2000,1.682
33.2400,1.667
33.2800,1.577
33.3200,1.548
33.3600,1.571
33.4000,1.549
33.4400,1.504
33.4800,1.586
33.5200,1.600
33.5600,1.523
33.6000,1.565
33.6400,1.598
33.6800,1.544
33.7200,1.559
33.7600,1.555
33.8000,1.518
33.8400,1.627
33.8800,1.574
33.9200,1.510
33.9600,1.526
34.0000,1.542
34.0400,1.560
34.0800,1.556
34.1200,1.540
34.1600,1.523
34.2000,1.527
34.2400,1.517
34.2800,1.506
34.3200,1.471
34.3600,1.558
34.4000,1.476
34.4400,1.527
34.4800,1.554
34.5200,1.544
34.5600,1.492
34.6000,1.507
34.6400,1.509
34.6800,1.458
34.7200,1.487
34.7600,1.550
34.8000,1.498
34.8400,1.543
34.8800,1.529
34.9200,1.474
34.9600,1.504
35.0000,1.570
35.0400,1.494
35.0800,1.541
35.1200,1.536
35.1600,1.449
35.2000,1.510
35.2400,1.543
35.2800,1.558
35.3200,1.513
35.3600,1.542
35.4000,1.544
35.4400,1.540
35.4800,1.468
35.5200,1.552
35.5600,1.498
35.6000,1.526
35.6400,1.517
35.6800,1.497
35.7200,1.557
35.7600,1.625
35.8000,1.541
35.8400,1.506
35.8800,1.561
35.9200,1.548
35.9600,1.612
36.0000,1.504
36.0400,1.489
36.0800,1.539
36.1200,1.529
36.1600,1.441
36.2000,1.396
36.2400,1.497
36.2800,1.470
36.3200,1.481
36.3600,1.454
36.4000,1.559
36.4400,1.487
36.4800,1.518
36.5200,1.441
36.5600,1.486
36.6000,1.485
36.6400,1.437
36.6800,1.399
36.7200,1.433
36.7600,1.482
36.8000,1.490
36.8400,1.542
36.8800,1.540
36.9200,1.454
36.9600,1.424
37.0000,1.485
37.0400,1.497
37.0800,1.502
37.1200,1.500
37.1600,1.516
37.2000,1.443
37.2400,1.457
37.2800,1.527
37.3200,1.507
37.3600,1.585
37.4000,1.570
37.4400,1.550
37.4800,1.591
37.5200,1.606
37.5600,1.556
37.6000,1.602
37.6400,1.613
37.6800,1.607
37.7200,1.664
37.7600,1.718
37.8000,1.753
37.8400,1.838
37.8800,1.891
37.9200,1.958
37.9600,2.019
38.0000,2.103
38.0400,2.159
38.0800,2.257
38.1200,2.308
38.1600,2.510
38.2000,2.663
38.2400,2.835
38.2800,2.969
38.3200,3.045
38.3600,3.201
38.4000,3.367
38.4400,3.392
38.4800,3.491
38.5200,3.607
38.5600,3.668
38.6000,3.723
38.6400,3.835
38.6800,3.753
38.7200,3.770
38.7600,3.615
38.8000,3.592
38.8400,3.413
38.8800,3.264
38.9200,3.245
38.9600,3.130
39.0000,2.932
39.0400,2.860
39.0800,2.736
39.1200,2.627
39.1600,2.647
39.2000,2.437
39.2400,2.542
39.2800,2.485
39.3200,2.474
39.3600,2.399
39.4000,2.304
39.4400,2.363
39.4800,2.373
39.5200,2.376
39.5600,2.330
39.6000,2.357
39.6400,2.233
39.6800,2.315
39.7200,2.359
39.7600,2.265
39.8000,2.236
39.8400,2.187
39.8800,2.127
39.9200,2.130
39.9600,2.053
40.0000,2.010
40.0400,1.956
40.0800,1.982
40.1200,1.954
40.1600,1.821
40.2000,1.869
40.2400,1.907
40.2800,1.816
40.3200,1.791
40.3600,1.760
40.4000,1.705
40.4400,1.631
40.4800,1.662
40.5200,1.572
40.5600,1.556
40.6000,1.554
40.6400,1.614
40.6800,1.571
40.7200,1.598
40.7600,1.630
40.8000,1.647
40.8400,1.614
40.8800,1.715
40.9200,1.724
40.9600,1.708
41.0000,1.760
41.0400,1.746
41.0800,1.773
41.1200,1.741
41.1600,1.798
41.2000,1.757
41.2400,1.776
41.2800,1.678
41.3200,1.673
41.3600,1.688
41.4000,1.656
41.4400,1.568
41.4800,1.562
41.5200,1.439
41.5600,1.442
41.6000,1.387
41.6400,1.349
41.6800,1.282
41.7200,1.313
41.7600,1.283
41.8000,1.273
41.8400,1.312
41.8800,1.220
41.9200,1.227
41.9600,1.250
42.0000,1.233
42.0400,1.183
42.0800,1.179
42.1200,1.168
42.1600,1.140
42.2000,1.179
42.2400,1.151
42.2800,1.210
42.3200,1.115
42.3600,1.175
42.4000,1.206
42.4400,1.177
42.4800,1.075
42.5200,1.153
42.5600,1.124
42.6000,1.088
42.6400,1.167
42.6800,1.165
42.7200,1.141
42.7600,1.135
42.8000,1.157
42.8400,1.106
42.8800,1.118
42.9200,1.110
42.9600,1.136
43.0000,1.116
43.0400,1.145
43.0800,1.162
43.1200,1.099
43.1600,1.177
43.2000,1.162
43.2400,1.135
43.2800,1.204
43.3200,1.195
43.3600,1.179
43.4000,1.183
43.4400,1.188
43.4800,1.142
43.5200,1.190
43.5600,1.154
43.6000,1.241
43.6400,1.176
43.6800,1.180
43.7200,1.230
43.7600,1.253
43.8000,1.233
43.8400,1.232
43.8800,1.236
43.9200,1.337
43.9600,1.373
44.0000,1.358
44.0400,1.336
44.0800,1.331
44.1200,1.354
44.1600,1.429
44.2000,1.451
44.2400,1.445
44.2800,1.571
44.3200,1.538
44.3600,1.712
44.4000,1.612
44.4400,1.671
44.4800,1.715
44.5200,1.718
44.5600,1.788
44.6000,1.792
44.6400,1.814
44.6800,1.853
44.7200,1.854
44.7600,1.847
44.8000,1.791
44.8400,1.768
44.8800,1.798
44.9200,1.742
44.9600,1.720
45.0000,1.679
45.0400,1.726
45.0800,1.705
45.1200,1.770
45.1600,1.694
45.2000,1.637
45.2400,1.625
45.2800,1.493
45.3200,1.527
45.3600,1.448
45.4000,1.471
45.4400,1.471
45.4800,1.369
45.5200,1.356
45.5600,1.421
45.6000,1.386
45.6400,1.422
45.6800,1.310
45.7200,1.335
45.7600,1.242
45.8000,1.278
45.8400,1.260
45.8800,1.259
45.9200,1.270
45.9600,1.217
46.0000,1.261
46.0400,1.211
46.0800,1.176
46.1200,1.159
46.1600,1.230
46.2000,1.213
46.2400,1.141
46.2800,1.137
46.3200,1.182
46.3600,1.113
46.4000,1.177
46.4400,1.125
46.4800,1.056
46.5200,1.145
46.5600,1.103
46.6000,1.065
46.6400,1.086
46.6800,1.056
46.7200,1.054
46.7600,1.091
46.8000,1.028
46.8400,1.021
46.8800,0.990
46.9200,1.022
46.9600,1.036
47.0000,1.015
47.0400,0.977
47.0800,0.988
47.1200,1.056
47.1600,1.044
47.2000,0.956
47.2400,0.990
47.2800,0.955
47.3200,0.964
47.3600,0.989
47.4000,0.943
47.4400,0.911
47.4800,0.997
47.5200,0.947
47.5600,0.901
47.6000,0.927
47.6400,0.971
47.6800,0.967
47.7200,0.954
47.7600,0.938
47.8000,0.977
47.8400,0.962
47.8800,0.947
47.9200,0.897
47.9600,0.909
48.0000,0.933
48.0400,0.947
48.0800,0.949
48.1200,1.002
48.1600,0.957
48.2000,0.892
48.2400,0.934
48.2800,0.925
48.3200,0.903
48.3600,0.860
48.4000,0.897
48.4400,0.897
48.4800,0.880
48.5200,0.903
48.5600,0.897
48.6000,0.854
48.6400,0.825
48.6800,0.768
48.7200,0.815
48.7600,0.864
48.8000,0.820
48.8400,0.814
48.8800,0.809
48.9200,0.832
48.9600,0.780
49.0000,0.814
49.0400,0.804
49.0800,0.843
49.1200,0.880
49.1600,0.787
49.2000,0.825
49.2400,0.814
49.2800,0.760
49.3200,0.832
49.3600,0.836
49.4000,0.830
49.4400,0.824
49.4800,0.818
49.5200,0.803
49.5600,0.841
49.6000,0.806
49.6400,0.789
49.6800,0.780
49.7200,0.788
49.7600,0.820
49.8000,0.805
49.8400,0.831
49.8800,0.813
49.9200,0.782
49.9600,0.776
50.0000,0.755
50.0400,0.792
50.0800,0.862
50.1200,0.813
50.1600,0.793
50.2000,0.755
50.2400,0.803
50.2800,0.740
50.3200,0.805
50.3600,0.807
50.4000,0.752
50.4400,0.769
50.4800,0.827
50.5200,0.752
50.5600,0.762
50.6000,0.766
50.6400,0.758
50.6800,0.812
50.7200,0.806
50.7600,0.794
50.8000,0.765
50.8400,0.766
50.8800,0.774
50.9200,0.746
50.9600,0.723
51.0000,0.754
51.0400,0.735
51.0800,0.758
51.1200,0.767
51.1600,0.794
51.2000,0.729
51.2400,0.756
51.2800,0.767
51.3200,0.773
51.3600,0.771
51.4000,0.799
51.4400,0.744
51.4800,0.730
51.5200,0.723
51.5600,0.654
51.6000,0.774
51.6400,0.759
51.6800,0.753
51.7200,0.751
51.7600,0.717
51.8000,0.711
51.8400,0.729
51.8800,0.730
51.9200,0.732
51.9600,0.682
52.0000,0.716
52.0400,0.741
52.0800,0.710
52.1200,0.709
52.1600,0.700
52.2000,0.713
52.2400,0.738
52.2800,0.697
52.3200,0.702
52.3600,0.695
52.4000,0.730
52.4400,0.708
52.4800,0.670
52.5200,0.716
52.5600,0.669
52.6000,0.688
52.6400,0.680
52.6800,0.699
52.7200,0.689
52.7600,0.687
52.8000,0.681
52.8400,0.729
52.8800,0.704
52.9200,0.716
52.9600,0.703
53.0000,0.673
53.0400,0.725
53.0800,0.683
53.1200,0.730
53.1600,0.715
53.2000,0.683
53.2400,0.652
53.2800,0.695
53.3200,0.670
53.3600,0.672
53.4000,0.655
53.4400,0.666
53.4800,0.655
53.5200,0.702
53.5600,0.631
53.6000,0.648
53.6400,0.673
53.6800,0.694
53.7200,0.674
53.7600,0.672
53.8000,0.677
53.8400,0.626
53.8800,0.649
53.9200,0.684
53.9600,0.677
54.0000,0.668
54.0400,0.695
54.0800,0.716
54.1200,0.664
54.1600,0.721
54.2000,0.718
54.2400,0.679
54.2800,0.681
54.3200,0.644
54.3600,0.632
54.4000,0.698
54.4400,0.658
54.4800,0.677
54.5200,0.685
54.5600,0.696
54.6000,0.673
54.6400,0.642
54.6800,0.697
54.7200,0.684
54.7600,0.661
54.8000,0.651
54.8400,0.611
54.8800,0.634
54.9200,0.642
54.9600,0.691
55.0000,0.657
55.0400,0.650
55.0800,0.664
55.1200,0.631
55.1600,0.642
55.2000,0.692
55.2400,0.634
55.2800,0.674
55.3200,0.634
55.3600,0.592
55.4000,0.670
55.4400,0.616
55.4800,0.655
55.5200,0.657
55.5600,0.638
55.6000,0.647
55.6400,0.654
55.6800,0.677
55.7200,0.612
55.7600,0.627
55.8000,0.592
55.8400,0.649
55.8800,0.638
55.9200,0.624
55.9600,0.647
56.0000,0.593
56.0400,0.626
56.0800,0.650
56.1200,0.625
56.1600,0.635
56.2000,0.592
56.2400,0.645
56.2800,0.658
56.3200,0.637
56.3600,0.640
56.4000,0.636
56.4400,0.606
56.4800,0.635
56.5200,0.594
56.5600,0.621
56.6000,0.629
56.6400,0.613
56.6800,0.618
56.7200,0.617
56.7600,0.630
56.8000,0.602
56.8400,0.653
56.8800,0.571
56.9200,0.597
56.9600,0.582
57.0000,0.605
57.0400,0.646
57.0800,0.632
57.1200,0.596
57.1600,0.616
57.2000,0.596
57.2400,0.598
57.2800,0.635
57.3200,0.597
57.3600,0.589
57.4000,0.563
57.4400,0.622
57.4800,0.613
57.5200,0.585
57.5600,0.638
57.6000,0.577
57.6400,0.599
57.6800,0.636
57.7200,0.591
57.7600,0.636
57.8000,0.609
57.8400,0.583
57.8800,0.606
57.9200,0.619
57.9600,0.604
58.0000,0.606
58.0400,0.568
58.0800,0.638
58.1200,0.644
58.1600,0.640
58.2000,0.616
58.2400,0.626
58.2800,0.593
58.3200,0.587
58.3600,0.569
58.4000,0.610
58.4400,0.563
58.4800,0.572
58.5200,0.588
58.5600,0.590
58.6000,0.566
58.6400,0.610
58.6800,0.573
58.7200,0.601
58.7600,0.589
58.8000,0.599
58.8400,0.619
58.8800,0.577
58.9200,0.565
58.9600,0.572
59.0000,0.593
59.0400,0.578
59.0800,0.557
59.1200,0.557
59.1600,0.577
59.2000,0.587
59.2400,0.575
59.2800,0.550
59.3200,0.594
59.3600,0.579
59.4000,0.568
59.4400,0.544
59.4800,0.561
59.5200,0.599
59.5600,0.608
59.6000,0.561
59.6400,0.553
59.6800,0.549
59.7200,0.569
59.7600,0.572
59.8000,0.578
59.8400,0.608
59.8800,0.589
59.9200,0.595
59.9600,0.565
60.0000,0.561
60.0400,0.565
60.0800,0.546
60.1200,0.608
60.1600,0.561
60.2000,0.566
60.2400,0.567
60.2800,0.609
60.3200,0.590
60.3600,0.568
60.4000,0.557
60.4400,0.585
60.4800,0.584
60.5200,0.578
60.5600,0.550
60.6000,0.537
60.6400,0.613
60.6800,0.513
60.7200,0.575
60.7600,0.572
60.8000,0.540
60.8400,0.605
60.8800,0.574
60.9200,0.577
60.9600,0.582
61.0000,0.570
61.0400,0.576
61.0800,0.553
61.1200,0.549
61.1600,0.546
61.2000,0.577
61.2400,0.575
61.2800,0.626
61.3200,0.550
61.3600,0.586
61.4000,0.556
61.4400,0.601
61.4800,0.596
61.5200,0.545
61.5600,0.587
61.6000,0.688
61.6400,0.692
61.6800,0.630
61.7200,0.563
61.7600,0.579
61.8000,0.584
61.8400,0.561
61.8800,0.578
61.9200,0.567
61.9600,0.577
62.0000,0.555
62.0400,0.560
62.0800,0.517
62.1200,0.553
62.1600,0.578
62.2000,0.550
62.2400,0.552
62.2800,0.550
62.3200,0.519
62.3600,0.570
62.4000,0.556
62.4400,0.541
62.4800,0.547
62.5200,0.556
62.5600,0.519
62.6000,0.554
62.6400,0.534
62.6800,0.562
62.7200,0.535
62.7600,0.551
62.8000,0.547
62.8400,0.573
62.8800,0.557
62.9200,0.551
62.9600,0.542
63.0000,0.517
63.0400,0.560
63.0800,0.547
63.1200,0.550
63.1600,0.579
63.2000,0.569
63.2400,0.576
63.2800,0.553
63.3200,0.525
63.3600,0.574
63.4000,0.584
63.4400,0.530
63.4800,0.571
63.5200,0.574
63.5600,0.598
63.6000,0.599
63.6400,0.569
63.6800,0.614
63.7200,0.596
63.7600,0.594
63.8000,0.567
63.8400,0.555
63.8800,0.601
63.9200,0.584
63.9600,0.600
64.0000,0.600
64.0400,0.628
64.0800,0.621
64.1200,0.595
64.1600,0.589
64.2000,0.613
64.2400,0.604
64.2800,0.663
64.3200,0.641
64.3600,0.678
64.4000,0.681
64.4400,0.712
64.4800,0.695
64.5200,0.705
64.5600,0.765
64.6000,0.722
64.6400,0.793
64.6800,0.735
64.7200,0.731
64.7600,0.808
64.8000,0.820
64.8400,0.759
64.8800,0.785
64.9200,0.789
64.9600,0.874
65.0000,0.904
65.0400,0.888
65.0800,0.888
65.1200,0.890
65.1600,0.949
65.2000,0.906
65.2400,0.907
65.2800,0.955
65.3200,0.968
65.3600,0.943
65.4000,0.984
65.4400,1.007
65.4800,1.015
65.5200,1.039
65.5600,0.965
65.6000,0.971
65.6400,0.997
65.6800,0.984
65.7200,1.063
65.7600,1.007
65.8000,0.981
65.8400,0.974
65.8800,0.980
65.9200,0.963
65.9600,0.952
66.0000,0.973
66.0400,0.979
66.0800,0.960
66.1200,0.944
66.1600,0.898
66.2000,0.888
66.2400,0.952
66.2800,0.871
66.3200,0.881
66.3600,0.879
66.4000,0.914
66.4400,0.923
66.4800,0.959
66.5200,0.901
66.5600,0.945
66.6000,0.962
66.6400,0.984
66.6800,0.912
66.7200,0.943
66.7600,0.975
66.8000,0.967
66.8400,1.003
66.8800,0.955
66.9200,1.031
66.9600,1.030
67.0000,1.037
67.0400,1.053
67.0800,1.082
67.1200,1.118
67.1600,1.140
67.2000,1.108
67.2400,1.140
67.2800,1.145
67.3200,1.232
67.3600,1.222
67.4000,1.215
67.4400,1.335
67.4800,1.231
67.5200,1.353
67.5600,1.268
67.6000,1.376
67.6400,1.379
67.6800,1.403
67.7200,1.475
67.7600,1.430
67.8000,1.443
67.8400,1.472
67.8800,1.561
67.9200,1.647
67.9600,1.639
68.0000,1.656
68.0400,1.647
68.0800,1.765
68.1200,1.754
68.1600,1.796
68.2000,1.880
68.2400,1.908
68.2800,1.982
68.3200,2.111
68.3600,2.189
68.4000,2.297
68.4400,2.288
68.4800,2.447
68.5200,2.708
68.5600,2.887
68.6000,3.078
68.6400,3.551
68.6800,4.418
68.7200,5.882
68.7600,6.599
68.8000,6.802
68.8400,7.044
68.8800,8.142
68.9200,10.913
68.9600,17.181
69.0000,37.204
69.0400,178.416
69.0800,450.925
69.1200,342.139
69.1600,95.869
69.2000,44.619
69.2400,114.549
69.2800,241.219
69.3200,173.921
69.3600,49.675
69.4000,17.342
69.4400,10.693
69.4800,7.826
69.5200,6.414
69.5600,5.244
69.6000,4.572
69.6400,4.158
69.6800,3.787
69.7200,3.465
69.7600,3.121
69.8000,3.041
69.8400,2.818
69.8800,2.589
69.9200,2.519
69.9600,2.348
70.0000,2.313
70.0400,2.221
70.0800,2.185
70.1200,2.032
70.1600,2.026
70.2000,1.967
70.2400,1.882
70.2800,1.802
70.3200,1.822
70.3600,1.743
70.4000,1.635
70.4400,1.570
70.4800,1.545
70.5200,1.508
70.5600,1.491
70.6000,1.410
70.6400,1.447
70.6800,1.368
70.7200,1.323
70.7600,1.309
70.8000,1.266
70.8400,1.231
70.8800,1.184
70.9200,1.214
70.9600,1.079
71.0000,1.111
71.0400,1.079
71.0800,1.057
71.1200,1.087
71.1600,1.026
71.2000,0.988
71.2400,0.963
71.2800,0.934
71.3200,0.917
71.3600,0.912
71.4000,0.899
71.4400,0.884
71.4800,0.831
71.5200,0.853
71.5600,0.871
71.6000,0.805
71.6400,0.780
71.6800,0.814
71.7200,0.819
71.7600,0.780
71.8000,0.772
71.8400,0.741
71.8800,0.752
71.9200,0.705
71.9600,0.721
72.0000,0.732
72.0400,0.594
72.0800,0.613
72.1200,0.683
72.1600,0.693
72.2000,0.637
72.2400,0.653
72.2800,0.689
72.3200,0.631
72.3600,0.628
72.4000,0.614
72.4400,0.589
72.4800,0.607
72.5200,0.600
72.5600,0.597
72.6000,0.601
72.6400,0.570
72.6800,0.579
72.7200,0.568
72.7600,0.559
72.8000,0.489
72.8400,0.529
72.8800,0.530
72.9200,0.484
72.9600,0.508
73.0000,0.530
73.0400,0.583
73.0800,0.507
73.1200,0.505
73.1600,0.551
73.2000,0.513
73.2400,0.522
73.2800,0.474
73.3200,0.502
73.3600,0.467
73.4000,0.502
73.4400,0.508
73.4800,0.479
73.5200,0.521
73.5600,0.492
73.6000,0.485
73.6400,0.456
73.6800,0.501
73.7200,0.449
73.7600,0.489
73.8000,0.450
73.8400,0.489
73.8800,0.456
73.9200,0.438
73.9600,0.448
74.0000,0.431
74.0400,0.481
74.0800,0.454
74.1200,0.469
74.1600,0.452
74.2000,0.414
74.2400,0.450
74.2800,0.415
74.3200,0.462
74.3600,0.448
74.4000,0.441
74.4400,0.432
74.4800,0.469
74.5200,0.434
74.5600,0.433
74.6000,0.408
74.6400,0.419
74.6800,0.446
74.7200,0.436
74.7600,0.413
74.8000,0.398
74.8400,0.411
74.8800,0.468
74.9200,0.431
74.9600,0.421
75.0000,0.457
75.0400,0.408
75.0800,0.412
75.1200,0.402
75.1600,0.418
75.2000,0.389
75.2400,0.416
75.2800,0.417
75.3200,0.442
75.3600,0.398
75.4000,0.372
75.4400,0.418
75.4800,0.403
75.5200,0.407
75.5600,0.424
75.6000,0.377
75.6400,0.360
75.6800,0.381
75.7200,0.394
75.7600,0.425
75.8000,0.419
75.8400,0.408
75.8800,0.396
75.9200,0.409
75.9600,0.413
76.0000,0.379
76.0400,0.401
76.0800,0.359
76.1200,0.362
76.1600,0.377
76.2000,0.350
76.2400,0.369
76.2800,0.411
76.3200,0.370
76.3600,0.393
76.4000,0.408
76.4400,0.400
76.4800,0.386
76.5200,0.387
76.5600,0.375
76.6000,0.418
76.6400,0.387
76.6800,0.384
76.7200,0.400
76.7600,0.400
76.8000,0.403
76.8400,0.372
76.8800,0.404
76.9200,0.399
76.9600,0.416
77.0000,0.408
77.0400,0.414
77.0800,0.374
77.1200,0.460
77.1600,0.387
77.2000,0.419
77.2400,0.440
77.2800,0.441
77.3200,0.467
77.3600,0.458
77.4000,0.445
77.4400,0.476
77.4800,0.478
77.5200,0.499
77.5600,0.467
77.6000,0.501
77.6400,0.489
77.6800,0.484
77.7200,0.504
77.7600,0.501
77.8000,0.536
77.8400,0.530
77.8800,0.528
77.9200,0.561
77.9600,0.539
78.0000,0.530
78.0400,0.549
78.0800,0.589
78.1200,0.597
78.1600,0.562
78.2000,0.555
78.2400,0.574
78.2800,0.584
78.3200,0.574
78.3600,0.679
78.4000,0.631
78.4400,0.622
78.4800,0.636
78.5200,0.650
78.5600,0.637
78.6000,0.633
78.6400,0.676
78.6800,0.676
78.7200,0.698
78.7600,0.670
78.8000,0.631
78.8400,0.670
78.8800,0.664
78.9200,0.655
78.9600,0.632
79.0000,0.648
79.0400,0.622
79.0800,0.633
79.1200,0.589
79.1600,0.570
79.2000,0.606
79.2400,0.559
79.2800,0.583
79.3200,0.572
79.3600,0.555
79.4000,0.562
79.4400,0.561
79.4800,0.515
79.5200,0.528
79.5600,0.520
79.6000,0.450
79.6400,0.447
79.6800,0.491
79.7200,0.426
79.7600,0.505
79.8000,0.450
79.8400,0.445
79.8800,0.449
79.9200,0.434
79.9600,0.423
80.0000,0.444
