theta,intensity
5.0000,5.530
5.0400,5.345
5.0800,5.407
5.1200,5.491
5.1600,5.372
5.2000,5.294
5.2400,5.396
5.2800,5.203
5.3200,5.262
5.3600,5.250
5.4000,5.214
5.4400,5.205
5.4800,5.147
5.5200,4.975
5.5600,5.103
5.6000,5.012
5.6400,4.889
5.6800,4.882
5.7200,4.792
5.7600,4.779
5.8000,4.718
5.8400,4.808
5.8800,4.722
5.9200,4.743
5.9600,4.671
6.0000,4.552
6.0400,4.614
6.0800,4.556
6.1200,4.412
6.1600,4.510
6.2000,4.588
6.2400,4.444
6.2800,4.418
6.3200,4.335
6.3600,4.211
6.4000,4.219
6.4400,4.228
6.4800,4.153
6.5200,4.117
6.5600,4.124
6.6000,4.086
6.6400,4.181
6.6800,4.019
6.7200,4.125
6.7600,4.200
6.8000,4.095
6.8400,4.118
6.8800,3.986
6.9200,4.068
6.9600,3.948
7.0000,3.939
7.0400,3.981
7.0800,4.006
7.1200,4.012
7.1600,4.021
7.2000,4.054
7.2400,4.153
7.2800,4.148
7.3200,4.045
7.3600,3.985
7.4000,4.038
7.4400,3.951
7.4800,3.767
7.5200,3.797
7.5600,3.929
7.6000,3.930
7.6400,3.926
7.6800,3.875
7.7200,3.888
7.7600,4.078
7.8000,3.873
7.8400,3.899
7.8800,3.881
7.9200,3.843
7.9600,3.914
8.0000,3.888
8.0400,3.870
8.0800,3.789
8.1200,3.706
8.1600,3.757
8.2000,3.800
8.2400,3.939
8.2800,3.910
8.3200,3.770
8.3600,3.736
8.4000,3.874
8.4400,3.789
8.4800,3.792
8.5200,3.830
8.5600,3.803
8.6000,3.796
8.6400,3.759
8.6800,3.769
8.7200,3.827
8.7600,3.799
8.8000,3.772
8.8400,3.740
8.8800,3.772
8.9200,3.808
8.9600,3.716
9.0000,3.750
9.0400,3.651
9.0800,3.736
9.1200,3.726
9.1600,3.724
9.2000,3.686
9.2400,3.739
9.2800,3.718
9.3200,3.767
9.3600,3.680
9.4000,3.734
9.4400,3.629
9.4800,3.622
9.5200,3.739
9.5600,3.750
9.6000,3.607
9.6400,3.753
9.6800,3.595
9.7200,3.742
9.7600,3.577
9.8000,3.670
9.8400,3.695
9.8800,3.684
9.9200,3.607
9.9600,3.586
10.0000,3.585
10.0400,3.555
10.0800,3.636
10.1200,3.687
10.1600,3.625
10.2000,3.622
10.2400,3.580
10.2800,3.677
10.3200,3.703
10.3600,3.686
10.4000,3.626
10.4400,3.657
10.4800,3.612
10.5200,3.538
10.5600,3.438
10.6000,3.591
10.6400,3.658
10.6800,3.570
10.7200,3.408
10.7600,3.566
10.8000,3.517
10.8400,3.624
10.8800,3.551
10.9200,3.579
10.9600,3.556
11.0000,3.524
11.0400,3.563
11.0800,3.575
11.1200,3.577
11.1600,3.531
11.2000,3.376
11.2400,3.515
11.2800,3.512
11.3200,3.529
11.3600,3.546
11.4000,3.559
11.4400,3.580
11.4800,3.524
11.5200,3.502
11.5600,3.530
11.6000,3.611
11.6400,3.405
11.6800,3.451
11.7200,3.489
11.7600,3.419
11.8000,3.467
11.8400,3.482
11.8800,3.441
11.9200,3.458
11.9600,3.442
12.0000,3.422
12.0400,3.482
12.0800,3.368
12.1200,3.390
12.1600,3.424
12.2000,3.369
12.2400,3.300
12.2800,3.435
12.3200,3.415
12.3600,3.423
12.4000,3.425
12.4400,3.483
12.4800,3.397
12.5200,3.390
12.5600,3.444
12.6000,3.384
12.6400,3.417
12.6800,3.190
12.7200,3.321
12.7600,3.359
12.8000,3.384
12.8400,3.294
12.8800,3.286
12.9200,3.319
12.9600,3.340
13.0000,3.300
13.0400,3.280
13.0800,3.328
13.1200,3.183
13.1600,3.311
13.2000,3.225
13.2400,3.313
13.2800,3.229
13.3200,3.300
13.3600,3.264
13.4000,3.304
13.4400,3.261
13.4800,3.205
13.5200,3.212
13.5600,3.241
13.6000,3.229
13.6400,3.317
13.6800,3.345
13.7200,3.226
13.7600,3.256
13.8000,3.261
13.8400,3.218
13.8800,3.293
13.9200,3.318
13.9600,3.240
14.0000,3.203
14.0400,3.157
14.0800,3.197
14.1200,3.170
14.1600,3.223
14.2000,3.278
14.2400,3.215
14.2800,3.282
14.3200,3.239
14.3600,3.250
14.4000,3.220
14.4400,3.142
14.4800,3.253
14.5200,3.128
14.5600,3.226
14.6000,3.283
14.6400,3.130
14.6800,3.170
14.7200,3.199
14.7600,3.178
14.8000,3.157
14.8400,3.226
14.8800,3.203
14.9200,3.169
14.9600,3.045
15.0000,3.226
15.0400,3.053
15.0800,3.058
15.1200,3.095
15.1600,3.134
15.2000,3.236
15.2400,3.045
15.2800,3.116
15.3200,3.063
15.3600,3.063
15.4000,3.065
15.4400,3.132
15.4800,3.161
15.5200,3.049
15.5600,3.148
15.6000,3.178
15.6400,3.110
15.6800,3.022
15.7200,3.061
15.7600,3.066
15.8000,3.033
15.8400,3.067
15.8800,3.041
15.9200,3.086
15.9600,3.061
16.0000,3.190
16.0400,2.993
16.0800,3.041
16.1200,2.970
16.1600,3.061
16.2000,3.067
16.2400,3.051
16.2800,3.048
16.3200,3.055
16.3600,3.065
16.4000,3.040
16.4400,3.040
16.4800,3.045
16.5200,3.047
16.5600,3.012
16.6000,3.054
16.6400,2.986
16.6800,2.990
16.7200,3.021
16.7600,3.019
16.8000,3.085
16.8400,2.956
16.8800,3.002
16.9200,3.010
16.9600,3.006
17.0000,2.996
17.0400,2.857
17.0800,2.947
17.1200,2.997
17.1600,2.937
17.2000,2.933
17.2400,3.034
17.2800,2.998
17.3200,2.887
17.3600,2.934
17.4000,2.928
17.4400,2.909
17.4800,2.885
17.5200,2.860
17.5600,2.897
17.6000,2.929
17.6400,2.919
17.6800,2.891
17.7200,2.870
17.7600,2.999
17.8000,2.879
17.8400,2.975
17.8800,2.821
17.9200,2.848
17.9600,2.810
18.0000,2.908
18.0400,2.781
18.0800,2.872
18.1200,2.801
18.1600,2.862
18.2000,2.919
18.2400,2.897
18.2800,2.747
18.3200,2.835
18.3600,2.773
18.4000,2.781
18.4400,2.821
18.4800,2.874
18.5200,2.802
18.5600,2.825
18.6000,2.809
18.6400,2.844
18.6800,2.747
18.7200,2.751
18.7600,2.825
18.8000,2.820
18.8400,2.827
18.8800,2.877
18.9200,2.865
18.9600,2.767
19.0000,2.783
19.0400,2.818
19.0800,2.732
19.1200,2.826
19.1600,2.768
19.2000,2.794
19.2400,2.689
19.2800,2.710
19.3200,2.790
19.3600,2.719
19.4000,2.797
19.4400,2.798
19.4800,2.806
19.5200,2.748
19.5600,2.765
19.6000,2.817
19.6400,2.844
19.6800,2.722
19.7200,2.818
19.7600,2.692
19.8000,2.752
19.8400,2.857
19.8800,2.715
19.9200,2.839
19.9600,2.740
20.0000,2.679
20.0400,2.748
20.0800,2.679
20.1200,2.634
20.1600,2.702
20.2000,2.843
20.2400,2.658
20.2800,2.703
20.3200,2.677
20.3600,2.654
20.4000,2.644
20.4400,2.701
20.4800,2.701
20.5200,2.634
20.5600,2.665
20.6000,2.662
20.6400,2.593
20.6800,2.757
20.7200,2.570
20.7600,2.615
20.8000,2.582
20.8400,2.688
20.8800,2.666
20.9200,2.637
20.9600,2.562
21.0000,2.623
21.0400,2.611
21.0800,2.624
21.1200,2.615
21.1600,2.596
21.2000,2.588
21.2400,2.593
21.2800,2.534
21.3200,2.472
21.3600,2.616
21.4000,2.556
21.4400,2.568
21.4800,2.546
21.5200,2.542
21.5600,2.607
21.6000,2.612
21.6400,2.570
21.6800,2.582
21.7200,2.531
21.7600,2.542
21.8000,2.595
21.8400,2.638
21.8800,2.521
21.9200,2.609
21.9600,2.585
22.0000,2.554
22.0400,2.585
22.0800,2.567
22.1200,2.522
22.1600,2.483
22.2000,2.474
22.2400,2.575
22.2800,2.476
22.3200,2.529
22.3600,2.482
22.4000,2.582
22.4400,2.556
22.4800,2.490
22.5200,2.540
22.5600,2.510
22.6000,2.559
22.6400,2.695
22.6800,2.566
22.7200,2.532
22.7600,2.574
22.8000,2.599
22.8400,2.526
22.8800,2.524
22.9200,2.534
22.9600,2.570
23.0000,2.573
23.0400,2.485
23.0800,2.519
23.1200,2.492
23.1600,2.508
23.2000,2.443
23.2400,2.473
23.2800,2.469
23.3200,2.541
23.3600,2.506
23.4000,2.518
23.4400,2.504
23.4800,2.489
23.5200,2.461
23.5600,2.398
23.6000,2.482
23.6400,2.422
23.6800,2.374
23.7200,2.429
23.7600,2.319
23.8000,2.342
23.8400,2.392
23.8800,2.346
23.9200,2.367
23.9600,2.386
24.0000,2.304
24.0400,2.342
24.0800,2.330
24.1200,2.334
24.1600,2.298
24.2000,2.290
24.2400,2.260
24.2800,2.391
24.3200,2.402
24.3600,2.377
24.4000,2.394
24.4400,2.269
24.4800,2.325
24.5200,2.433
24.5600,2.284
24.6000,2.445
24.6400,2.371
24.6800,2.306
24.7200,2.361
24.7600,2.348
24.8000,2.443
24.8400,2.329
24.8800,2.281
24.9200,2.317
24.9600,2.356
25.0000,2.369
25.0400,2.194
25.0800,2.248
25.1200,2.270
25.1600,2.300
25.2000,2.303
25.2400,2.223
25.2800,2.335
25.3200,2.363
25.3600,2.287
25.4000,2.299
25.4400,2.298
25.4800,2.295
25.5200,2.227
25.5600,2.232
25.6000,2.275
25.6400,2.208
25.6800,2.314
25.7200,2.203
25.7600,2.231
25.8000,2.177
25.8400,2.230
25.8800,2.226
25.9200,2.218
25.9600,2.198
26.0000,2.180
26.0400,2.153
26.0800,2.240
26.1200,2.132
26.1600,2.186
26.2000,2.167
26.2400,2.132
26.2800,2.112
26.3200,2.100
26.3600,2.114
26.4000,2.150
26.4400,2.143
26.4800,2.175
26.5200,2.210
26.5600,2.107
26.6000,2.122
26.6400,2.089
26.6800,2.135
26.7200,2.078
26.7600,2.065
26.8000,2.138
26.8400,2.091
26.8800,2.080
26.9200,2.095
26.9600,2.148
27.0000,2.106
27.0400,2.103
27.0800,2.090
27.1200,2.063
27.1600,2.165
27.2000,2.011
27.2400,2.134
27.2800,2.086
27.3200,2.119
27.3600,2.072
27.4000,2.130
27.4400,2.095
27.4800,2.078
27.5200,2.113
27.5600,2.019
27.6000,2.116
27.6400,2.107
27.6800,2.128
27.7200,2.106
27.7600,2.116
27.8000,2.063
27.8400,2.161
27.8800,2.145
27.9200,2.159
27.9600,2.137
28.0000,2.237
28.0400,2.114
28.0800,2.188
28.1200,2.106
28.1600,2.182
28.2000,2.157
28.2400,2.041
28.2800,2.003
28.3200,2.034
28.3600,2.052
28.4000,2.058
28.4400,2.014
28.4800,1.988
28.5200,2.086
28.5600,1.942
28.6000,1.970
28.6400,1.962
28.6800,1.976
28.7200,1.903
28.7600,2.081
28.8000,1.982
28.8400,1.995
28.8800,1.974
28.9200,1.978
28.9600,2.044
29.0000,1.947
29.0400,1.962
29.0800,1.867
29.1200,1.949
29.1600,1.914
29.2000,1.993
29.2400,1.937
29.2800,2.051
29.3200,1.967
29.3600,1.969
29.4000,1.937
29.4400,1.946
29.4800,2.076
29.5200,2.128
29.5600,2.182
29.6000,2.205
29.6400,2.157
29.6800,2.215
29.7200,2.095
29.7600,2.165
29.8000,2.163
29.8400,2.118
29.8800,1.978
29.9200,2.022
29.9600,2.025
30.0000,1.957
30.0400,1.946
30.0800,1.921
30.1200,1.927
30.1600,1.970
30.2000,1.940
30.2400,1.886
30.2800,1.806
30.3200,1.821
30.3600,1.882
30.4000,1.905
30.4400,1.809
30.4800,1.903
30.5200,1.873
30.5600,1.782
30.6000,1.881
30.6400,1.863
30.6800,1.899
30.7200,1.824
30.7600,1.869
30.8000,1.786
30.8400,1.781
30.8800,1.906
30.9200,1.822
30.9600,1.830
31.0000,1.785
31.0400,1.700
31.0800,1.709
31.1200,1.770
31.1600,1.813
31.2000,1.823
31.2400,1.697
31.2800,1.768
31.3200,1.808
31.3600,1.816
31.4000,1.817
31.4400,1.764
31.4800,1.779
31.5200,1.812
31.5600,1.791
31.6000,1.805
31.6400,1.736
31.6800,1.758
31.7200,1.654
31.7600,1.733
31.8000,1.801
31.8400,1.859
31.8800,1.831
31.9200,1.727
31.9600,1.869
32.0000,1.791
32.0400,1.783
32.0800,1.783
32.1200,1.842
32.1600,1.814
32.2000,1.859
32.2400,1.865
32.2800,1.869
32.3200,1.861
32.3600,1.873
32.4000,1.799
32.4400,1.890
32.4800,1.806
32.5200,1.781
32.5600,1.791
32.6000,1.678
32.6400,1.823
32.6800,1.777
32.7200,1.739
32.7600,1.710
32.8000,1.726
32.8400,1.778
32.8800,1.708
32.9200,1.767
32.9600,1.745
33.0000,1.772
33.0400,1.737
33.0800,1.670
33.1200,1.676
33.1600,1.739
33.2000,1.702
33.2400,1.745
33.2800,1.737
33.3200,1.679
33.3600,1.664
33.4000,1.652
33.4400,1.650
33.4800,1.636
33.5200,1.616
33.5600,1.664
33.6000,1.691
33.6400,1.621
33.6800,1.633
33.7200,1.698
33.7600,1.701
33.8000,1.630
33.8400,1.612
33.8800,1.623
33.9200,1.592
33.9600,1.666
34.0000,1.613
34.0400,1.627
34.0800,1.660
34.1200,1.650
34.1600,1.542
34.2000,1.601
34.2400,1.638
34.2800,1.568
34.3200,1.622
34.3600,1.614
34.4000,1.631
34.4400,1.628
34.4800,1.609
34.5200,1.637
34.5600,1.524
34.6000,1.597
34.6400,1.629
34.6800,1.622
34.7200,1.619
34.7600,1.617
34.8000,1.645
34.8400,1.569
34.8800,1.644
34.9200,1.675
34.9600,1.612
35.0000,1.583
35.0400,1.578
35.0800,1.615
35.1200,1.524
35.1600,1.547
35.2000,1.604
35.2400,1.597
35.2800,1.563
35.3200,1.588
35.3600,1.673
35.4000,1.600
35.4400,1.595
35.4800,1.706
35.5200,1.759
35.5600,1.771
35.6000,1.836
35.6400,1.947
35.6800,1.946
35.7200,2.008
35.7600,1.962
35.8000,2.068
35.8400,2.022
35.8800,2.046
35.9200,2.030
35.9600,1.989
36.0000,1.828
36.0400,1.801
36.0800,1.858
36.1200,1.766
36.1600,1.760
36.2000,1.672
36.2400,1.643
36.2800,1.704
36.3200,1.664
36.3600,1.677
36.4000,1.628
36.4400,1.640
36.4800,1.565
36.5200,1.638
36.5600,1.650
36.6000,1.594
36.6400,1.592
36.6800,1.596
36.7200,1.651
36.7600,1.584
36.8000,1.671
36.8400,1.559
36.8800,1.673
36.9200,1.624
36.9600,1.630
37.0000,1.615
37.0400,1.647
37.0800,1.680
37.1200,1.704
37.1600,1.681
37.2000,1.638
37.2400,1.676
37.2800,1.690
37.3200,1.717
37.3600,1.724
37.4000,1.676
37.4400,1.717
37.4800,1.750
37.5200,1.812
37.5600,1.752
37.6000,1.879
37.6400,2.000
37.6800,1.968
37.7200,1.978
37.7600,2.056
37.8000,1.984
37.8400,2.155
37.8800,2.228
37.9200,2.250
37.9600,2.429
38.0000,2.490
38.0400,2.627
38.0800,2.816
38.1200,2.971
38.1600,3.202
38.2000,3.409
38.2400,3.626
38.2800,3.772
38.3200,4.158
38.3600,4.424
38.4000,4.757
38.4400,5.034
38.4800,5.387
38.5200,5.907
38.5600,6.089
38.6000,6.321
38.6400,6.334
38.6800,6.307
38.7200,6.223
38.7600,5.959
38.8000,5.626
38.8400,5.411
38.8800,5.017
38.9200,4.635
38.9600,4.276
39.0000,4.083
39.0400,3.827
39.0800,3.641
39.1200,3.423
39.1600,3.285
39.2000,3.212
39.2400,3.092
39.2800,3.025
39.3200,3.048
39.3600,3.144
39.4000,3.116
39.4400,3.316
39.4800,3.396
39.5200,3.561
39.5600,3.646
39.6000,3.805
39.6400,4.018
39.6800,4.048
39.7200,4.009
39.7600,4.166
39.8000,4.134
39.8400,4.149
39.8800,4.014
39.9200,4.007
39.9600,3.898
40.0000,4.031
40.0400,3.937
40.0800,3.941
40.1200,3.795
40.1600,3.687
40.2000,3.706
40.2400,3.557
40.2800,3.404
40.3200,3.186
40.3600,2.948
40.4000,2.862
40.4400,2.727
40.4800,2.562
40.5200,2.526
40.5600,2.465
40.6000,2.338
40.6400,2.354
40.6800,2.407
40.7200,2.409
40.7600,2.424
40.8000,2.560
40.8400,2.625
40.8800,2.780
40.9200,2.942
40.9600,3.194
41.0000,3.298
41.0400,3.487
41.0800,3.494
41.1200,3.700
41.1600,3.693
41.2000,3.658
41.2400,3.718
41.2800,3.482
41.3200,3.460
41.3600,3.312
41.4000,3.161
41.4400,2.943
41.4800,2.689
41.5200,2.495
41.5600,2.347
41.6000,2.147
41.6400,2.019
41.6800,1.941
41.7200,1.747
41.7600,1.652
41.8000,1.598
41.8400,1.575
41.8800,1.547
41.9200,1.472
41.9600,1.435
42.0000,1.484
42.0400,1.396
42.0800,1.390
42.1200,1.370
42.1600,1.374
42.2000,1.346
42.2400,1.271
42.2800,1.334
42.3200,1.321
42.3600,1.291
42.4000,1.283
42.4400,1.315
42.4800,1.242
42.5200,1.283
42.5600,1.296
42.6000,1.299
42.6400,1.212
42.6800,1.295
42.7200,1.258
42.7600,1.290
42.8000,1.241
42.8400,1.168
42.8800,1.269
42.9200,1.265
42.9600,1.250
43.0000,1.268
43.0400,1.310
43.0800,1.316
43.1200,1.261
43.1600,1.250
43.2000,1.232
43.2400,1.222
43.2800,1.292
43.3200,1.322
43.3600,1.315
43.4000,1.253
43.4400,1.343
43.4800,1.310
43.5200,1.324
43.5600,1.313
43.6000,1.300
43.6400,1.332
43.6800,1.308
43.7200,1.347
43.7600,1.382
43.8000,1.330
43.8400,1.454
43.8800,1.394
43.9200,1.458
43.9600,1.525
44.0000,1.540
44.0400,1.518
44.0800,1.619
44.1200,1.675
44.1600,1.667
44.2000,1.812
44.2400,1.878
44.2800,1.995
44.3200,2.092
44.3600,2.184
44.4000,2.348
44.4400,2.531
44.4800,2.656
44.5200,2.748
44.5600,2.887
44.6000,2.965
44.6400,2.973
44.6800,3.083
44.7200,2.992
44.7600,2.911
44.8000,2.932
44.8400,2.848
44.8800,2.759
44.9200,2.793
44.9600,2.681
45.0000,2.692
45.0400,2.553
45.0800,2.440
45.1200,2.346
45.1600,2.386
45.2000,2.241
45.2400,2.184
45.2800,2.092
45.3200,1.946
45.3600,1.886
45.4000,1.793
45.4400,1.703
45.4800,1.720
45.5200,1.665
45.5600,1.647
45.6000,1.552
45.6400,1.610
45.6800,1.547
45.7200,1.582
45.7600,1.528
45.8000,1.520
45.8400,1.538
45.8800,1.546
45.9200,1.535
45.9600,1.511
46.0000,1.461
46.0400,1.513
46.0800,1.509
46.1200,1.531
46.1600,1.386
46.2000,1.539
46.2400,1.434
46.2800,1.474
46.3200,1.414
46.3600,1.417
46.4000,1.449
46.4400,1.362
46.4800,1.403
46.5200,1.365
46.5600,1.327
46.6000,1.364
46.6400,1.378
46.6800,1.352
46.7200,1.377
46.7600,1.413
46.8000,1.361
46.8400,1.408
46.8800,1.356
46.9200,1.351
46.9600,1.393
47.0000,1.331
47.0400,1.349
47.0800,1.308
47.1200,1.301
47.1600,1.246
47.2000,1.238
47.2400,1.184
47.2800,1.252
47.3200,1.185
47.3600,1.172
47.4000,1.132
47.4400,1.160
47.4800,1.104
47.5200,1.132
47.5600,1.106
47.6000,1.115
47.6400,1.104
47.6800,1.086
47.7200,1.107
47.7600,1.112
47.8000,1.108
47.8400,1.179
47.8800,1.186
47.9200,1.206
47.9600,1.149
48.0000,1.255
48.0400,1.235
48.0800,1.308
48.1200,1.278
48.1600,1.318
48.2000,1.422
48.2400,1.334
48.2800,1.316
48.3200,1.187
48.3600,1.160
48.4000,1.176
48.4400,1.151
48.4800,1.122
48.5200,1.023
48.5600,1.005
48.6000,1.004
48.6400,0.996
48.6800,0.976
48.7200,0.957
48.7600,0.976
48.8000,0.929
48.8400,0.935
48.8800,0.918
48.9200,0.908
48.9600,0.878
49.0000,0.877
49.0400,0.898
49.0800,0.934
49.1200,0.912
49.1600,0.860
49.2000,0.852
49.2400,0.830
49.2800,0.832
49.3200,0.896
49.3600,0.886
49.4000,0.892
49.4400,0.877
49.4800,0.876
49.5200,0.846
49.5600,0.827
49.6000,0.843
49.6400,0.868
49.6800,0.812
49.7200,0.836
49.7600,0.810
49.8000,0.842
49.8400,0.832
49.8800,0.811
49.9200,0.837
49.9600,0.823
50.0000,0.819
50.0400,0.853
50.0800,0.842
50.1200,0.817
50.1600,0.818
50.2000,0.796
50.2400,0.802
50.2800,0.792
50.3200,0.824
50.3600,0.832
50.4000,0.819
50.4400,0.807
50.4800,0.801
50.5200,0.797
50.5600,0.835
50.6000,0.834
50.6400,0.784
50.6800,0.813
50.7200,0.792
50.7600,0.758
50.8000,0.792
50.8400,0.832
50.8800,0.826
50.9200,0.788
50.9600,0.806
51.0000,0.787
51.0400,0.835
51.0800,0.843
51.1200,0.819
51.1600,0.823
51.2000,0.808
51.2400,0.808
51.2800,0.857
51.3200,0.859
51.3600,0.850
51.4000,0.817
51.4400,0.792
51.4800,0.857
51.5200,0.845
51.5600,0.837
51.6000,0.805
51.6400,0.778
51.6800,0.750
51.7200,0.785
51.7600,0.803
51.8000,0.830
51.8400,0.791
51.8800,0.774
51.9200,0.791
51.9600,0.773
52.0000,0.792
52.0400,0.790
52.0800,0.752
52.1200,0.768
52.1600,0.754
52.2000,0.810
52.2400,0.782
52.2800,0.777
52.3200,0.768
52.3600,0.744
52.4000,0.802
52.4400,0.771
52.4800,0.752
52.5200,0.769
52.5600,0.788
52.6000,0.763
52.6400,0.773
52.6800,0.742
52.7200,0.766
52.7600,0.729
52.8000,0.742
52.8400,0.772
52.8800,0.724
52.9200,0.747
52.9600,0.802
53.0000,0.758
53.0400,0.745
53.0800,0.805
53.1200,0.704
53.1600,0.750
53.2000,0.729
53.2400,0.759
53.2800,0.750
53.3200,0.773
53.3600,0.753
53.4000,0.727
53.4400,0.760
53.4800,0.765
53.5200,0.769
53.5600,0.763
53.6000,0.750
53.6400,0.738
53.6800,0.752
53.7200,0.706
53.7600,0.748
53.8000,0.756
53.8400,0.697
53.8800,0.714
53.9200,0.709
53.9600,0.751
54.0000,0.733
54.0400,0.722
54.0800,0.750
54.1200,0.710
54.1600,0.660
54.2000,0.706
54.2400,0.717
54.2800,0.740
54.3200,0.692
54.3600,0.690
54.4000,0.697
54.4400,0.685
54.4800,0.678
54.5200,0.703
54.5600,0.699
54.6000,0.682
54.6400,0.666
54.6800,0.698
54.7200,0.739
54.7600,0.697
54.8000,0.713
54.8400,0.696
54.8800,0.711
54.9200,0.661
54.9600,0.668
55.0000,0.662
55.0400,0.702
55.0800,0.686
55.1200,0.678
55.1600,0.667
55.2000,0.686
55.2400,0.643
55.2800,0.673
55.3200,0.666
55.3600,0.666
55.4000,0.726
55.4400,0.705
55.4800,0.688
55.5200,0.674
55.5600,0.676
55.6000,0.701
55.6400,0.698
55.6800,0.695
55.7200,0.653
55.7600,0.697
55.8000,0.661
55.8400,0.672
55.8800,0.670
55.9200,0.661
55.9600,0.682
56.0000,0.665
56.0400,0.683
56.0800,0.682
56.1200,0.654
56.1600,0.634
56.2000,0.647
56.2400,0.621
56.2800,0.658
56.3200,0.673
56.3600,0.621
56.4000,0.639
56.4400,0.646
56.4800,0.682
56.5200,0.627
56.5600,0.623
56.6000,0.615
56.6400,0.626
56.6800,0.588
56.7200,0.611
56.7600,0.661
56.8000,0.671
56.8400,0.642
56.8800,0.640
56.9200,0.646
56.9600,0.652
57.0000,0.652
57.0400,0.618
57.0800,0.631
57.1200,0.594
57.1600,0.608
57.2000,0.641
57.2400,0.659
57.2800,0.670
57.3200,0.641
57.3600,0.635
57.4000,0.595
57.4400,0.621
57.4800,0.684
57.5200,0.637
57.5600,0.637
57.6000,0.700
57.6400,0.647
57.6800,0.659
57.7200,0.658
57.7600,0.616
57.8000,0.702
57.8400,0.709
57.8800,0.724
57.9200,0.705
57.9600,0.692
58.0000,0.659
58.0400,0.688
58.0800,0.663
58.1200,0.675
58.1600,0.659
58.2000,0.700
58.2400,0.637
58.2800,0.657
58.3200,0.641
58.3600,0.593
58.4000,0.638
58.4400,0.654
58.4800,0.632
58.5200,0.642
58.5600,0.647
58.6000,0.627
58.6400,0.622
58.6800,0.583
58.7200,0.620
58.7600,0.636
58.8000,0.607
58.8400,0.636
58.8800,0.637
58.9200,0.591
58.9600,0.633
59.0000,0.607
59.0400,0.564
59.0800,0.588
59.1200,0.591
59.1600,0.619
59.2000,0.611
59.2400,0.580
59.2800,0.647
59.3200,0.574
59.3600,0.590
59.4000,0.620
59.4400,0.621
59.4800,0.589
59.5200,0.643
59.5600,0.646
59.6000,0.592
59.6400,0.582
59.6800,0.620
59.7200,0.599
59.7600,0.643
59.8000,0.635
59.8400,0.635
59.8800,0.595
59.9200,0.661
59.9600,0.668
60.0000,0.655
60.0400,0.693
60.0800,0.680
60.1200,0.662
60.1600,0.679
60.2000,0.690
60.2400,0.657
60.2800,0.691
60.3200,0.667
60.3600,0.626
60.4000,0.632
60.4400,0.652
60.4800,0.603
60.5200,0.602
60.5600,0.663
60.6000,0.632
60.6400,0.608
60.6800,0.599
60.7200,0.544
60.7600,0.628
60.8000,0.638
60.8400,0.620
60.8800,0.677
60.9200,0.631
60.9600,0.624
61.0000,0.589
61.0400,0.601
61.0800,0.623
61.1200,0.640
61.1600,0.674
61.2000,0.623
61.2400,0.629
61.2800,0.664
61.3200,0.670
61.3600,0.742
61.4000,0.721
61.4400,0.722
61.4800,0.725
61.5200,0.762
61.5600,0.759
61.6000,0.801
61.6400,0.788
61.6800,0.816
61.7200,0.838
61.7600,0.791
61.8000,0.751
61.8400,0.668
61.8800,0.732
61.9200,0.667
61.9600,0.653
62.0000,0.669
62.0400,0.616
62.0800,0.599
62.1200,0.630
62.1600,0.607
62.2000,0.601
62.2400,0.617
62.2800,0.585
62.3200,0.578
62.3600,0.587
62.4000,0.586
62.4400,0.586
62.4800,0.595
62.5200,0.577
62.5600,0.617
62.6000,0.596
62.6400,0.592
62.6800,0.631
62.7200,0.590
62.7600,0.602
62.8000,0.606
62.8400,0.535
62.8800,0.537
62.9200,0.581
62.9600,0.559
63.0000,0.565
63.0400,0.558
63.0800,0.561
63.1200,0.577
63.1600,0.581
63.2000,0.557
63.2400,0.585
63.2800,0.606
63.3200,0.631
63.3600,0.577
63.4000,0.569
63.4400,0.560
63.4800,0.607
63.5200,0.624
63.5600,0.570
63.6000,0.612
63.6400,0.570
63.6800,0.592
63.7200,0.644
63.7600,0.621
63.8000,0.610
63.8400,0.597
63.8800,0.657
63.9200,0.648
63.9600,0.606
64.0000,0.645
64.0400,0.604
64.0800,0.605
64.1200,0.658
64.1600,0.654
64.2000,0.630
64.2400,0.684
64.2800,0.652
64.3200,0.653
64.3600,0.698
64.4000,0.685
64.4400,0.678
64.4800,0.681
64.5200,0.712
64.5600,0.764
64.6000,0.771
64.6400,0.723
64.6800,0.778
64.7200,0.742
64.7600,0.831
64.8000,0.822
64.8400,0.829
64.8800,0.875
64.9200,0.919
64.9600,0.879
65.0000,0.942
65.0400,0.987
65.0800,1.016
65.1200,1.050
65.1600,1.072
65.2000,1.104
65.2400,1.163
65.2800,1.157
65.3200,1.178
65.3600,1.187
65.4000,1.144
65.4400,1.211
65.4800,1.254
65.5200,1.194
65.5600,1.148
65.6000,1.113
65.6400,1.168
65.6800,1.082
65.7200,1.106
65.7600,1.043
65.8000,1.054
65.8400,1.052
65.8800,1.014
65.9200,0.976
65.9600,0.965
66.0000,0.986
66.0400,0.976
66.0800,0.984
66.1200,0.876
66.1600,0.883
66.2000,0.865
66.2400,0.845
66.2800,0.907
66.3200,0.863
66.3600,0.927
66.4000,0.900
66.4400,0.866
66.4800,0.887
66.5200,0.853
66.5600,0.938
66.6000,0.920
66.6400,0.901
66.6800,0.873
66.7200,0.938
66.7600,0.989
66.8000,0.955
66.8400,0.944
66.8800,0.955
66.9200,0.980
66.9600,1.049
67.0000,0.993
67.0400,1.004
67.0800,0.992
67.1200,1.049
67.1600,1.057
67.2000,1.117
67.2400,1.167
67.2800,1.153
67.3200,1.208
67.3600,1.239
67.4000,1.273
67.4400,1.310
67.4800,1.369
67.5200,1.361
67.5600,1.486
67.6000,1.436
67.6400,1.463
67.6800,1.437
67.7200,1.559
67.7600,1.542
67.8000,1.554
67.8400,1.664
67.8800,1.624
67.9200,1.647
67.9600,1.692
68.0000,1.590
68.0400,1.705
68.0800,1.660
68.1200,1.658
68.1600,1.703
68.2000,1.718
68.2400,1.768
68.2800,1.789
68.3200,1.828
68.3600,1.884
68.4000,1.973
68.4400,2.037
68.4800,2.136
68.5200,2.295
68.5600,2.368
68.6000,2.520
68.6400,2.698
68.6800,3.078
68.7200,3.666
68.7600,4.424
68.8000,5.701
68.8400,6.286
68.8800,6.591
68.9200,7.301
68.9600,9.178
69.0000,12.556
69.0400,21.114
69.0800,51.126
69.1200,222.786
69.1600,399.411
69.2000,230.615
69.2400,62.494
69.2800,47.968
69.3200,134.647
69.3600,210.496
69.4000,116.220
69.4400,31.853
69.4800,14.067
69.5200,9.137
69.5600,7.000
69.6000,5.572
69.6400,4.765
69.6800,4.064
69.7200,3.698
69.7600,3.331
69.8000,3.067
69.8400,2.961
69.8800,2.746
69.9200,2.449
69.9600,2.499
70.0000,2.310
70.0400,2.234
70.0800,2.143
70.1200,1.965
70.1600,1.938
70.2000,1.912
70.2400,1.819
70.2800,1.798
70.3200,1.717
70.3600,1.692
70.4000,1.551
70.4400,1.592
70.4800,1.472
70.5200,1.477
70.5600,1.472
70.6000,1.423
70.6400,1.432
70.6800,1.360
70.7200,1.312
70.7600,1.254
70.8000,1.245
70.8400,1.204
70.8800,1.143
70.9200,1.133
70.9600,1.115
71.0000,1.082
71.0400,1.041
71.0800,1.041
71.1200,1.008
71.1600,0.981
71.2000,1.030
71.2400,0.990
71.2800,1.017
71.3200,0.971
71.3600,0.894
71.4000,0.900
71.4400,0.869
71.4800,0.834
71.5200,0.861
71.5600,0.823
71.6000,0.769
71.6400,0.836
71.6800,0.765
71.7200,0.785
71.7600,0.780
71.8000,0.812
71.8400,0.768
71.8800,0.736
71.9200,0.788
71.9600,0.696
72.0000,0.695
72.0400,0.746
72.0800,0.677
72.1200,0.678
72.1600,0.690
72.2000,0.689
72.2400,0.631
72.2800,0.644
72.3200,0.694
72.3600,0.694
72.4000,0.641
72.4400,0.702
72.4800,0.627
72.5200,0.618
72.5600,0.622
72.6000,0.646
72.6400,0.591
72.6800,0.608
72.7200,0.606
72.7600,0.604
72.8000,0.614
72.8400,0.650
72.8800,0.627
72.9200,0.573
72.9600,0.613
73.0000,0.543
73.0400,0.593
73.0800,0.587
73.1200,0.589
73.1600,0.547
73.2000,0.554
73.2400,0.536
73.2800,0.540
73.3200,0.579
73.3600,0.547
73.4000,0.516
73.4400,0.505
73.4800,0.554
73.5200,0.541
73.5600,0.526
73.6000,0.510
73.6400,0.523
73.6800,0.489
73.7200,0.554
73.7600,0.540
73.8000,0.491
73.8400,0.519
73.8800,0.502
73.9200,0.516
73.9600,0.543
74.0000,0.507
74.0400,0.457
74.0800,0.506
74.1200,0.511
74.1600,0.487
74.2000,0.504
74.2400,0.473
74.2800,0.480
74.3200,0.561
74.3600,0.496
74.4000,0.516
74.4400,0.489
74.4800,0.472
74.5200,0.522
74.5600,0.518
74.6000,0.551
74.6400,0.524
74.6800,0.518
74.7200,0.526
74.7600,0.495
74.8000,0.546
74.8400,0.557
74.8800,0.548
74.9200,0.508
74.9600,0.529
75.0000,0.528
75.0400,0.495
75.0800,0.517
75.1200,0.536
75.1600,0.492
75.2000,0.494
75.2400,0.482
75.2800,0.470
75.3200,0.468
75.3600,0.467
75.4000,0.435
75.4400,0.467
75.4800,0.427
75.5200,0.450
75.5600,0.459
75.6000,0.427
75.6400,0.469
75.6800,0.415
75.7200,0.441
75.7600,0.455
75.8000,0.455
75.8400,0.472
75.8800,0.460
75.9200,0.455
75.9600,0.477
76.0000,0.481
76.0400,0.438
76.0800,0.474
76.1200,0.467
76.1600,0.453
76.2000,0.450
76.2400,0.437
76.2800,0.425
76.3200,0.433
76.3600,0.449
76.4000,0.434
76.4400,0.421
76.4800,0.450
76.5200,0.457
76.5600,0.448
76.6000,0.469
76.6400,0.439
76.6800,0.424
76.7200,0.461
76.7600,0.428
76.8000,0.450
76.8400,0.429
76.8800,0.449
76.9200,0.443
76.9600,0.441
77.0000,0.464
77.0400,0.450
77.0800,0.488
77.1200,0.477
77.1600,0.511
77.2000,0.531
77.2400,0.517
77.2800,0.506
77.3200,0.559
77.3600,0.548
77.4000,0.541
77.4400,0.585
77.4800,0.539
77.5200,0.520
77.5600,0.597
77.6000,0.537
77.6400,0.647
77.6800,0.658
77.7200,0.598
77.7600,0.576
77.8000,0.597
77.8400,0.613
77.8800,0.621
77.9200,0.597
77.9600,0.634
78.0000,0.697
78.0400,0.688
78.0800,0.655
78.1200,0.720
78.1600,0.746
78.2000,0.736
78.2400,0.813
78.2800,0.829
78.3200,0.817
78.3600,0.825
78.4000,0.835
78.4400,0.943
78.4800,0.896
78.5200,0.920
78.5600,0.935
78.6000,0.922
78.6400,0.902
78.6800,0.955
78.7200,0.902
78.7600,0.935
78.8000,0.952
78.8400,0.922
78.8800,0.916
78.9200,0.870
78.9600,0.793
79.0000,0.847
79.0400,0.784
79.0800,0.783
79.1200,0.764
79.1600,0.765
79.2000,0.782
79.2400,0.749
79.2800,0.753
79.3200,0.730
79.3600,0.692
79.4000,0.678
79.4400,0.668
79.4800,0.647
79.5200,0.660
79.5600,0.634
79.6000,0.608
79.6400,0.595
79.6800,0.637
79.7200,0.660
79.7600,0.642
79.8000,0.603
79.8400,0.605
79.8800,0.594
79.9200,0.547
79.9600,0.575
80.0000,0.576
