theta,intensity
5.0000,9.743
5.0400,9.850
5.0800,9.521
5.1200,9.641
5.1600,9.519
5.2000,9.440
5.2400,9.382
5.2800,9.411
5.3200,9.154
5.3600,9.009
5.4000,8.938
5.4400,8.790
5.4800,8.695
5.5200,8.577
5.5600,8.526
5.6000,8.422
5.6400,8.381
5.6800,8.161
5.7200,8.199
5.7600,8.051
5.8000,7.771
5.8400,7.704
5.8800,7.391
5.9200,7.572
5.9600,7.603
6.0000,7.358
6.0400,7.106
6.0800,7.027
6.1200,7.001
6.1600,6.944
6.2000,6.657
6.2400,6.555
6.2800,6.506
6.3200,6.556
6.3600,6.201
6.4000,6.125
6.4400,5.870
6.4800,5.840
6.5200,5.842
6.5600,5.726
6.6000,5.601
6.6400,5.526
6.6800,5.442
6.7200,5.495
6.7600,5.363
6.8000,5.080
6.8400,5.176
6.8800,5.129
6.9200,5.131
6.9600,5.107
7.0000,5.001
7.0400,4.873
7.0800,4.863
7.1200,4.690
7.1600,4.760
7.2000,4.806
7.2400,4.647
7.2800,4.588
7.3200,4.572
7.3600,4.561
7.4000,4.574
7.4400,4.416
7.4800,4.445
7.5200,4.399
7.5600,4.317
7.6000,4.362
7.6400,4.240
7.6800,4.189
7.7200,4.280
7.7600,4.258
7.8000,4.162
7.8400,4.162
7.8800,4.129
7.9200,4.073
7.9600,4.038
8.0000,4.043
8.0400,4.100
8.0800,4.054
8.1200,4.058
8.1600,3.969
8.2000,4.034
8.2400,3.902
8.2800,3.934
8.3200,3.919
8.3600,3.856
8.4000,3.867
8.4400,4.024
8.4800,3.957
8.5200,3.851
8.5600,3.981
8.6000,3.920
8.6400,3.879
8.6800,3.868
8.7200,3.872
8.7600,3.846
8.8000,3.848
8.8400,3.942
8.8800,3.899
8.9200,3.899
8.9600,3.858
9.0000,3.859
9.0400,3.806
9.0800,3.849
9.1200,3.895
9.1600,3.852
9.2000,3.794
9.2400,3.819
9.2800,3.671
9.3200,3.725
9.3600,3.763
9.4000,3.713
9.4400,3.816
9.4800,3.892
9.5200,3.707
9.5600,3.740
9.6000,3.740
9.6400,3.750
9.6800,3.714
9.7200,3.667
9.7600,3.733
9.8000,3.750
9.8400,3.739
9.8800,3.754
9.9200,3.693
9.9600,3.720
10.0000,3.701
10.0400,3.750
10.0800,3.629
10.1200,3.638
10.1600,3.773
10.2000,3.636
10.2400,3.650
10.2800,3.684
10.3200,3.676
10.3600,3.604
10.4000,3.673
10.4400,3.644
10.4800,3.631
10.5200,3.589
10.5600,3.619
10.6000,3.608
10.6400,3.558
10.6800,3.575
10.7200,3.639
10.7600,3.686
10.8000,3.641
10.8400,3.575
10.8800,3.551
10.9200,3.491
10.9600,3.628
11.0000,3.653
11.0400,3.534
11.0800,3.488
11.1200,3.513
11.1600,3.667
11.2000,3.627
11.2400,3.689
11.2800,3.485
11.3200,3.565
11.3600,3.589
11.4000,3.524
11.4400,3.615
11.4800,3.546
11.5200,3.480
11.5600,3.535
11.6000,3.500
11.6400,3.524
11.6800,3.510
11.7200,3.465
11.7600,3.573
11.8000,3.404
11.8400,3.577
11.8800,3.433
11.9200,3.547
11.9600,3.435
12.0000,3.446
12.0400,3.457
12.0800,3.503
12.1200,3.445
12.1600,3.456
12.2000,3.395
12.2400,3.436
12.2800,3.580
12.3200,3.483
12.3600,3.454
12.4000,3.393
12.4400,3.450
12.4800,3.441
12.5200,3.478
12.5600,3.347
12.6000,3.416
12.6400,3.421
12.6800,3.300
12.7200,3.340
12.7600,3.344
12.8000,3.343
12.8400,3.238
12.8800,3.319
12.9200,3.280
12.9600,3.340
13.0000,3.327
13.0400,3.256
13.0800,3.263
13.1200,3.349
13.1600,3.309
13.2000,3.360
13.2400,3.394
13.2800,3.283
13.3200,3.332
13.3600,3.270
13.4000,3.372
13.4400,3.326
13.4800,3.229
13.5200,3.318
13.5600,3.357
13.6000,3.273
13.6400,3.178
13.6800,3.238
13.7200,3.304
13.7600,3.306
13.8000,3.361
13.8400,3.310
13.8800,3.336
13.9200,3.274
13.9600,3.205
14.0000,3.262
14.0400,3.218
14.0800,3.233
14.1200,3.215
14.1600,3.274
14.2000,3.261
14.2400,3.262
14.2800,3.177
14.3200,3.257
14.3600,3.100
14.4000,3.334
14.4400,3.194
14.4800,3.304
14.5200,3.265
14.5600,3.313
14.6000,3.224
14.6400,3.196
14.6800,3.256
14.7200,3.210
14.7600,3.199
14.8000,3.241
14.8400,3.169
14.8800,3.164
14.9200,3.210
14.9600,3.150
15.0000,3.193
15.0400,3.146
15.0800,3.088
15.1200,3.146
15.1600,3.152
15.2000,3.220
15.2400,3.198
15.2800,3.086
15.3200,3.224
15.3600,3.143
15.4000,3.201
15.4400,3.173
15.4800,3.064
15.5200,3.096
15.5600,3.069
15.6000,3.106
15.6400,3.020
15.6800,3.034
15.7200,3.076
15.7600,3.096
15.8000,3.021
15.8400,3.061
15.8800,3.164
15.9200,3.209
15.9600,3.192
16.0000,3.138
16.0400,3.021
16.0800,3.060
16.1200,3.045
16.1600,3.080
16.2000,3.013
16.2400,3.005
16.2800,3.061
16.3200,3.002
16.3600,2.974
16.4000,3.042
16.4400,3.079
16.4800,3.093
16.5200,3.020
16.5600,3.107
16.6000,3.000
16.6400,3.042
16.6800,3.094
16.7200,3.001
16.7600,3.027
16.8000,2.982
16.8400,3.034
16.8800,2.915
16.9200,3.011
16.9600,2.988
17.0000,2.996
17.0400,3.105
17.0800,3.100
17.1200,3.004
17.1600,2.991
17.2000,2.982
17.2400,3.029
17.2800,2.933
17.3200,2.989
17.3600,2.800
17.4000,2.963
17.4400,2.952
17.4800,2.963
17.5200,2.962
17.5600,2.993
17.6000,2.864
17.6400,2.896
17.6800,2.826
17.7200,2.920
17.7600,2.932
17.8000,2.897
17.8400,2.888
17.8800,2.957
17.9200,2.844
17.9600,2.869
18.0000,2.913
18.0400,2.922
18.0800,2.943
18.1200,2.911
18.1600,2.888
18.2000,2.935
18.2400,2.913
18.2800,2.833
18.3200,2.893
18.3600,2.932
18.4000,2.920
18.4400,2.964
18.4800,2.868
18.5200,2.851
18.5600,2.894
18.6000,2.835
18.6400,2.861
18.6800,2.960
18.7200,2.887
18.7600,2.857
18.8000,2.824
18.8400,2.900
18.8800,2.770
18.9200,2.860
18.9600,2.770
19.0000,2.796
19.0400,2.863
19.0800,2.891
19.1200,2.859
19.1600,2.863
19.2000,2.824
19.2400,2.933
19.2800,2.856
19.3200,2.797
19.3600,2.905
19.4000,2.769
19.4400,2.749
19.4800,2.789
19.5200,2.802
19.5600,2.860
19.6000,2.804
19.6400,2.829
19.6800,2.794
19.7200,2.769
19.7600,2.780
19.8000,2.767
19.8400,2.806
19.8800,2.767
19.9200,2.736
19.9600,2.761
20.0000,2.754
20.0400,2.749
20.0800,2.722
20.1200,2.745
20.1600,2.771
20.2000,2.710
20.2400,2.655
20.2800,2.646
20.3200,2.630
20.3600,2.693
20.4000,2.730
20.4400,2.684
20.4800,2.730
20.5200,2.761
20.5600,2.591
20.6000,2.563
20.6400,2.645
20.6800,2.646
20.7200,2.636
20.7600,2.663
20.8000,2.665
20.8400,2.635
20.8800,2.685
20.9200,2.681
20.9600,2.660
21.0000,2.599
21.0400,2.681
21.0800,2.675
21.1200,2.680
21.1600,2.676
21.2000,2.610
21.2400,2.710
21.2800,2.667
21.3200,2.649
21.3600,2.573
21.4000,2.610
21.4400,2.648
21.4800,2.614
21.5200,2.582
21.5600,2.635
21.6000,2.575
21.6400,2.618
21.6800,2.582
21.7200,2.643
21.7600,2.620
21.8000,2.586
21.8400,2.644
21.8800,2.533
21.9200,2.639
21.9600,2.595
22.0000,2.630
22.0400,2.526
22.0800,2.511
22.1200,2.646
22.1600,2.587
22.2000,2.589
22.2400,2.610
22.2800,2.604
22.3200,2.531
22.3600,2.570
22.4000,2.572
22.4400,2.534
22.4800,2.507
22.5200,2.552
22.5600,2.507
22.6000,2.514
22.6400,2.568
22.6800,2.493
22.7200,2.463
22.7600,2.476
22.8000,2.417
22.8400,2.567
22.8800,2.481
22.9200,2.412
22.9600,2.450
23.0000,2.473
23.0400,2.531
23.0800,2.499
23.1200,2.472
23.1600,2.527
23.2000,2.400
23.2400,2.492
23.2800,2.497
23.3200,2.432
23.3600,2.545
23.4000,2.381
23.4400,2.475
23.4800,2.449
23.5200,2.492
23.5600,2.476
23.6000,2.466
23.6400,2.465
23.6800,2.454
23.7200,2.397
23.7600,2.422
23.8000,2.470
23.8400,2.430
23.8800,2.396
23.9200,2.396
23.9600,2.460
24.0000,2.408
24.0400,2.418
24.0800,2.357
24.1200,2.467
24.1600,2.336
24.2000,2.364
24.2400,2.372
24.2800,2.311
24.3200,2.394
24.3600,2.432
24.4000,2.336
24.4400,2.416
24.4800,2.344
24.5200,2.347
24.5600,2.450
24.6000,2.422
24.6400,2.335
24.6800,2.335
24.7200,2.432
24.7600,2.313
24.8000,2.373
24.8400,2.292
24.8800,2.394
24.9200,2.467
24.9600,2.374
25.0000,2.344
25.0400,2.359
25.0800,2.373
25.1200,2.399
25.1600,2.449
25.2000,2.282
25.2400,2.418
25.2800,2.219
25.3200,2.345
25.3600,2.395
25.4000,2.319
25.4400,2.335
25.4800,2.470
25.5200,2.463
25.5600,2.447
25.6000,2.373
25.6400,2.307
25.6800,2.385
25.7200,2.385
25.7600,2.321
25.8000,2.317
25.8400,2.307
25.8800,2.386
25.9200,2.304
25.9600,2.272
26.0000,2.241
26.0400,2.233
26.0800,2.338
26.1200,2.243
26.1600,2.283
26.2000,2.292
26.2400,2.253
26.2800,2.255
26.3200,2.199
26.3600,2.162
26.4000,2.296
26.4400,2.176
26.4800,2.202
26.5200,2.228
26.5600,2.172
26.6000,2.291
26.6400,2.180
26.6800,2.265
26.7200,2.166
26.7600,2.299
26.8000,2.158
26.8400,2.216
26.8800,2.255
26.9200,2.247
26.9600,2.185
27.0000,2.208
27.0400,2.215
27.0800,2.188
27.1200,2.166
27.1600,2.196
27.2000,2.163
27.2400,2.156
27.2800,2.087
27.3200,2.161
27.3600,2.120
27.4000,2.199
27.4400,2.291
27.4800,2.231
27.5200,2.242
27.5600,2.137
27.6000,2.180
27.6400,2.197
27.6800,2.137
27.7200,2.141
27.7600,2.174
27.8000,2.190
27.8400,2.217
27.8800,2.187
27.9200,2.170
27.9600,2.156
28.0000,2.088
28.0400,2.245
28.0800,2.130
28.1200,2.138
28.1600,2.118
28.2000,2.154
28.2400,2.143
28.2800,2.101
28.3200,2.125
28.3600,2.104
28.4000,2.128
28.4400,2.151
28.4800,2.061
28.5200,2.124
28.5600,2.127
28.6000,2.143
28.6400,2.064
28.6800,2.141
28.7200,2.105
28.7600,2.056
28.8000,2.102
28.8400,2.069
28.8800,2.036
28.9200,2.065
28.9600,2.107
29.0000,2.115
29.0400,2.096
29.0800,2.127
29.1200,2.051
29.1600,2.074
29.2000,2.079
29.2400,2.158
29.2800,2.073
29.3200,2.014
29.3600,2.205
29.4000,2.123
29.4400,2.104
29.4800,2.186
29.5200,2.103
29.5600,2.138
29.6000,2.058
29.6400,2.109
29.6800,2.115
29.7200,2.164
29.7600,2.073
29.8000,2.028
29.8400,2.034
29.8800,2.072
29.9200,2.050
29.9600,2.013
30.0000,1.990
30.0400,2.016
30.0800,2.013
30.1200,1.995
30.1600,1.980
30.2000,1.966
30.2400,2.040
30.2800,2.029
30.3200,1.971
30.3600,1.952
30.4000,1.989
30.4400,1.992
30.4800,1.988
30.5200,1.974
30.5600,1.978
30.6000,1.996
30.6400,2.018
30.6800,1.916
30.7200,1.883
30.7600,2.034
30.8000,1.894
30.8400,1.881
30.8800,1.914
30.9200,1.872
30.9600,1.938
31.0000,1.930
31.0400,1.897
31.0800,1.941
31.1200,1.943
31.1600,1.853
31.2000,1.970
31.2400,1.930
31.2800,1.985
31.3200,1.928
31.3600,1.916
31.4000,1.886
31.4400,1.871
31.4800,1.905
31.5200,1.877
31.5600,1.867
31.6000,1.917
31.6400,1.877
31.6800,1.949
31.7200,1.892
31.7600,1.935
31.8000,1.894
31.8400,1.901
31.8800,1.847
31.9200,1.865
31.9600,1.896
32.0000,1.854
32.0400,1.926
32.0800,1.816
32.1200,1.951
32.1600,1.911
32.2000,1.799
32.2400,1.885
32.2800,1.856
32.3200,1.813
32.3600,1.816
32.4000,1.793
32.4400,1.831
32.4800,1.837
32.5200,1.865
32.5600,1.908
32.6000,1.854
32.6400,1.767
32.6800,1.838
32.7200,1.869
32.7600,1.831
32.8000,1.760
32.8400,1.782
32.8800,1.849
32.9200,1.774
32.9600,1.788
33.0000,1.774
33.0400,1.841
33.0800,1.875
33.1200,1.829
33.1600,1.851
33.2000,1.788
33.2400,1.798
33.2800,1.672
33.3200,1.779
33.3600,1.794
33.4000,1.796
33.4400,1.778
33.4800,1.786
33.5200,1.801
33.5600,1.771
33.6000,1.737
33.6400,1.748
33.6800,1.714
33.7200,1.765
33.7600,1.743
33.8000,1.793
33.8400,1.716
33.8800,1.750
33.9200,1.747
33.9600,1.697
34.0000,1.693
34.0400,1.717
34.0800,1.742
34.1200,1.771
34.1600,1.773
34.2000,1.683
34.2400,1.674
34.2800,1.769
34.3200,1.733
34.3600,1.741
34.4000,1.739
34.4400,1.725
34.4800,1.681
34.5200,1.739
34.5600,1.744
34.6000,1.673
34.6400,1.727
34.6800,1.650
34.7200,1.655
34.7600,1.715
34.8000,1.756
34.8400,1.704
34.8800,1.694
34.9200,1.696
34.9600,1.685
35.0000,1.695
35.0400,1.711
35.0800,1.705
35.1200,1.643
35.1600,1.715
35.2000,1.691
35.2400,1.718
35.2800,1.698
35.3200,1.699
35.3600,1.712
35.4000,1.702
35.4400,1.804
35.4800,1.710
35.5200,1.772
35.5600,1.717
35.6000,1.655
35.6400,1.792
35.6800,1.754
35.7200,1.867
35.7600,1.809
35.8000,1.790
35.8400,1.784
35.8800,1.766
35.9200,1.765
35.9600,1.725
36.0000,1.690
36.0400,1.735
36.0800,1.779
36.1200,1.710
36.1600,1.766
36.2000,1.645
36.2400,1.714
36.2800,1.706
36.3200,1.715
36.3600,1.724
36.4000,1.767
36.4400,1.705
36.4800,1.702
36.5200,1.682
36.5600,1.627
36.6000,1.653
36.6400,1.703
36.6800,1.621
36.7200,1.683
36.7600,1.651
36.8000,1.691
36.8400,1.685
36.8800,1.687
36.9200,1.722
36.9600,1.691
37.0000,1.716
37.0400,1.741
37.0800,1.702
37.1200,1.650
37.1600,1.671
37.2000,1.741
37.2400,1.683
37.2800,1.708
37.3200,1.739
37.3600,1.803
37.4000,1.784
37.4400,1.841
37.4800,1.917
37.5200,1.887
37.5600,1.943
37.6000,1.873
37.6400,1.998
37.6800,2.014
37.7200,2.047
37.7600,2.116
37.8000,2.136
37.8400,2.229
37.8800,2.383
37.9200,2.535
37.9600,2.605
38.0000,2.759
38.0400,2.837
38.0800,2.957
38.1200,3.268
38.1600,3.307
38.2000,3.413
38.2400,3.497
38.2800,3.520
38.3200,3.375
38.3600,3.396
38.4000,3.348
38.4400,3.244
38.4800,3.226
38.5200,3.002
38.5600,2.836
38.6000,2.762
38.6400,2.732
38.6800,2.511
38.7200,2.407
38.7600,2.365
38.8000,2.326
38.8400,2.188
38.8800,2.169
38.9200,2.081
38.9600,2.097
39.0000,1.985
39.0400,2.044
39.0800,2.117
39.1200,1.982
39.1600,2.001
39.2000,2.016
39.2400,1.990
39.2800,2.015
39.3200,2.086
39.3600,2.011
39.4000,2.129
39.4400,2.267
39.4800,2.191
39.5200,2.225
39.5600,2.210
39.6000,2.181
39.6400,2.361
39.6800,2.391
39.7200,2.441
39.7600,2.389
39.8000,2.329
39.8400,2.213
39.8800,2.097
39.9200,2.101
39.9600,2.083
40.0000,2.117
40.0400,2.011
40.0800,1.977
40.1200,2.003
40.1600,1.960
40.2000,1.870
40.2400,1.862
40.2800,1.831
40.3200,1.819
40.3600,1.810
40.4000,1.796
40.4400,1.789
40.4800,1.773
40.5200,1.705
40.5600,1.818
40.6000,1.769
40.6400,1.750
40.6800,1.903
40.7200,1.973
40.7600,2.010
40.8000,1.984
40.8400,2.082
40.8800,2.077
40.9200,2.137
40.9600,2.173
41.0000,2.146
41.0400,2.022
41.0800,2.071
41.1200,2.135
41.1600,2.092
41.2000,2.018
41.2400,1.936
41.2800,1.908
41.3200,1.935
41.3600,1.863
41.4000,1.792
41.4400,1.686
41.4800,1.646
41.5200,1.666
41.5600,1.578
41.6000,1.616
41.6400,1.572
41.6800,1.489
41.7200,1.451
41.7600,1.444
41.8000,1.372
41.8400,1.369
41.8800,1.405
41.9200,1.392
41.9600,1.354
42.0000,1.419
42.0400,1.369
42.0800,1.397
42.1200,1.365
42.1600,1.341
42.2000,1.339
42.2400,1.321
42.2800,1.325
42.3200,1.374
42.3600,1.302
42.4000,1.271
42.4400,1.295
42.4800,1.318
42.5200,1.269
42.5600,1.286
42.6000,1.285
42.6400,1.298
42.6800,1.284
42.7200,1.249
42.7600,1.231
42.8000,1.298
42.8400,1.267
42.8800,1.216
42.9200,1.211
42.9600,1.239
43.0000,1.268
43.0400,1.255
43.0800,1.307
43.1200,1.226
43.1600,1.265
43.2000,1.190
43.2400,1.252
43.2800,1.198
43.3200,1.213
43.3600,1.230
43.4000,1.254
43.4400,1.263
43.4800,1.248
43.5200,1.343
43.5600,1.301
43.6000,1.303
43.6400,1.313
43.6800,1.326
43.7200,1.328
43.7600,1.378
43.8000,1.367
43.8400,1.360
43.8800,1.402
43.9200,1.348
43.9600,1.402
44.0000,1.544
44.0400,1.539
44.0800,1.499
44.1200,1.577
44.1600,1.606
44.2000,1.724
44.2400,1.775
44.2800,1.791
44.3200,1.797
44.3600,1.944
44.4000,1.827
44.4400,1.911
44.4800,1.871
44.5200,1.900
44.5600,1.893
44.6000,1.894
44.6400,1.821
44.6800,1.767
44.7200,1.728
44.7600,1.708
44.8000,1.602
44.8400,1.635
44.8800,1.614
44.9200,1.565
44.9600,1.466
45.0000,1.443
45.0400,1.403
45.0800,1.435
45.1200,1.378
45.1600,1.283
45.2000,1.306
45.2400,1.290
45.2800,1.294
45.3200,1.258
45.3600,1.216
45.4000,1.180
45.4400,1.223
45.4800,1.221
45.5200,1.248
45.5600,1.173
45.6000,1.190
45.6400,1.149
45.6800,1.106
45.7200,1.076
45.7600,1.129
45.8000,1.105
45.8400,1.178
45.8800,1.131
45.9200,1.104
45.9600,1.076
46.0000,1.141
46.0400,1.126
46.0800,1.107
46.1200,1.099
46.1600,1.206
46.2000,1.187
46.2400,1.170
46.2800,1.169
46.3200,1.196
46.3600,1.152
46.4000,1.106
46.4400,1.059
46.4800,1.108
46.5200,1.087
46.5600,1.052
46.6000,1.108
46.6400,1.128
46.6800,1.043
46.7200,1.017
46.7600,1.033
46.8000,0.984
46.8400,1.020
46.8800,1.073
46.9200,1.053
46.9600,0.987
47.0000,1.033
47.0400,0.960
47.0800,1.031
47.1200,1.016
47.1600,0.981
47.2000,1.051
47.2400,0.969
47.2800,0.966
47.3200,1.008
47.3600,0.980
47.4000,0.994
47.4400,1.021
47.4800,1.022
47.5200,1.002
47.5600,0.971
47.6000,1.031
47.6400,0.997
47.6800,1.012
47.7200,0.998
47.7600,1.048
47.8000,1.007
47.8400,1.048
47.8800,0.974
47.9200,1.031
47.9600,1.039
48.0000,1.022
48.0400,1.107
48.0800,0.982
48.1200,1.060
48.1600,1.010
48.2000,0.984
48.2400,0.988
48.2800,0.996
48.3200,0.999
48.3600,0.994
48.4000,0.988
48.4400,0.976
48.4800,0.966
48.5200,0.900
48.5600,0.935
48.6000,0.907
48.6400,0.958
48.6800,0.921
48.7200,0.877
48.7600,0.874
48.8000,0.830
48.8400,0.853
48.8800,0.863
48.9200,0.853
48.9600,0.879
49.0000,0.850
49.0400,0.851
49.0800,0.841
49.1200,0.864
49.1600,0.872
49.2000,0.866
49.2400,0.868
49.2800,0.859
49.3200,0.898
49.3600,0.857
49.4000,0.854
49.4400,0.857
49.4800,0.830
49.5200,0.878
49.5600,0.883
49.6000,0.881
49.6400,0.886
49.6800,0.850
49.7200,0.837
49.7600,0.796
49.8000,0.873
49.8400,0.880
49.8800,0.874
49.9200,0.859
49.9600,0.862
50.0000,0.812
50.0400,0.867
50.0800,0.849
50.1200,0.806
50.1600,0.840
50.2000,0.801
50.2400,0.817
50.2800,0.863
50.3200,0.832
50.3600,0.822
50.4000,0.817
50.4400,0.797
50.4800,0.822
50.5200,0.741
50.5600,0.876
50.6000,0.828
50.6400,0.789
50.6800,0.832
50.7200,0.815
50.7600,0.812
50.8000,0.814
50.8400,0.804
50.8800,0.818
50.9200,0.846
50.9600,0.815
51.0000,0.774
51.0400,0.816
51.0800,0.832
51.1200,0.798
51.1600,0.776
51.2000,0.848
51.2400,0.824
51.2800,0.864
51.3200,0.811
51.3600,0.821
51.4000,0.811
51.4400,0.869
51.4800,0.783
51.5200,0.793
51.5600,0.740
51.6000,0.755
51.6400,0.812
51.6800,0.791
51.7200,0.730
51.7600,0.791
51.8000,0.768
51.8400,0.763
51.8800,0.777
51.9200,0.733
51.9600,0.790
52.0000,0.802
52.0400,0.808
52.0800,0.759
52.1200,0.800
52.1600,0.719
52.2000,0.760
52.2400,0.762
52.2800,0.756
52.3200,0.760
52.3600,0.758
52.4000,0.772
52.4400,0.726
52.4800,0.737
52.5200,0.798
52.5600,0.754
52.6000,0.736
52.6400,0.768
52.6800,0.712
52.7200,0.734
52.7600,0.780
52.8000,0.739
52.8400,0.746
52.8800,0.779
52.9200,0.825
52.9600,0.736
53.0000,0.709
53.0400,0.728
53.0800,0.788
53.1200,0.724
53.1600,0.756
53.2000,0.729
53.2400,0.760
53.2800,0.761
53.3200,0.745
53.3600,0.702
53.4000,0.735
53.4400,0.751
53.4800,0.724
53.5200,0.725
53.5600,0.753
53.6000,0.817
53.6400,0.743
53.6800,0.696
53.7200,0.771
53.7600,0.730
53.8000,0.720
53.8400,0.757
53.8800,0.733
53.9200,0.732
53.9600,0.758
54.0000,0.757
54.0400,0.709
54.0800,0.737
54.1200,0.769
54.1600,0.745
54.2000,0.714
54.2400,0.705
54.2800,0.763
54.3200,0.740
54.3600,0.698
54.4000,0.705
54.4400,0.714
54.4800,0.689
54.5200,0.740
54.5600,0.759
54.6000,0.767
54.6400,0.742
54.6800,0.703
54.7200,0.698
54.7600,0.666
54.8000,0.719
54.8400,0.695
54.8800,0.753
54.9200,0.769
54.9600,0.707
55.0000,0.694
55.0400,0.708
55.0800,0.716
55.1200,0.727
55.1600,0.677
55.2000,0.722
55.2400,0.673
55.2800,0.715
55.3200,0.696
55.3600,0.726
55.4000,0.753
55.4400,0.690
55.4800,0.744
55.5200,0.681
55.5600,0.734
55.6000,0.708
55.6400,0.708
55.6800,0.729
55.7200,0.679
55.7600,0.719
55.8000,0.641
55.8400,0.763
55.8800,0.667
55.9200,0.670
55.9600,0.699
56.0000,0.683
56.0400,0.672
56.0800,0.694
56.1200,0.723
56.1600,0.712
56.2000,0.694
56.2400,0.688
56.2800,0.698
56.3200,0.634
56.3600,0.661
56.4000,0.696
56.4400,0.686
56.4800,0.641
56.5200,0.660
56.5600,0.667
56.6000,0.656
56.6400,0.700
56.6800,0.679
56.7200,0.658
56.7600,0.667
56.8000,0.679
56.8400,0.687
56.8800,0.697
56.9200,0.673
56.9600,0.689
57.0000,0.663
57.0400,0.687
57.0800,0.705
57.1200,0.678
57.1600,0.707
57.2000,0.682
57.2400,0.699
57.2800,0.657
57.3200,0.688
57.3600,0.650
57.4000,0.706
57.4400,0.654
57.4800,0.660
57.5200,0.679
57.5600,0.622
57.6000,0.699
57.6400,0.628
57.6800,0.697
57.7200,0.668
57.7600,0.677
57.8000,0.634
57.8400,0.651
57.8800,0.672
57.9200,0.666
57.9600,0.678
58.0000,0.667
58.0400,0.660
58.0800,0.653
58.1200,0.707
58.1600,0.694
58.2000,0.676
58.2400,0.650
58.2800,0.686
58.3200,0.658
58.3600,0.656
58.4000,0.674
58.4400,0.597
58.4800,0.684
58.5200,0.648
58.5600,0.653
58.6000,0.657
58.6400,0.628
58.6800,0.665
58.7200,0.693
58.7600,0.636
58.8000,0.652
58.8400,0.607
58.8800,0.649
58.9200,0.679
58.9600,0.629
59.0000,0.703
59.0400,0.666
59.0800,0.626
59.1200,0.677
59.1600,0.609
59.2000,0.647
59.2400,0.608
59.2800,0.645
59.3200,0.682
59.3600,0.660
59.4000,0.634
59.4400,0.641
59.4800,0.657
59.5200,0.630
59.5600,0.681
59.6000,0.655
59.6400,0.688
59.6800,0.644
59.7200,0.596
59.7600,0.648
59.8000,0.702
59.8400,0.716
59.8800,0.677
59.9200,0.628
59.9600,0.633
60.0000,0.661
60.0400,0.655
60.0800,0.682
60.1200,0.614
60.1600,0.631
60.2000,0.656
60.2400,0.655
60.2800,0.669
60.3200,0.656
60.3600,0.655
60.4000,0.598
60.4400,0.603
60.4800,0.617
60.5200,0.659
60.5600,0.635
60.6000,0.612
60.6400,0.618
60.6800,0.600
60.7200,0.629
60.7600,0.611
60.8000,0.624
60.8400,0.661
60.8800,0.665
60.9200,0.698
60.9600,0.648
61.0000,0.660
61.0400,0.639
61.0800,0.614
61.1200,0.646
61.1600,0.640
61.2000,0.674
61.2400,0.714
61.2800,0.638
61.3200,0.700
61.3600,0.603
61.4000,0.664
61.4400,0.636
61.4800,0.658
61.5200,0.658
61.5600,0.667
61.6000,0.745
61.6400,0.765
61.6800,0.657
61.7200,0.645
61.7600,0.649
61.8000,0.632
61.8400,0.623
61.8800,0.670
61.9200,0.648
61.9600,0.632
62.0000,0.614
62.0400,0.621
62.0800,0.611
62.1200,0.581
62.1600,0.619
62.2000,0.605
62.2400,0.602
62.2800,0.575
62.3200,0.560
62.3600,0.567
62.4000,0.632
62.4400,0.586
62.4800,0.583
62.5200,0.604
62.5600,0.673
62.6000,0.638
62.6400,0.580
62.6800,0.624
62.7200,0.629
62.7600,0.596
62.8000,0.660
62.8400,0.598
62.8800,0.589
62.9200,0.608
62.9600,0.585
63.0000,0.609
63.0400,0.599
63.0800,0.566
63.1200,0.620
63.1600,0.596
63.2000,0.650
63.2400,0.652
63.2800,0.635
63.3200,0.596
63.3600,0.638
63.4000,0.660
63.4400,0.655
63.4800,0.610
63.5200,0.658
63.5600,0.599
63.6000,0.630
63.6400,0.674
63.6800,0.677
63.7200,0.644
63.7600,0.665
63.8000,0.645
63.8400,0.677
63.8800,0.665
63.9200,0.666
63.9600,0.641
64.0000,0.648
64.0400,0.651
64.0800,0.717
64.1200,0.716
64.1600,0.713
64.2000,0.711
64.2400,0.760
64.2800,0.749
64.3200,0.708
64.3600,0.727
64.4000,0.702
64.4400,0.745
64.4800,0.817
64.5200,0.826
64.5600,0.850
64.6000,0.874
64.6400,0.841
64.6800,0.830
64.7200,0.878
64.7600,0.894
64.8000,0.849
64.8400,0.887
64.8800,0.876
64.9200,0.852
64.9600,0.856
65.0000,0.843
65.0400,0.868
65.0800,0.835
65.1200,0.857
65.1600,0.827
65.2000,0.882
65.2400,0.813
65.2800,0.853
65.3200,0.874
65.3600,0.844
65.4000,0.805
65.4400,0.811
65.4800,0.814
65.5200,0.784
65.5600,0.808
65.6000,0.790
65.6400,0.734
65.6800,0.851
65.7200,0.803
65.7600,0.819
65.8000,0.815
65.8400,0.812
65.8800,0.819
65.9200,0.792
65.9600,0.778
66.0000,0.813
66.0400,0.810
66.0800,0.850
66.1200,0.809
66.1600,0.791
66.2000,0.814
66.2400,0.806
66.2800,0.841
66.3200,0.867
66.3600,0.905
66.4000,0.848
66.4400,0.861
66.4800,0.872
66.5200,0.893
66.5600,0.897
66.6000,0.959
66.6400,0.931
66.6800,0.963
66.7200,0.947
66.7600,0.969
66.8000,0.977
66.8400,1.019
66.8800,1.043
66.9200,1.018
66.9600,1.037
67.0000,1.058
67.0400,1.047
67.0800,1.049
67.1200,1.105
67.1600,1.123
67.2000,1.180
67.2400,1.183
67.2800,1.270
67.3200,1.227
67.3600,1.233
67.4000,1.245
67.4400,1.348
67.4800,1.368
67.5200,1.297
67.5600,1.335
67.6000,1.413
67.6400,1.464
67.6800,1.460
67.7200,1.544
67.7600,1.449
67.8000,1.480
67.8400,1.576
67.8800,1.591
67.9200,1.621
67.9600,1.678
68.0000,1.748
68.0400,1.732
68.0800,1.850
68.1200,1.796
68.1600,1.936
68.2000,1.964
68.2400,1.944
68.2800,2.074
68.3200,2.188
68.3600,2.212
68.4000,2.343
68.4400,2.417
68.4800,2.542
68.5200,2.645
68.5600,2.974
68.6000,3.338
68.6400,3.766
68.6800,4.819
68.7200,6.125
68.7600,7.234
68.8000,7.495
68.8400,7.876
68.8800,9.060
68.9200,12.091
68.9600,18.380
69.0000,37.281
69.0400,166.623
69.0800,451.199
69.1200,381.152
69.1600,111.357
69.2000,46.762
69.2400,108.527
69.2800,243.518
69.3200,195.109
69.3600,57.211
69.4000,18.918
69.4400,11.454
69.4800,8.434
69.5200,6.808
69.5600,5.748
69.6000,4.993
69.6400,4.500
69.6800,3.926
69.7200,3.650
69.7600,3.368
69.8000,3.186
69.8400,2.971
69.8800,2.767
69.9200,2.631
69.9600,2.492
70.0000,2.452
70.0400,2.262
70.0800,2.312
70.1200,2.186
70.1600,2.118
70.2000,1.998
70.2400,1.883
70.2800,1.874
70.3200,1.848
70.3600,1.781
70.4000,1.650
70.4400,1.698
70.4800,1.651
70.5200,1.605
70.5600,1.484
70.6000,1.495
70.6400,1.450
70.6800,1.403
70.7200,1.397
70.7600,1.324
70.8000,1.310
70.8400,1.244
70.8800,1.275
70.9200,1.203
70.9600,1.119
71.0000,1.141
71.0400,1.083
71.0800,1.162
71.1200,1.108
71.1600,1.061
71.2000,1.026
71.2400,1.004
71.2800,0.921
71.3200,0.989
71.3600,1.004
71.4000,0.990
71.4400,0.892
71.4800,0.929
71.5200,0.862
71.5600,0.884
71.6000,0.876
71.6400,0.843
71.6800,0.853
71.7200,0.879
71.7600,0.801
71.8000,0.775
71.8400,0.772
71.8800,0.809
71.9200,0.755
71.9600,0.748
72.0000,0.709
72.0400,0.704
72.0800,0.714
72.1200,0.688
72.1600,0.676
72.2000,0.688
72.2400,0.652
72.2800,0.694
72.3200,0.652
72.3600,0.641
72.4000,0.634
72.4400,0.595
72.4800,0.657
72.5200,0.621
72.5600,0.609
72.6000,0.625
72.6400,0.628
72.6800,0.656
72.7200,0.600
72.7600,0.579
72.8000,0.584
72.8400,0.554
72.8800,0.573
72.9200,0.576
72.9600,0.575
73.0000,0.539
73.0400,0.521
73.0800,0.526
73.1200,0.555
73.1600,0.542
73.2000,0.565
73.2400,0.519
73.2800,0.538
73.3200,0.544
73.3600,0.549
73.4000,0.527
73.4400,0.516
73.4800,0.472
73.5200,0.487
73.5600,0.534
73.6000,0.495
73.6400,0.514
73.6800,0.497
73.7200,0.507
73.7600,0.485
73.8000,0.443
73.8400,0.501
73.8800,0.480
73.9200,0.494
73.9600,0.492
74.0000,0.489
74.0400,0.439
74.0800,0.461
74.1200,0.480
74.1600,0.498
74.2000,0.504
74.2400,0.480
74.2800,0.478
74.3200,0.451
74.3600,0.489
74.4000,0.448
74.4400,0.457
74.4800,0.452
74.5200,0.467
74.5600,0.476
74.6000,0.487
74.6400,0.465
74.6800,0.469
74.7200,0.473
74.7600,0.463
74.8000,0.473
74.8400,0.452
74.8800,0.480
74.9200,0.477
74.9600,0.445
75.0000,0.461
75.0400,0.437
75.0800,0.429
75.1200,0.406
75.1600,0.423
75.2000,0.436
75.2400,0.426
75.2800,0.399
75.3200,0.436
75.3600,0.445
75.4000,0.452
75.4400,0.424
75.4800,0.446
75.5200,0.379
75.5600,0.405
75.6000,0.396
75.6400,0.417
75.6800,0.392
75.7200,0.402
75.7600,0.425
75.8000,0.421
75.8400,0.424
75.8800,0.385
75.9200,0.420
75.9600,0.381
76.0000,0.426
76.0400,0.404
76.0800,0.443
76.1200,0.427
76.1600,0.438
76.2000,0.402
76.2400,0.414
76.2800,0.426
76.3200,0.421
76.3600,0.408
76.4000,0.421
76.4400,0.379
76.4800,0.405
76.5200,0.395
76.5600,0.433
76.6000,0.409
76.6400,0.393
76.6800,0.446
76.7200,0.416
76.7600,0.419
76.8000,0.435
76.8400,0.433
76.8800,0.477
76.9200,0.442
76.9600,0.448
77.0000,0.459
77.0400,0.454
77.0800,0.459
77.1200,0.476
77.1600,0.465
77.2000,0.465
77.2400,0.477
77.2800,0.494
77.3200,0.485
77.3600,0.515
77.4000,0.538
77.4400,0.555
77.4800,0.548
77.5200,0.605
77.5600,0.585
77.6000,0.538
77.6400,0.563
77.6800,0.603
77.7200,0.570
77.7600,0.589
77.8000,0.563
77.8400,0.556
77.8800,0.578
77.9200,0.570
77.9600,0.543
78.0000,0.584
78.0400,0.567
78.0800,0.543
78.1200,0.558
78.1600,0.539
78.2000,0.537
78.2400,0.519
78.2800,0.516
78.3200,0.509
78.3600,0.539
78.4000,0.510
78.4400,0.532
78.4800,0.497
78.5200,0.515
78.5600,0.467
78.6000,0.481
78.6400,0.501
78.6800,0.462
78.7200,0.448
78.7600,0.439
78.8000,0.432
78.8400,0.471
78.8800,0.460
78.9200,0.457
78.9600,0.490
79.0000,0.471
79.0400,0.471
79.0800,0.452
79.1200,0.428
79.1600,0.402
79.2000,0.434
79.2400,0.438
79.2800,0.398
79.3200,0.421
79.3600,0.480
79.4000,0.412
79.4400,0.465
79.4800,0.373
79.5200,0.405
79.5600,0.407
79.6000,0.409
79.6400,0.433
79.6800,0.383
79.7200,0.368
79.7600,0.411
79.8000,0.414
79.8400,0.399
79.8800,0.352
79.9200,0.377
79.9600,0.375
80.0000,0.377
