theta,intensity
5.0000,4.299
5.0400,4.357
5.0800,4.334
5.1200,4.264
5.1600,4.281
5.2000,4.236
5.2400,4.135
5.2800,4.278
5.3200,4.240
5.3600,4.210
5.4000,4.039
5.4400,4.216
5.4800,4.251
5.5200,4.196
5.5600,4.167
5.6000,4.110
5.6400,4.075
5.6800,4.074
5.7200,4.107
5.7600,4.198
5.8000,4.096
5.8400,4.106
5.8800,4.111
5.9200,4.060
5.9600,3.982
6.0000,4.024
6.0400,4.070
6.0800,4.022
6.1200,4.156
6.1600,3.950
6.2000,4.117
6.2400,4.039
6.2800,4.066
6.3200,3.972
6.3600,3.937
6.4000,3.934
6.4400,3.955
6.4800,3.924
6.5200,3.992
6.5600,3.844
6.6000,3.955
6.6400,3.915
6.6800,4.020
6.7200,3.929
6.7600,3.890
6.8000,3.904
6.8400,3.875
6.8800,3.868
6.9200,3.906
6.9600,3.847
7.0000,3.981
7.0400,3.871
7.0800,3.947
7.1200,3.899
7.1600,3.741
7.2000,3.904
7.2400,3.884
7.2800,3.885
7.3200,3.830
7.3600,3.826
7.4000,3.907
7.4400,3.784
7.4800,3.822
7.5200,3.822
7.5600,3.943
7.6000,3.809
7.6400,3.805
7.6800,3.825
7.7200,3.844
7.7600,3.806
7.8000,3.727
7.8400,3.828
7.8800,3.759
7.9200,3.765
7.9600,3.861
8.0000,3.854
8.0400,3.747
8.0800,3.676
8.1200,3.841
8.1600,3.728
8.2000,3.716
8.2400,3.729
8.2800,3.724
8.3200,3.817
8.3600,3.767
8.4000,3.805
8.4400,3.707
8.4800,3.732
8.5200,3.763
8.5600,3.788
8.6000,3.709
8.6400,3.632
8.6800,3.661
8.7200,3.738
8.7600,3.661
8.8000,3.770
8.8400,3.637
8.8800,3.749
8.9200,3.647
8.9600,3.684
9.0000,3.790
9.0400,3.702
9.0800,3.684
9.1200,3.602
9.1600,3.616
9.2000,3.694
9.2400,3.655
9.2800,3.643
9.3200,3.663
9.3600,3.644
9.4000,3.588
9.4400,3.609
9.4800,3.650
9.5200,3.660
9.5600,3.593
9.6000,3.652
9.6400,3.658
9.6800,3.584
9.7200,3.605
9.7600,3.559
9.8000,3.682
9.8400,3.576
9.8800,3.595
9.9200,3.551
9.9600,3.488
10.0000,3.581
10.0400,3.613
10.0800,3.412
10.1200,3.547
10.1600,3.560
10.2000,3.556
10.2400,3.528
10.2800,3.474
10.3200,3.491
10.3600,3.564
10.4000,3.571
10.4400,3.639
10.4800,3.629
10.5200,3.516
10.5600,3.518
10.6000,3.522
10.6400,3.498
10.6800,3.448
10.7200,3.353
10.7600,3.600
10.8000,3.439
10.8400,3.446
10.8800,3.594
10.9200,3.447
10.9600,3.526
11.0000,3.429
11.0400,3.455
11.0800,3.475
11.1200,3.422
11.1600,3.331
11.2000,3.425
11.2400,3.407
11.2800,3.475
11.3200,3.394
11.3600,3.467
11.4000,3.465
11.4400,3.416
11.4800,3.445
11.5200,3.489
11.5600,3.451
11.6000,3.400
11.6400,3.459
11.6800,3.326
11.7200,3.385
11.7600,3.367
11.8000,3.444
11.8400,3.443
11.8800,3.436
11.9200,3.408
11.9600,3.390
12.0000,3.296
12.0400,3.375
12.0800,3.397
12.1200,3.406
12.1600,3.389
12.2000,3.475
12.2400,3.383
12.2800,3.416
12.3200,3.403
12.3600,3.412
12.4000,3.394
12.4400,3.316
12.4800,3.406
12.5200,3.344
12.5600,3.327
12.6000,3.358
12.6400,3.474
12.6800,3.269
12.7200,3.275
12.7600,3.396
12.8000,3.340
12.8400,3.258
12.8800,3.385
12.9200,3.385
12.9600,3.351
13.0000,3.274
13.0400,3.412
13.0800,3.263
13.1200,3.374
13.1600,3.292
13.2000,3.316
13.2400,3.278
13.2800,3.317
13.3200,3.223
13.3600,3.271
13.4000,3.279
13.4400,3.220
13.4800,3.301
13.5200,3.251
13.5600,3.300
13.6000,3.257
13.6400,3.257
13.6800,3.237
13.7200,3.210
13.7600,3.342
13.8000,3.272
13.8400,3.197
13.8800,3.215
13.9200,3.201
13.9600,3.275
14.0000,3.182
14.0400,3.183
14.0800,3.239
14.1200,3.212
14.1600,3.269
14.2000,3.220
14.2400,3.209
14.2800,3.153
14.3200,3.289
14.3600,3.128
14.4000,3.135
14.4400,3.134
14.4800,3.204
14.5200,3.072
14.5600,3.090
14.6000,3.195
14.6400,3.173
14.6800,3.132
14.7200,3.059
14.7600,3.176
14.8000,3.252
14.8400,3.149
14.8800,3.147
14.9200,3.124
14.9600,3.088
15.0000,3.175
15.0400,3.017
15.0800,3.166
15.1200,3.105
15.1600,3.083
15.2000,3.078
15.2400,3.070
15.2800,3.162
15.3200,3.042
15.3600,3.137
15.4000,3.038
15.4400,3.147
15.4800,3.057
15.5200,2.996
15.5600,3.084
15.6000,3.048
15.6400,3.042
15.6800,3.070
15.7200,2.969
15.7600,3.052
15.8000,3.061
15.8400,3.019
15.8800,3.072
15.9200,3.148
15.9600,3.131
16.0000,2.954
16.0400,3.084
16.0800,2.980
16.1200,3.051
16.1600,3.002
16.2000,3.058
16.2400,2.978
16.2800,3.036
16.3200,2.966
16.3600,3.066
16.4000,3.041
16.4400,3.035
16.4800,2.989
16.5200,3.090
16.5600,3.076
16.6000,2.945
16.6400,3.085
16.6800,3.020
16.7200,2.952
16.7600,3.018
16.8000,2.946
16.8400,2.928
16.8800,2.889
16.9200,2.971
16.9600,2.963
17.0000,2.849
17.0400,2.939
17.0800,2.857
17.1200,2.960
17.1600,2.972
17.2000,2.887
17.2400,2.879
17.2800,2.843
17.3200,2.888
17.3600,2.850
17.4000,2.945
17.4400,2.965
17.4800,2.851
17.5200,2.897
17.5600,2.817
17.6000,2.871
17.6400,2.816
17.6800,2.922
17.7200,2.914
17.7600,2.833
17.8000,2.942
17.8400,2.822
17.8800,2.763
17.9200,2.958
17.9600,2.823
18.0000,2.841
18.0400,2.740
18.0800,2.888
18.1200,2.887
18.1600,2.964
18.2000,2.846
18.2400,2.806
18.2800,2.796
18.3200,2.871
18.3600,2.761
18.4000,2.794
18.4400,2.797
18.4800,2.797
18.5200,2.706
18.5600,2.835
18.6000,2.812
18.6400,2.792
18.6800,2.793
18.7200,2.785
18.7600,2.924
18.8000,2.790
18.8400,2.748
18.8800,2.774
18.9200,2.799
18.9600,2.735
19.0000,2.720
19.0400,2.747
19.0800,2.822
19.1200,2.742
19.1600,2.648
19.2000,2.843
19.2400,2.777
19.2800,2.697
19.3200,2.689
19.3600,2.790
19.4000,2.763
19.4400,2.704
19.4800,2.658
19.5200,2.659
19.5600,2.696
19.6000,2.627
19.6400,2.598
19.6800,2.694
19.7200,2.721
19.7600,2.716
19.8000,2.641
19.8400,2.659
19.8800,2.708
19.9200,2.606
19.9600,2.762
20.0000,2.674
20.0400,2.615
20.0800,2.614
20.1200,2.560
20.1600,2.614
20.2000,2.755
20.2400,2.712
20.2800,2.682
20.3200,2.704
20.3600,2.648
20.4000,2.584
20.4400,2.594
20.4800,2.681
20.5200,2.608
20.5600,2.630
20.6000,2.729
20.6400,2.651
20.6800,2.626
20.7200,2.649
20.7600,2.579
20.8000,2.596
20.8400,2.567
20.8800,2.477
20.9200,2.597
20.9600,2.539
21.0000,2.531
21.0400,2.531
21.0800,2.595
21.1200,2.571
21.1600,2.579
21.2000,2.648
21.2400,2.562
21.2800,2.501
21.3200,2.591
21.3600,2.594
21.4000,2.514
21.4400,2.500
21.4800,2.614
21.5200,2.561
21.5600,2.507
21.6000,2.537
21.6400,2.570
21.6800,2.514
21.7200,2.513
21.7600,2.618
21.8000,2.636
21.8400,2.461
21.8800,2.520
21.9200,2.564
21.9600,2.574
22.0000,2.485
22.0400,2.455
22.0800,2.530
22.1200,2.519
22.1600,2.511
22.2000,2.511
22.2400,2.529
22.2800,2.489
22.3200,2.378
22.3600,2.444
22.4000,2.479
22.4400,2.389
22.4800,2.453
22.5200,2.472
22.5600,2.394
22.6000,2.512
22.6400,2.416
22.6800,2.463
22.7200,2.387
22.7600,2.457
22.8000,2.407
22.8400,2.417
22.8800,2.535
22.9200,2.486
22.9600,2.416
23.0000,2.359
23.0400,2.334
23.0800,2.341
23.1200,2.376
23.1600,2.438
23.2000,2.391
23.2400,2.408
23.2800,2.345
23.3200,2.330
23.3600,2.348
23.4000,2.359
23.4400,2.384
23.4800,2.396
23.5200,2.270
23.5600,2.336
23.6000,2.402
23.6400,2.417
23.6800,2.288
23.7200,2.339
23.7600,2.349
23.8000,2.275
23.8400,2.301
23.8800,2.314
23.9200,2.317
23.9600,2.333
24.0000,2.346
24.0400,2.295
24.0800,2.344
24.1200,2.304
24.1600,2.292
24.2000,2.247
24.2400,2.307
24.2800,2.231
24.3200,2.222
24.3600,2.288
24.4000,2.251
24.4400,2.208
24.4800,2.262
24.5200,2.356
24.5600,2.239
24.6000,2.279
24.6400,2.233
24.6800,2.195
24.7200,2.238
24.7600,2.264
24.8000,2.237
24.8400,2.210
24.8800,2.207
24.9200,2.187
24.9600,2.243
25.0000,2.279
25.0400,2.215
25.0800,2.263
25.1200,2.183
25.1600,2.195
25.2000,2.123
25.2400,2.156
25.2800,2.211
25.3200,2.263
25.3600,2.207
25.4000,2.259
25.4400,2.126
25.4800,2.139
25.5200,2.280
25.5600,2.146
25.6000,2.140
25.6400,2.134
25.6800,2.069
25.7200,2.118
25.7600,2.125
25.8000,2.110
25.8400,2.159
25.8800,2.218
25.9200,2.164
25.9600,2.159
26.0000,2.112
26.0400,2.167
26.0800,2.080
26.1200,2.158
26.1600,2.154
26.2000,2.159
26.2400,2.082
26.2800,2.190
26.3200,2.157
26.3600,2.061
26.4000,2.163
26.4400,2.118
26.4800,2.136
26.5200,2.081
26.5600,2.135
26.6000,2.120
26.6400,2.042
26.6800,2.108
26.7200,2.107
26.7600,1.991
26.8000,2.047
26.8400,1.997
26.8800,2.044
26.9200,2.138
26.9600,1.998
27.0000,2.035
27.0400,2.040
27.0800,2.048
27.1200,2.074
27.1600,2.116
27.2000,1.962
27.2400,1.997
27.2800,2.020
27.3200,2.067
27.3600,2.010
27.4000,2.037
27.4400,2.056
27.4800,2.023
27.5200,1.999
27.5600,2.030
27.6000,2.021
27.6400,1.977
27.6800,1.996
27.7200,1.974
27.7600,2.059
27.8000,1.997
27.8400,2.100
27.8800,2.053
27.9200,1.979
27.9600,2.000
28.0000,1.957
28.0400,1.967
28.0800,2.008
28.1200,1.999
28.1600,1.974
28.2000,1.979
28.2400,1.925
28.2800,1.879
28.3200,1.996
28.3600,1.969
28.4000,1.894
28.4400,1.881
28.4800,1.964
28.5200,1.902
28.5600,1.919
28.6000,2.030
28.6400,1.966
28.6800,1.939
28.7200,1.898
28.7600,1.917
28.8000,1.957
28.8400,1.922
28.8800,1.979
28.9200,1.885
28.9600,1.967
29.0000,1.935
29.0400,1.899
29.0800,1.867
29.1200,1.863
29.1600,1.911
29.2000,1.863
29.2400,1.926
29.2800,1.881
29.3200,1.864
29.3600,1.876
29.4000,1.883
29.4400,1.892
29.4800,1.878
29.5200,1.882
29.5600,1.895
29.6000,1.909
29.6400,1.962
29.6800,1.921
29.7200,1.861
29.7600,1.973
29.8000,1.935
29.8400,1.864
29.8800,1.893
29.9200,1.925
29.9600,1.927
30.0000,1.942
30.0400,1.901
30.0800,1.874
30.1200,1.914
30.1600,1.998
30.2000,2.000
30.2400,2.006
30.2800,2.055
30.3200,2.085
30.3600,2.060
30.4000,2.171
30.4400,2.167
30.4800,2.346
30.5200,2.265
30.5600,2.378
30.6000,2.395
30.6400,2.360
30.6800,2.398
30.7200,2.423
30.7600,2.402
30.8000,2.262
30.8400,2.239
30.8800,2.221
30.9200,2.217
30.9600,2.188
31.0000,2.153
31.0400,2.051
31.0800,2.053
31.1200,2.037
31.1600,2.014
31.2000,1.910
31.2400,1.937
31.2800,1.941
31.3200,1.861
31.3600,1.799
31.4000,1.792
31.4400,1.862
31.4800,1.833
31.5200,1.797
31.5600,1.807
31.6000,1.846
31.6400,1.787
31.6800,1.825
31.7200,1.745
31.7600,1.782
31.8000,1.748
31.8400,1.743
31.8800,1.781
31.9200,1.717
31.9600,1.819
32.0000,1.753
32.0400,1.666
32.0800,1.707
32.1200,1.689
32.1600,1.709
32.2000,1.680
32.2400,1.737
32.2800,1.688
32.3200,1.657
32.3600,1.675
32.4000,1.660
32.4400,1.711
32.4800,1.669
32.5200,1.684
32.5600,1.704
32.6000,1.627
32.6400,1.655
32.6800,1.662
32.7200,1.651
32.7600,1.755
32.8000,1.632
32.8400,1.684
32.8800,1.685
32.9200,1.616
32.9600,1.626
33.0000,1.638
33.0400,1.645
33.0800,1.620
33.1200,1.660
33.1600,1.615
33.2000,1.590
33.2400,1.633
33.2800,1.645
33.3200,1.690
33.3600,1.609
33.4000,1.624
33.4400,1.582
33.4800,1.682
33.5200,1.574
33.5600,1.681
33.6000,1.584
33.6400,1.648
33.6800,1.543
33.7200,1.635
33.7600,1.676
33.8000,1.694
33.8400,1.634
33.8800,1.578
33.9200,1.566
33.9600,1.607
34.0000,1.530
34.0400,1.538
34.0800,1.548
34.1200,1.575
34.1600,1.631
34.2000,1.559
34.2400,1.584
34.2800,1.533
34.3200,1.589
34.3600,1.569
34.4000,1.622
34.4400,1.633
34.4800,1.589
34.5200,1.599
34.5600,1.561
34.6000,1.525
34.6400,1.641
34.6800,1.552
34.7200,1.543
34.7600,1.554
34.8000,1.568
34.8400,1.550
34.8800,1.505
34.9200,1.558
34.9600,1.596
35.0000,1.643
35.0400,1.609
35.0800,1.531
35.1200,1.549
35.1600,1.633
35.2000,1.669
35.2400,1.583
35.2800,1.744
35.3200,1.661
35.3600,1.715
35.4000,1.660
35.4400,1.766
35.4800,1.737
35.5200,1.759
35.5600,1.844
35.6000,1.824
35.6400,1.894
35.6800,1.963
35.7200,2.066
35.7600,2.174
35.8000,2.250
35.8400,2.483
35.8800,2.608
35.9200,2.806
35.9600,2.735
36.0000,2.769
36.0400,2.605
36.0800,2.471
36.1200,2.448
36.1600,2.402
36.2000,2.306
36.2400,2.179
36.2800,2.093
36.3200,2.067
36.3600,2.015
36.4000,1.951
36.4400,1.927
36.4800,1.886
36.5200,1.888
36.5600,1.799
36.6000,1.838
36.6400,1.802
36.6800,1.752
36.7200,1.816
36.7600,1.777
36.8000,1.719
36.8400,1.763
36.8800,1.767
36.9200,1.819
36.9600,1.845
37.0000,1.807
37.0400,1.786
37.0800,1.779
37.1200,1.781
37.1600,1.790
37.2000,1.777
37.2400,1.813
37.2800,1.817
37.3200,1.948
37.3600,1.924
37.4000,1.927
37.4400,2.056
37.4800,2.148
37.5200,2.257
37.5600,2.456
37.6000,2.654
37.6400,2.926
37.6800,3.518
37.7200,4.040
37.7600,4.580
37.8000,5.036
37.8400,5.219
37.8800,5.398
37.9200,5.186
37.9600,5.012
38.0000,4.693
38.0400,4.273
38.0800,4.005
38.1200,3.691
38.1600,3.454
38.2000,3.285
38.2400,3.099
38.2800,2.835
38.3200,2.693
38.3600,2.565
38.4000,2.407
38.4400,2.396
38.4800,2.285
38.5200,2.248
38.5600,2.110
38.6000,2.136
38.6400,1.992
38.6800,2.047
38.7200,1.937
38.7600,1.892
38.8000,1.914
38.8400,1.876
38.8800,1.870
38.9200,1.842
38.9600,1.837
39.0000,1.851
39.0400,1.829
39.0800,1.742
39.1200,1.850
39.1600,1.775
39.2000,1.805
39.2400,1.831
39.2800,1.871
39.3200,1.842
39.3600,1.889
39.4000,1.897
39.4400,1.834
39.4800,1.885
39.5200,1.911
39.5600,1.985
39.6000,2.004
39.6400,2.025
39.6800,2.039
39.7200,2.104
39.7600,2.117
39.8000,2.150
39.8400,2.256
39.8800,2.307
39.9200,2.331
39.9600,2.375
40.0000,2.347
40.0400,2.401
40.0800,2.349
40.1200,2.413
40.1600,2.452
40.2000,2.470
40.2400,2.475
40.2800,2.565
40.3200,2.560
40.3600,2.662
40.4000,2.681
40.4400,2.673
40.4800,2.734
40.5200,2.835
40.5600,2.852
40.6000,2.877
40.6400,2.980
40.6800,2.984
40.7200,2.996
40.7600,2.909
40.8000,2.954
40.8400,2.900
40.8800,2.769
40.9200,2.742
40.9600,2.720
41.0000,2.616
41.0400,2.473
41.0800,2.475
41.1200,2.461
41.1600,2.339
41.2000,2.195
41.2400,2.226
41.2800,2.202
41.3200,2.176
41.3600,2.169
41.4000,2.141
41.4400,2.130
41.4800,2.040
41.5200,2.063
41.5600,2.016
41.6000,2.008
41.6400,1.909
41.6800,1.968
41.7200,1.842
41.7600,1.829
41.8000,1.741
41.8400,1.779
41.8800,1.747
41.9200,1.731
41.9600,1.672
42.0000,1.639
42.0400,1.627
42.0800,1.580
42.1200,1.558
42.1600,1.540
42.2000,1.429
42.2400,1.492
42.2800,1.430
42.3200,1.335
42.3600,1.410
42.4000,1.394
42.4400,1.362
42.4800,1.410
42.5200,1.407
42.5600,1.315
42.6000,1.362
42.6400,1.315
42.6800,1.354
42.7200,1.332
42.7600,1.299
42.8000,1.299
42.8400,1.336
42.8800,1.273
42.9200,1.292
42.9600,1.215
43.0000,1.230
43.0400,1.277
43.0800,1.287
43.1200,1.302
43.1600,1.293
43.2000,1.235
43.2400,1.281
43.2800,1.281
43.3200,1.261
43.3600,1.327
43.4000,1.283
43.4400,1.267
43.4800,1.353
43.5200,1.270
43.5600,1.265
43.6000,1.311
43.6400,1.288
43.6800,1.342
43.7200,1.299
43.7600,1.287
43.8000,1.267
43.8400,1.293
43.8800,1.325
43.9200,1.310
43.9600,1.335
44.0000,1.348
44.0400,1.350
44.0800,1.280
44.1200,1.356
44.1600,1.385
44.2000,1.387
44.2400,1.374
44.2800,1.350
44.3200,1.405
44.3600,1.363
44.4000,1.358
44.4400,1.308
44.4800,1.304
44.5200,1.257
44.5600,1.212
44.6000,1.186
44.6400,1.188
44.6800,1.217
44.7200,1.195
44.7600,1.213
44.8000,1.173
44.8400,1.154
44.8800,1.149
44.9200,1.122
44.9600,1.183
45.0000,1.110
45.0400,1.166
45.0800,1.109
45.1200,1.101
45.1600,1.120
45.2000,1.100
45.2400,1.017
45.2800,1.020
45.3200,1.067
45.3600,1.080
45.4000,1.021
45.4400,1.085
45.4800,1.086
45.5200,1.013
45.5600,1.045
45.6000,1.021
45.6400,1.057
45.6800,1.075
45.7200,1.097
45.7600,1.091
45.8000,1.081
45.8400,1.065
45.8800,1.058
45.9200,1.037
45.9600,1.049
46.0000,0.982
46.0400,1.052
46.0800,1.060
46.1200,0.995
46.1600,1.072
46.2000,1.046
46.2400,0.964
46.2800,0.937
46.3200,0.972
46.3600,1.035
46.4000,0.957
46.4400,0.956
46.4800,1.034
46.5200,0.975
46.5600,1.049
46.6000,0.957
46.6400,0.957
46.6800,0.979
46.7200,0.961
46.7600,0.993
46.8000,0.963
46.8400,0.921
46.8800,0.984
46.9200,0.969
46.9600,0.995
47.0000,0.958
47.0400,0.937
47.0800,0.921
47.1200,0.899
47.1600,0.944
47.2000,0.968
47.2400,0.932
47.2800,0.959
47.3200,0.899
47.3600,0.973
47.4000,0.954
47.4400,0.928
47.4800,0.944
47.5200,0.949
47.5600,0.952
47.6000,0.904
47.6400,0.905
47.6800,0.899
47.7200,0.939
47.7600,0.910
47.8000,0.918
47.8400,0.907
47.8800,0.875
47.9200,0.949
47.9600,0.894
48.0000,0.894
48.0400,0.885
48.0800,0.935
48.1200,0.894
48.1600,0.893
48.2000,0.881
48.2400,0.867
48.2800,0.908
48.3200,0.865
48.3600,0.877
48.4000,0.907
48.4400,0.831
48.4800,0.880
48.5200,0.912
48.5600,0.926
48.6000,0.859
48.6400,0.892
48.6800,0.845
48.7200,0.843
48.7600,0.892
48.8000,0.901
48.8400,0.883
48.8800,0.840
48.9200,0.901
48.9600,0.910
49.0000,0.917
49.0400,0.882
49.0800,0.884
49.1200,0.876
49.1600,0.860
49.2000,0.887
49.2400,0.865
49.2800,0.910
49.3200,0.901
49.3600,0.871
49.4000,0.868
49.4400,0.884
49.4800,0.870
49.5200,0.907
49.5600,0.900
49.6000,0.895
49.6400,0.904
49.6800,0.879
49.7200,0.845
49.7600,0.893
49.8000,0.862
49.8400,0.896
49.8800,0.913
49.9200,0.884
49.9600,0.879
50.0000,0.861
50.0400,0.894
50.0800,0.829
50.1200,0.906
50.1600,0.852
50.2000,0.877
50.2400,0.808
50.2800,0.883
50.3200,0.885
50.3600,0.895
50.4000,0.854
50.4400,0.861
50.4800,0.853
50.5200,0.901
50.5600,0.924
50.6000,0.907
50.6400,0.879
50.6800,0.928
50.7200,0.896
50.7600,0.920
50.8000,0.985
50.8400,0.961
50.8800,0.937
50.9200,0.960
50.9600,0.988
51.0000,0.984
51.0400,0.932
51.0800,1.017
51.1200,1.084
51.1600,1.057
51.2000,1.019
51.2400,0.975
51.2800,1.003
51.3200,0.970
51.3600,1.014
51.4000,0.918
51.4400,0.907
51.4800,0.898
51.5200,0.888
51.5600,0.923
51.6000,0.847
51.6400,0.821
51.6800,0.852
51.7200,0.889
51.7600,0.830
51.8000,0.832
51.8400,0.832
51.8800,0.826
51.9200,0.834
51.9600,0.821
52.0000,0.833
52.0400,0.847
52.0800,0.769
52.1200,0.805
52.1600,0.832
52.2000,0.799
52.2400,0.812
52.2800,0.787
52.3200,0.789
52.3600,0.794
52.4000,0.809
52.4400,0.837
52.4800,0.812
52.5200,0.823
52.5600,0.777
52.6000,0.810
52.6400,0.810
52.6800,0.797
52.7200,0.830
52.7600,0.837
52.8000,0.824
52.8400,0.787
52.8800,0.743
52.9200,0.835
52.9600,0.842
53.0000,0.803
53.0400,0.785
53.0800,0.783
53.1200,0.794
53.1600,0.811
53.2000,0.790
53.2400,0.793
53.2800,0.810
53.3200,0.825
53.3600,0.763
53.4000,0.780
53.4400,0.805
53.4800,0.777
53.5200,0.754
53.5600,0.715
53.6000,0.814
53.6400,0.786
53.6800,0.754
53.7200,0.733
53.7600,0.752
53.8000,0.772
53.8400,0.724
53.8800,0.731
53.9200,0.755
53.9600,0.780
54.0000,0.779
54.0400,0.698
54.0800,0.762
54.1200,0.739
54.1600,0.752
54.2000,0.746
54.2400,0.743
54.2800,0.723
54.3200,0.710
54.3600,0.739
54.4000,0.752
54.4400,0.721
54.4800,0.736
54.5200,0.720
54.5600,0.753
54.6000,0.681
54.6400,0.726
54.6800,0.726
54.7200,0.704
54.7600,0.717
54.8000,0.687
54.8400,0.739
54.8800,0.744
54.9200,0.735
54.9600,0.701
55.0000,0.692
55.0400,0.737
55.0800,0.707
55.1200,0.667
55.1600,0.691
55.2000,0.703
55.2400,0.702
55.2800,0.711
55.3200,0.683
55.3600,0.723
55.4000,0.723
55.4400,0.659
55.4800,0.710
55.5200,0.717
55.5600,0.708
55.6000,0.684
55.6400,0.706
55.6800,0.675
55.7200,0.686
55.7600,0.682
55.8000,0.679
55.8400,0.688
55.8800,0.712
55.9200,0.718
55.9600,0.670
56.0000,0.708
56.0400,0.720
56.0800,0.715
56.1200,0.702
56.1600,0.723
56.2000,0.676
56.2400,0.673
56.2800,0.680
56.3200,0.660
56.3600,0.716
56.4000,0.752
56.4400,0.670
56.4800,0.653
56.5200,0.682
56.5600,0.671
56.6000,0.630
56.6400,0.663
56.6800,0.707
56.7200,0.626
56.7600,0.686
56.8000,0.676
56.8400,0.623
56.8800,0.697
56.9200,0.650
56.9600,0.608
57.0000,0.707
57.0400,0.670
57.0800,0.680
57.1200,0.667
57.1600,0.657
57.2000,0.663
57.2400,0.644
57.2800,0.647
57.3200,0.661
57.3600,0.645
57.4000,0.641
57.4400,0.670
57.4800,0.689
57.5200,0.691
57.5600,0.650
57.6000,0.674
57.6400,0.683
57.6800,0.632
57.7200,0.609
57.7600,0.642
57.8000,0.645
57.8400,0.646
57.8800,0.648
57.9200,0.647
57.9600,0.683
58.0000,0.696
58.0400,0.636
58.0800,0.620
58.1200,0.663
58.1600,0.598
58.2000,0.647
58.2400,0.633
58.2800,0.635
58.3200,0.623
58.3600,0.622
58.4000,0.634
58.4400,0.648
58.4800,0.590
58.5200,0.621
58.5600,0.588
58.6000,0.639
58.6400,0.601
58.6800,0.609
58.7200,0.616
58.7600,0.630
58.8000,0.635
58.8400,0.598
58.8800,0.596
58.9200,0.603
58.9600,0.649
59.0000,0.639
59.0400,0.634
59.0800,0.620
59.1200,0.632
59.1600,0.626
59.2000,0.628
59.2400,0.659
59.2800,0.664
59.3200,0.629
59.3600,0.649
59.4000,0.603
59.4400,0.651
59.4800,0.643
59.5200,0.606
59.5600,0.658
59.6000,0.615
59.6400,0.578
59.6800,0.593
59.7200,0.578
59.7600,0.637
59.8000,0.575
59.8400,0.602
59.8800,0.616
59.9200,0.643
59.9600,0.606
60.0000,0.638
60.0400,0.616
60.0800,0.641
60.1200,0.583
60.1600,0.621
60.2000,0.601
60.2400,0.611
60.2800,0.638
60.3200,0.665
60.3600,0.634
60.4000,0.653
60.4400,0.659
60.4800,0.641
60.5200,0.637
60.5600,0.669
60.6000,0.684
60.6400,0.701
60.6800,0.691
60.7200,0.749
60.7600,0.673
60.8000,0.678
60.8400,0.692
60.8800,0.671
60.9200,0.669
60.9600,0.651
61.0000,0.649
61.0400,0.639
61.0800,0.679
61.1200,0.627
61.1600,0.614
61.2000,0.601
61.2400,0.665
61.2800,0.587
61.3200,0.604
61.3600,0.591
61.4000,0.608
61.4400,0.581
61.4800,0.610
61.5200,0.596
61.5600,0.562
61.6000,0.598
61.6400,0.596
61.6800,0.647
61.7200,0.665
61.7600,0.701
61.8000,0.640
61.8400,0.612
61.8800,0.604
61.9200,0.575
61.9600,0.576
62.0000,0.584
62.0400,0.580
62.0800,0.614
62.1200,0.548
62.1600,0.595
62.2000,0.613
62.2400,0.587
62.2800,0.590
62.3200,0.607
62.3600,0.580
62.4000,0.552
62.4400,0.581
62.4800,0.579
62.5200,0.603
62.5600,0.572
62.6000,0.607
62.6400,0.579
62.6800,0.540
62.7200,0.546
62.7600,0.545
62.8000,0.614
62.8400,0.568
62.8800,0.538
62.9200,0.592
62.9600,0.568
63.0000,0.593
63.0400,0.603
63.0800,0.589
63.1200,0.589
63.1600,0.607
63.2000,0.609
63.2400,0.633
63.2800,0.618
63.3200,0.617
63.3600,0.578
63.4000,0.594
63.4400,0.591
63.4800,0.625
63.5200,0.606
63.5600,0.607
63.6000,0.605
63.6400,0.629
63.6800,0.686
63.7200,0.639
63.7600,0.673
63.8000,0.700
63.8400,0.728
63.8800,0.733
63.9200,0.753
63.9600,0.780
64.0000,0.814
64.0400,0.864
64.0800,0.931
64.1200,0.936
64.1600,0.997
64.2000,1.098
64.2400,1.227
64.2800,1.346
64.3200,1.385
64.3600,1.403
64.4000,1.471
64.4400,1.464
64.4800,1.413
64.5200,1.316
64.5600,1.316
64.6000,1.201
64.6400,1.082
64.6800,0.977
64.7200,1.019
64.7600,0.962
64.8000,0.893
64.8400,0.877
64.8800,0.800
64.9200,0.738
64.9600,0.784
65.0000,0.770
65.0400,0.724
65.0800,0.770
65.1200,0.674
65.1600,0.672
65.2000,0.681
65.2400,0.679
65.2800,0.738
65.3200,0.684
65.3600,0.689
65.4000,0.675
65.4400,0.683
65.4800,0.676
65.5200,0.671
65.5600,0.687
65.6000,0.706
65.6400,0.717
65.6800,0.705
65.7200,0.692
65.7600,0.698
65.8000,0.673
65.8400,0.719
65.8800,0.700
65.9200,0.697
65.9600,0.707
66.0000,0.756
66.0400,0.743
66.0800,0.720
66.1200,0.682
66.1600,0.757
66.2000,0.737
66.2400,0.723
66.2800,0.784
66.3200,0.760
66.3600,0.771
66.4000,0.803
66.4400,0.790
66.4800,0.740
66.5200,0.812
66.5600,0.870
66.6000,0.792
66.6400,0.876
66.6800,0.871
66.7200,0.843
66.7600,0.886
66.8000,0.884
66.8400,0.892
66.8800,0.911
66.9200,0.910
66.9600,0.925
67.0000,0.865
67.0400,0.948
67.0800,0.984
67.1200,1.012
67.1600,0.973
67.2000,0.963
67.2400,1.002
67.2800,1.040
67.3200,1.020
67.3600,1.058
67.4000,1.111
67.4400,1.124
67.4800,1.118
67.5200,1.136
67.5600,1.175
67.6000,1.223
67.6400,1.221
67.6800,1.282
67.7200,1.240
67.7600,1.348
67.8000,1.415
67.8400,1.384
67.8800,1.391
67.9200,1.421
67.9600,1.467
68.0000,1.500
68.0400,1.518
68.0800,1.586
68.1200,1.611
68.1600,1.716
68.2000,1.721
68.2400,1.711
68.2800,1.751
68.3200,1.803
68.3600,1.845
68.4000,1.968
68.4400,2.006
68.4800,2.113
68.5200,2.261
68.5600,2.287
68.6000,2.536
68.6400,2.599
68.6800,2.717
68.7200,2.929
68.7600,3.201
68.8000,3.915
68.8400,4.944
68.8800,6.178
68.9200,6.965
68.9600,7.061
69.0000,7.221
69.0400,8.917
69.0800,12.730
69.1200,22.314
69.1600,67.358
69.2000,309.997
69.2400,468.035
69.2800,226.868
69.3200,56.590
69.3600,57.115
69.4000,176.537
69.4400,238.683
69.4800,111.506
69.5200,28.255
69.5600,13.095
69.6000,9.082
69.6400,7.117
69.6800,5.790
69.7200,4.888
69.7600,4.399
69.8000,3.904
69.8400,3.686
69.8800,3.276
69.9200,3.059
69.9600,2.836
70.0000,2.770
70.0400,2.638
70.0800,2.585
70.1200,2.370
70.1600,2.344
70.2000,2.305
70.2400,2.214
70.2800,2.137
70.3200,2.099
70.3600,1.971
70.4000,1.882
70.4400,1.866
70.4800,1.876
70.5200,1.732
70.5600,1.681
70.6000,1.682
70.6400,1.588
70.6800,1.545
70.7200,1.562
70.7600,1.495
70.8000,1.452
70.8400,1.368
70.8800,1.402
70.9200,1.370
70.9600,1.327
71.0000,1.262
71.0400,1.235
71.0800,1.244
71.1200,1.166
71.1600,1.153
71.2000,1.156
71.2400,1.142
71.2800,1.114
71.3200,1.057
71.3600,1.080
71.4000,1.069
71.4400,0.930
71.4800,0.994
71.5200,0.992
71.5600,0.901
71.6000,0.926
71.6400,0.919
71.6800,0.887
71.7200,0.932
71.7600,0.888
71.8000,0.835
71.8400,0.838
71.8800,0.833
71.9200,0.827
71.9600,0.820
72.0000,0.760
72.0400,0.762
72.0800,0.722
72.1200,0.724
72.1600,0.745
72.2000,0.725
72.2400,0.723
72.2800,0.697
72.3200,0.735
72.3600,0.679
72.4000,0.677
72.4400,0.663
72.4800,0.656
72.5200,0.610
72.5600,0.606
72.6000,0.681
72.6400,0.619
72.6800,0.623
72.7200,0.584
72.7600,0.588
72.8000,0.575
72.8400,0.619
72.8800,0.547
72.9200,0.560
72.9600,0.552
73.0000,0.549
73.0400,0.565
73.0800,0.560
73.1200,0.588
73.1600,0.531
73.2000,0.540
73.2400,0.533
73.2800,0.523
73.3200,0.518
73.3600,0.507
73.4000,0.493
73.4400,0.488
73.4800,0.527
73.5200,0.481
73.5600,0.520
73.6000,0.510
73.6400,0.508
73.6800,0.501
73.7200,0.494
73.7600,0.497
73.8000,0.510
73.8400,0.510
73.8800,0.484
73.9200,0.437
73.9600,0.416
74.0000,0.454
74.0400,0.467
74.0800,0.470
74.1200,0.485
74.1600,0.478
74.2000,0.458
74.2400,0.465
74.2800,0.442
74.3200,0.435
74.3600,0.433
74.4000,0.437
74.4400,0.441
74.4800,0.427
74.5200,0.478
74.5600,0.465
74.6000,0.411
74.6400,0.460
74.6800,0.427
74.7200,0.428
74.7600,0.430
74.8000,0.466
74.8400,0.433
74.8800,0.452
74.9200,0.462
74.9600,0.415
75.0000,0.415
75.0400,0.455
75.0800,0.434
75.1200,0.431
75.1600,0.432
75.2000,0.409
75.2400,0.433
75.2800,0.457
75.3200,0.416
75.3600,0.428
75.4000,0.416
75.4400,0.461
75.4800,0.449
75.5200,0.436
75.5600,0.452
75.6000,0.457
75.6400,0.445
75.6800,0.460
75.7200,0.440
75.7600,0.475
75.8000,0.491
75.8400,0.489
75.8800,0.464
75.9200,0.487
75.9600,0.465
76.0000,0.501
76.0400,0.462
76.0800,0.489
76.1200,0.478
76.1600,0.458
76.2000,0.493
76.2400,0.544
76.2800,0.509
76.3200,0.488
76.3600,0.499
76.4000,0.495
76.4400,0.499
76.4800,0.479
76.5200,0.527
76.5600,0.538
76.6000,0.551
76.6400,0.584
76.6800,0.655
76.7200,0.642
76.7600,0.658
76.8000,0.751
76.8400,0.778
76.8800,0.814
76.9200,0.914
76.9600,0.891
77.0000,0.970
77.0400,1.084
77.0800,1.112
77.1200,1.046
77.1600,1.095
77.2000,1.061
77.2400,1.028
77.2800,1.066
77.3200,0.957
77.3600,0.958
77.4000,0.827
77.4400,0.749
77.4800,0.746
77.5200,0.697
77.5600,0.677
77.6000,0.674
77.6400,0.594
77.6800,0.600
77.7200,0.582
77.7600,0.545
77.8000,0.513
77.8400,0.530
77.8800,0.500
77.9200,0.501
77.9600,0.475
78.0000,0.490
78.0400,0.476
78.0800,0.454
78.1200,0.444
78.1600,0.415
78.2000,0.498
78.2400,0.476
78.2800,0.464
78.3200,0.519
78.3600,0.485
78.4000,0.524
78.4400,0.516
78.4800,0.473
78.5200,0.465
78.5600,0.478
78.6000,0.533
78.6400,0.501
78.6800,0.546
78.7200,0.562
78.7600,0.509
78.8000,0.532
78.8400,0.495
78.8800,0.537
78.9200,0.542
78.9600,0.579
79.0000,0.522
79.0400,0.535
79.0800,0.495
79.1200,0.501
79.1600,0.516
79.2000,0.510
79.2400,0.522
79.2800,0.478
79.3200,0.500
79.3600,0.490
79.4000,0.492
79.4400,0.490
79.4800,0.460
79.5200,0.435
79.5600,0.414
79.6000,0.433
79.6400,0.443
79.6800,0.399
79.7200,0.412
79.7600,0.384
79.8000,0.402
79.8400,0.375
79.8800,0.352
79.9200,0.376
79.9600,0.378
80.0000,0.384
