theta,intensity
5.0000,4.265
5.0400,4.211
5.0800,4.199
5.1200,4.189
5.1600,4.362
5.2000,4.304
5.2400,4.348
5.2800,4.264
5.3200,4.242
5.3600,4.328
5.4000,4.338
5.4400,4.414
5.4800,4.242
5.5200,4.172
5.5600,4.234
5.6000,4.188
5.6400,4.105
5.6800,4.161
5.7200,4.040
5.7600,4.221
5.8000,4.201
5.8400,4.189
5.8800,4.119
5.9200,4.147
5.9600,4.141
6.0000,4.092
6.0400,3.926
6.0800,3.966
6.1200,4.007
6.1600,3.926
6.2000,3.919
6.2400,3.829
6.2800,3.885
6.3200,3.880
6.3600,3.877
6.4000,3.908
6.4400,3.861
6.4800,3.753
6.5200,3.869
6.5600,3.875
6.6000,3.870
6.6400,3.790
6.6800,3.989
6.7200,3.719
6.7600,3.867
6.8000,3.807
6.8400,3.691
6.8800,3.731
6.9200,3.859
6.9600,3.888
7.0000,3.809
7.0400,3.844
7.0800,3.866
7.1200,3.823
7.1600,3.777
7.2000,3.691
7.2400,3.714
7.2800,3.767
7.3200,3.722
7.3600,3.710
7.4000,3.718
7.4400,3.793
7.4800,3.840
7.5200,3.729
7.5600,3.726
7.6000,3.706
7.6400,3.666
7.6800,3.798
7.7200,3.701
7.7600,3.717
7.8000,3.787
7.8400,3.719
7.8800,3.710
7.9200,3.729
7.9600,3.701
8.0000,3.719
8.0400,3.752
8.0800,3.712
8.1200,3.536
8.1600,3.648
8.2000,3.580
8.2400,3.658
8.2800,3.694
8.3200,3.694
8.3600,3.627
8.4000,3.657
8.4400,3.712
8.4800,3.691
8.5200,3.628
8.5600,3.654
8.6000,3.610
8.6400,3.503
8.6800,3.560
8.7200,3.652
8.7600,3.724
8.8000,3.564
8.8400,3.637
8.8800,3.565
8.9200,3.698
8.9600,3.557
9.0000,3.578
9.0400,3.632
9.0800,3.571
9.1200,3.684
9.1600,3.587
9.2000,3.616
9.2400,3.660
9.2800,3.557
9.3200,3.585
9.3600,3.533
9.4000,3.639
9.4400,3.405
9.4800,3.604
9.5200,3.622
9.5600,3.567
9.6000,3.547
9.6400,3.498
9.6800,3.580
9.7200,3.543
9.7600,3.363
9.8000,3.473
9.8400,3.504
9.8800,3.450
9.9200,3.450
9.9600,3.459
10.0000,3.593
10.0400,3.589
10.0800,3.568
10.1200,3.444
10.1600,3.617
10.2000,3.476
10.2400,3.419
10.2800,3.438
10.3200,3.342
10.3600,3.438
10.4000,3.490
10.4400,3.480
10.4800,3.472
10.5200,3.465
10.5600,3.476
10.6000,3.471
10.6400,3.481
10.6800,3.408
10.7200,3.359
10.7600,3.440
10.8000,3.344
10.8400,3.508
10.8800,3.401
10.9200,3.389
10.9600,3.438
11.0000,3.376
11.0400,3.419
11.0800,3.448
11.1200,3.426
11.1600,3.357
11.2000,3.384
11.2400,3.418
11.2800,3.438
11.3200,3.296
11.3600,3.395
11.4000,3.353
11.4400,3.347
11.4800,3.306
11.5200,3.325
11.5600,3.328
11.6000,3.401
11.6400,3.301
11.6800,3.303
11.7200,3.309
11.7600,3.322
11.8000,3.258
11.8400,3.272
11.8800,3.239
11.9200,3.370
11.9600,3.310
12.0000,3.240
12.0400,3.269
12.0800,3.264
12.1200,3.320
12.1600,3.231
12.2000,3.311
12.2400,3.231
12.2800,3.325
12.3200,3.238
12.3600,3.224
12.4000,3.332
12.4400,3.299
12.4800,3.207
12.5200,3.298
12.5600,3.235
12.6000,3.270
12.6400,3.356
12.6800,3.225
12.7200,3.242
12.7600,3.119
12.8000,3.278
12.8400,3.320
12.8800,3.238
12.9200,3.224
12.9600,3.215
13.0000,3.273
13.0400,3.186
13.0800,3.122
13.1200,3.310
13.1600,3.181
13.2000,3.199
13.2400,3.155
13.2800,3.291
13.3200,3.199
13.3600,3.112
13.4000,3.217
13.4400,3.133
13.4800,3.086
13.5200,3.129
13.5600,3.214
13.6000,3.128
13.6400,3.008
13.6800,3.086
13.7200,3.045
13.7600,3.090
13.8000,3.132
13.8400,3.140
13.8800,3.131
13.9200,3.254
13.9600,3.054
14.0000,3.101
14.0400,3.135
14.0800,3.052
14.1200,3.179
14.1600,3.131
14.2000,3.100
14.2400,3.193
14.2800,3.044
14.3200,3.050
14.3600,3.193
14.4000,3.140
14.4400,3.155
14.4800,3.155
14.5200,3.064
14.5600,3.055
14.6000,3.148
14.6400,3.070
14.6800,3.075
14.7200,2.971
14.7600,3.040
14.8000,3.029
14.8400,3.179
14.8800,3.123
14.9200,3.140
14.9600,3.053
15.0000,3.103
15.0400,3.069
15.0800,3.061
15.1200,2.971
15.1600,3.031
15.2000,3.051
15.2400,3.039
15.2800,2.982
15.3200,3.105
15.3600,3.090
15.4000,3.039
15.4400,2.956
15.4800,3.032
15.5200,2.969
15.5600,2.916
15.6000,2.967
15.6400,3.007
15.6800,3.051
15.7200,3.018
15.7600,3.082
15.8000,2.870
15.8400,2.979
15.8800,2.995
15.9200,2.914
15.9600,2.903
16.0000,2.979
16.0400,2.978
16.0800,2.922
16.1200,2.859
16.1600,2.851
16.2000,2.903
16.2400,2.950
16.2800,2.931
16.3200,2.980
16.3600,2.968
16.4000,2.902
16.4400,2.919
16.4800,2.925
16.5200,2.867
16.5600,2.960
16.6000,2.990
16.6400,2.941
16.6800,2.907
16.7200,2.843
16.7600,2.824
16.8000,2.933
16.8400,2.873
16.8800,2.871
16.9200,2.744
16.9600,2.885
17.0000,2.903
17.0400,2.829
17.0800,2.984
17.1200,2.916
17.1600,2.763
17.2000,2.852
17.2400,2.939
17.2800,2.856
17.3200,2.855
17.3600,2.829
17.4000,2.813
17.4400,2.822
17.4800,2.855
17.5200,2.789
17.5600,2.854
17.6000,2.868
17.6400,2.752
17.6800,2.843
17.7200,2.745
17.7600,2.842
17.8000,2.847
17.8400,2.780
17.8800,2.763
17.9200,2.741
17.9600,2.776
18.0000,2.746
18.0400,2.790
18.0800,2.767
18.1200,2.760
18.1600,2.702
18.2000,2.826
18.2400,2.833
18.2800,2.746
18.3200,2.732
18.3600,2.821
18.4000,2.704
18.4400,2.804
18.4800,2.794
18.5200,2.792
18.5600,2.693
18.6000,2.706
18.6400,2.671
18.6800,2.741
18.7200,2.770
18.7600,2.699
18.8000,2.692
18.8400,2.593
18.8800,2.666
18.9200,2.731
18.9600,2.651
19.0000,2.594
19.0400,2.630
19.0800,2.713
19.1200,2.768
19.1600,2.715
19.2000,2.713
19.2400,2.681
19.2800,2.648
19.3200,2.616
19.3600,2.751
19.4000,2.619
19.4400,2.669
19.4800,2.682
19.5200,2.759
19.5600,2.726
19.6000,2.751
19.6400,2.751
19.6800,2.738
19.7200,2.730
19.7600,2.651
19.8000,2.640
19.8400,2.636
19.8800,2.641
19.9200,2.599
19.9600,2.664
20.0000,2.661
20.0400,2.653
20.0800,2.637
20.1200,2.682
20.1600,2.683
20.2000,2.722
20.2400,2.713
20.2800,2.616
20.3200,2.533
20.3600,2.584
20.4000,2.587
20.4400,2.547
20.4800,2.541
20.5200,2.529
20.5600,2.622
20.6000,2.586
20.6400,2.676
20.6800,2.624
20.7200,2.627
20.7600,2.596
20.8000,2.652
20.8400,2.572
20.8800,2.553
20.9200,2.546
20.9600,2.598
21.0000,2.558
21.0400,2.563
21.0800,2.599
21.1200,2.514
21.1600,2.522
21.2000,2.579
21.2400,2.538
21.2800,2.468
21.3200,2.519
21.3600,2.578
21.4000,2.571
21.4400,2.515
21.4800,2.442
21.5200,2.506
21.5600,2.507
21.6000,2.449
21.6400,2.456
21.6800,2.539
21.7200,2.459
21.7600,2.460
21.8000,2.565
21.8400,2.517
21.8800,2.421
21.9200,2.470
21.9600,2.477
22.0000,2.474
22.0400,2.451
22.0800,2.460
22.1200,2.418
22.1600,2.434
22.2000,2.488
22.2400,2.438
22.2800,2.478
22.3200,2.384
22.3600,2.457
22.4000,2.450
22.4400,2.481
22.4800,2.415
22.5200,2.436
22.5600,2.358
22.6000,2.386
22.6400,2.394
22.6800,2.338
22.7200,2.334
22.7600,2.361
22.8000,2.458
22.8400,2.430
22.8800,2.427
22.9200,2.353
22.9600,2.317
23.0000,2.369
23.0400,2.423
23.0800,2.428
23.1200,2.377
23.1600,2.471
23.2000,2.393
23.2400,2.385
23.2800,2.350
23.3200,2.465
23.3600,2.282
23.4000,2.325
23.4400,2.403
23.4800,2.277
23.5200,2.359
23.5600,2.320
23.6000,2.274
23.6400,2.335
23.6800,2.411
23.7200,2.360
23.7600,2.360
23.8000,2.320
23.8400,2.340
23.8800,2.344
23.9200,2.337
23.9600,2.405
24.0000,2.335
24.0400,2.222
24.0800,2.279
24.1200,2.262
24.1600,2.286
24.2000,2.317
24.2400,2.283
24.2800,2.196
24.3200,2.338
24.3600,2.266
24.4000,2.302
24.4400,2.274
24.4800,2.250
24.5200,2.252
24.5600,2.179
24.6000,2.246
24.6400,2.307
24.6800,2.265
24.7200,2.218
24.7600,2.252
24.8000,2.210
24.8400,2.140
24.8800,2.220
24.9200,2.199
24.9600,2.198
25.0000,2.186
25.0400,2.219
25.0800,2.174
25.1200,2.255
25.1600,2.261
25.2000,2.069
25.2400,2.149
25.2800,2.195
25.3200,2.106
25.3600,2.155
25.4000,2.189
25.4400,2.190
25.4800,2.237
25.5200,2.279
25.5600,2.221
25.6000,2.254
25.6400,2.263
25.6800,2.198
25.7200,2.202
25.7600,2.151
25.8000,2.222
25.8400,2.129
25.8800,2.157
25.9200,2.105
25.9600,2.203
26.0000,2.128
26.0400,2.127
26.0800,2.169
26.1200,2.116
26.1600,2.160
26.2000,2.067
26.2400,2.050
26.2800,2.068
26.3200,2.129
26.3600,2.131
26.4000,2.171
26.4400,2.087
26.4800,2.169
26.5200,2.091
26.5600,2.068
26.6000,2.093
26.6400,2.087
26.6800,2.137
26.7200,2.075
26.7600,2.091
26.8000,2.055
26.8400,2.116
26.8800,2.053
26.9200,2.095
26.9600,2.071
27.0000,2.026
27.0400,1.985
27.0800,2.074
27.1200,2.056
27.1600,2.100
27.2000,2.017
27.2400,1.984
27.2800,1.923
27.3200,1.934
27.3600,2.008
27.4000,2.049
27.4400,2.003
27.4800,2.082
27.5200,2.070
27.5600,2.056
27.6000,2.007
27.6400,2.072
27.6800,1.983
27.7200,1.994
27.7600,1.983
27.8000,1.960
27.8400,2.075
27.8800,1.944
27.9200,2.012
27.9600,1.971
28.0000,1.946
28.0400,1.899
28.0800,1.897
28.1200,2.002
28.1600,1.968
28.2000,1.981
28.2400,1.997
28.2800,2.048
28.3200,1.943
28.3600,1.920
28.4000,1.989
28.4400,1.956
28.4800,1.898
28.5200,1.880
28.5600,1.937
28.6000,1.943
28.6400,1.889
28.6800,1.980
28.7200,1.948
28.7600,1.893
28.8000,1.950
28.8400,1.925
28.8800,1.848
28.9200,1.869
28.9600,1.947
29.0000,1.887
29.0400,1.908
29.0800,1.896
29.1200,1.872
29.1600,1.899
29.2000,1.826
29.2400,1.834
29.2800,1.922
29.3200,1.863
29.3600,1.929
29.4000,1.885
29.4400,1.820
29.4800,1.897
29.5200,1.853
29.5600,1.817
29.6000,1.920
29.6400,1.956
29.6800,1.865
29.7200,1.858
29.7600,1.793
29.8000,1.884
29.8400,1.896
29.8800,1.853
29.9200,1.794
29.9600,1.830
30.0000,1.908
30.0400,1.845
30.0800,1.828
30.1200,1.821
30.1600,1.840
30.2000,1.817
30.2400,1.816
30.2800,1.835
30.3200,1.789
30.3600,1.855
30.4000,1.826
30.4400,1.737
30.4800,1.784
30.5200,1.839
30.5600,1.788
30.6000,1.810
30.6400,1.767
30.6800,1.822
30.7200,1.819
30.7600,1.762
30.8000,1.771
30.8400,1.774
30.8800,1.822
30.9200,1.776
30.9600,1.777
31.0000,1.727
31.0400,1.706
31.0800,1.722
31.1200,1.749
31.1600,1.811
31.2000,1.780
31.2400,1.791
31.2800,1.684
31.3200,1.744
31.3600,1.752
31.4000,1.800
31.4400,1.750
31.4800,1.759
31.5200,1.669
31.5600,1.733
31.6000,1.740
31.6400,1.696
31.6800,1.698
31.7200,1.707
31.7600,1.640
31.8000,1.718
31.8400,1.690
31.8800,1.697
31.9200,1.702
31.9600,1.748
32.0000,1.673
32.0400,1.721
32.0800,1.675
32.1200,1.695
32.1600,1.786
32.2000,1.678
32.2400,1.630
32.2800,1.627
32.3200,1.634
32.3600,1.684
32.4000,1.621
32.4400,1.629
32.4800,1.704
32.5200,1.718
32.5600,1.699
32.6000,1.704
32.6400,1.655
32.6800,1.699
32.7200,1.636
32.7600,1.633
32.8000,1.649
32.8400,1.625
32.8800,1.650
32.9200,1.637
32.9600,1.615
33.0000,1.601
33.0400,1.728
33.0800,1.942
33.1200,1.724
33.1600,1.536
33.2000,1.594
33.2400,1.588
33.2800,1.620
33.3200,1.628
33.3600,1.572
33.4000,1.610
33.4400,1.658
33.4800,1.648
33.5200,1.500
33.5600,1.598
33.6000,1.567
33.6400,1.667
33.6800,1.569
33.7200,1.598
33.7600,1.542
33.8000,1.530
33.8400,1.577
33.8800,1.585
33.9200,1.535
33.9600,1.510
34.0000,1.536
34.0400,1.630
34.0800,1.592
34.1200,1.566
34.1600,1.590
34.2000,1.540
34.2400,1.562
34.2800,1.617
34.3200,1.599
34.3600,1.515
34.4000,1.582
34.4400,1.532
34.4800,1.574
34.5200,1.616
34.5600,1.572
34.6000,1.550
34.6400,1.547
34.6800,1.499
34.7200,1.512
34.7600,1.533
34.8000,1.543
34.8400,1.514
34.8800,1.527
34.9200,1.519
34.9600,1.489
35.0000,1.422
35.0400,1.525
35.0800,1.527
35.1200,1.479
35.1600,1.482
35.2000,1.562
35.2400,1.457
35.2800,1.472
35.3200,1.471
35.3600,1.486
35.4000,1.471
35.4400,1.515
35.4800,1.497
35.5200,1.524
35.5600,1.539
35.6000,1.534
35.6400,1.523
35.6800,1.509
35.7200,1.476
35.7600,1.519
35.8000,1.474
35.8400,1.448
35.8800,1.447
35.9200,1.470
35.9600,1.479
36.0000,1.476
36.0400,1.417
36.0800,1.419
36.1200,1.502
36.1600,1.434
36.2000,1.509
36.2400,1.471
36.2800,1.454
36.3200,1.486
36.3600,1.454
36.4000,1.463
36.4400,1.531
36.4800,1.462
36.5200,1.492
36.5600,1.446
36.6000,1.402
36.6400,1.493
36.6800,1.473
36.7200,1.496
36.7600,1.475
36.8000,1.490
36.8400,1.496
36.8800,1.497
36.9200,1.441
36.9600,1.444
37.0000,1.447
37.0400,1.453
37.0800,1.414
37.1200,1.462
37.1600,1.470
37.2000,1.506
37.2400,1.485
37.2800,1.479
37.3200,1.477
37.3600,1.512
37.4000,1.502
37.4400,1.437
37.4800,1.472
37.5200,1.484
37.5600,1.534
37.6000,1.552
37.6400,1.541
37.6800,1.512
37.7200,1.564
37.7600,1.563
37.8000,1.502
37.8400,1.531
37.8800,1.599
37.9200,1.626
37.9600,1.583
38.0000,1.697
38.0400,1.613
38.0800,1.666
38.1200,1.718
38.1600,1.781
38.2000,1.841
38.2400,1.931
38.2800,2.020
38.3200,2.193
38.3600,2.231
38.4000,2.460
38.4400,2.565
38.4800,2.985
38.5200,3.528
38.5600,4.186
38.6000,5.142
38.6400,6.747
38.6800,9.067
38.7200,12.129
38.7600,16.585
38.8000,20.391
38.8400,21.955
38.8800,21.997
38.9200,19.778
38.9600,16.465
39.0000,12.462
39.0400,9.495
39.0800,7.093
39.1200,5.426
39.1600,4.277
39.2000,3.710
39.2400,3.088
39.2800,2.764
39.3200,2.460
39.3600,2.340
39.4000,2.246
39.4400,1.987
39.4800,1.912
39.5200,1.868
39.5600,1.818
39.6000,1.751
39.6400,1.648
39.6800,1.650
39.7200,1.570
39.7600,1.534
39.8000,1.553
39.8400,1.547
39.8800,1.477
39.9200,1.488
39.9600,1.524
40.0000,1.341
40.0400,1.436
40.0800,1.357
40.1200,1.335
40.1600,1.408
40.2000,1.353
40.2400,1.453
40.2800,1.341
40.3200,1.303
40.3600,1.294
40.4000,1.342
40.4400,1.302
40.4800,1.331
40.5200,1.340
40.5600,1.286
40.6000,1.256
40.6400,1.271
40.6800,1.257
40.7200,1.308
40.7600,1.286
40.8000,1.254
40.8400,1.198
40.8800,1.185
40.9200,1.265
40.9600,1.220
41.0000,1.217
41.0400,1.222
41.0800,1.209
41.1200,1.197
41.1600,1.234
41.2000,1.176
41.2400,1.141
41.2800,1.207
41.3200,1.164
41.3600,1.185
41.4000,1.186
41.4400,1.146
41.4800,1.189
41.5200,1.204
41.5600,1.172
41.6000,1.193
41.6400,1.198
41.6800,1.152
41.7200,1.162
41.7600,1.177
41.8000,1.215
41.8400,1.177
41.8800,1.151
41.9200,1.108
41.9600,1.222
42.0000,1.143
42.0400,1.164
42.0800,1.147
42.1200,1.134
42.1600,1.144
42.2000,1.152
42.2400,1.111
42.2800,1.110
42.3200,1.092
42.3600,1.170
42.4000,1.119
42.4400,1.148
42.4800,1.083
42.5200,1.172
42.5600,1.145
42.6000,1.116
42.6400,1.134
42.6800,1.128
42.7200,1.137
42.7600,1.096
42.8000,1.128
42.8400,1.078
42.8800,1.124
42.9200,1.098
42.9600,1.108
43.0000,1.121
43.0400,1.098
43.0800,1.070
43.1200,1.061
43.1600,1.078
43.2000,1.103
43.2400,1.089
43.2800,1.089
43.3200,1.088
43.3600,1.129
43.4000,1.119
43.4400,1.134
43.4800,1.107
43.5200,1.091
43.5600,1.132
43.6000,1.111
43.6400,1.055
43.6800,1.096
43.7200,1.167
43.7600,1.101
43.8000,1.138
43.8400,1.161
43.8800,1.139
43.9200,1.126
43.9600,1.129
44.0000,1.135
44.0400,1.125
44.0800,1.116
44.1200,1.160
44.1600,1.152
44.2000,1.099
44.2400,1.124
44.2800,1.191
44.3200,1.154
44.3600,1.254
44.4000,1.213
44.4400,1.231
44.4800,1.263
44.5200,1.258
44.5600,1.356
44.6000,1.400
44.6400,1.380
44.6800,1.457
44.7200,1.592
44.7600,1.661
44.8000,1.712
44.8400,1.978
44.8800,2.081
44.9200,2.262
44.9600,2.670
45.0000,3.050
45.0400,3.442
45.0800,4.021
45.1200,4.572
45.1600,5.206
45.2000,5.565
45.2400,5.784
45.2800,5.685
45.3200,5.386
45.3600,5.063
45.4000,4.344
45.4400,3.841
45.4800,3.286
45.5200,2.755
45.5600,2.393
45.6000,2.013
45.6400,1.772
45.6800,1.704
45.7200,1.641
45.7600,1.452
45.8000,1.396
45.8400,1.353
45.8800,1.276
45.9200,1.229
45.9600,1.187
46.0000,1.171
46.0400,1.134
46.0800,1.125
46.1200,1.082
46.1600,1.051
46.2000,1.063
46.2400,1.033
46.2800,0.993
46.3200,1.062
46.3600,1.023
46.4000,0.976
46.4400,1.013
46.4800,0.961
46.5200,0.966
46.5600,0.998
46.6000,0.937
46.6400,0.938
46.6800,1.004
46.7200,0.952
46.7600,0.982
46.8000,0.928
46.8400,0.985
46.8800,0.925
46.9200,0.950
46.9600,0.925
47.0000,0.933
47.0400,0.913
47.0800,0.918
47.1200,0.939
47.1600,0.924
47.2000,0.877
47.2400,0.868
47.2800,0.884
47.3200,0.861
47.3600,0.872
47.4000,0.937
47.4400,0.907
47.4800,0.832
47.5200,0.884
47.5600,0.910
47.6000,0.859
47.6400,0.875
47.6800,0.874
47.7200,0.869
47.7600,0.909
47.8000,0.910
47.8400,0.893
47.8800,0.847
47.9200,0.874
47.9600,0.866
48.0000,0.858
48.0400,0.919
48.0800,0.865
48.1200,0.842
48.1600,0.830
48.2000,0.830
48.2400,0.898
48.2800,0.890
48.3200,0.895
48.3600,0.872
48.4000,0.845
48.4400,0.812
48.4800,0.816
48.5200,0.854
48.5600,0.816
48.6000,0.829
48.6400,0.824
48.6800,0.830
48.7200,0.816
48.7600,0.853
48.8000,0.849
48.8400,0.784
48.8800,0.793
48.9200,0.830
48.9600,0.795
49.0000,0.795
49.0400,0.760
49.0800,0.822
49.1200,0.836
49.1600,0.784
49.2000,0.809
49.2400,0.786
49.2800,0.859
49.3200,0.806
49.3600,0.815
49.4000,0.835
49.4400,0.801
49.4800,0.807
49.5200,0.811
49.5600,0.823
49.6000,0.847
49.6400,0.818
49.6800,0.805
49.7200,0.751
49.7600,0.758
49.8000,0.773
49.8400,0.750
49.8800,0.785
49.9200,0.759
49.9600,0.761
50.0000,0.777
50.0400,0.764
50.0800,0.817
50.1200,0.795
50.1600,0.749
50.2000,0.811
50.2400,0.791
50.2800,0.711
50.3200,0.783
50.3600,0.796
50.4000,0.814
50.4400,0.815
50.4800,0.799
50.5200,0.815
50.5600,0.739
50.6000,0.757
50.6400,0.785
50.6800,0.758
50.7200,0.756
50.7600,0.776
50.8000,0.785
50.8400,0.765
50.8800,0.796
50.9200,0.742
50.9600,0.760
51.0000,0.734
51.0400,0.769
51.0800,0.785
51.1200,0.746
51.1600,0.750
51.2000,0.723
51.2400,0.742
51.2800,0.714
51.3200,0.763
51.3600,0.784
51.4000,0.713
51.4400,0.760
51.4800,0.787
51.5200,0.746
51.5600,0.783
51.6000,0.743
51.6400,0.715
51.6800,0.658
51.7200,0.716
51.7600,0.713
51.8000,0.706
51.8400,0.723
51.8800,0.730
51.9200,0.656
51.9600,0.763
52.0000,0.700
52.0400,0.721
52.0800,0.726
52.1200,0.713
52.1600,0.694
52.2000,0.745
52.2400,0.707
52.2800,0.701
52.3200,0.703
52.3600,0.694
52.4000,0.713
52.4400,0.675
52.4800,0.741
52.5200,0.672
52.5600,0.710
52.6000,0.697
52.6400,0.741
52.6800,0.710
52.7200,0.715
52.7600,0.723
52.8000,0.680
52.8400,0.701
52.8800,0.712
52.9200,0.705
52.9600,0.664
53.0000,0.683
53.0400,0.702
53.0800,0.713
53.1200,0.664
53.1600,0.720
53.2000,0.745
53.2400,0.721
53.2800,0.716
53.3200,0.669
53.3600,0.672
53.4000,0.726
53.4400,0.713
53.4800,0.709
53.5200,0.678
53.5600,0.659
53.6000,0.659
53.6400,0.695
53.6800,0.685
53.7200,0.676
53.7600,0.706
53.8000,0.682
53.8400,0.691
53.8800,0.640
53.9200,0.665
53.9600,0.723
54.0000,0.665
54.0400,0.689
54.0800,0.676
54.1200,0.675
54.1600,0.712
54.2000,0.662
54.2400,0.699
54.2800,0.701
54.3200,0.665
54.3600,0.658
54.4000,0.675
54.4400,0.696
54.4800,0.649
54.5200,0.637
54.5600,0.678
54.6000,0.653
54.6400,0.639
54.6800,0.629
54.7200,0.700
54.7600,0.638
54.8000,0.665
54.8400,0.685
54.8800,0.625
54.9200,0.640
54.9600,0.638
55.0000,0.658
55.0400,0.665
55.0800,0.627
55.1200,0.642
55.1600,0.621
55.2000,0.636
55.2400,0.653
55.2800,0.667
55.3200,0.654
55.3600,0.653
55.4000,0.635
55.4400,0.653
55.4800,0.664
55.5200,0.675
55.5600,0.603
55.6000,0.670
55.6400,0.630
55.6800,0.618
55.7200,0.671
55.7600,0.675
55.8000,0.648
55.8400,0.662
55.8800,0.625
55.9200,0.673
55.9600,0.641
56.0000,0.650
56.0400,0.628
56.0800,0.678
56.1200,0.569
56.1600,0.627
56.2000,0.636
56.2400,0.639
56.2800,0.609
56.3200,0.629
56.3600,0.654
56.4000,0.656
56.4400,0.685
56.4800,0.609
56.5200,0.634
56.5600,0.645
56.6000,0.629
56.6400,0.628
56.6800,0.635
56.7200,0.686
56.7600,0.652
56.8000,0.637
56.8400,0.650
56.8800,0.619
56.9200,0.586
56.9600,0.630
57.0000,0.652
57.0400,0.575
57.0800,0.640
57.1200,0.606
57.1600,0.607
57.2000,0.660
57.2400,0.565
57.2800,0.608
57.3200,0.629
57.3600,0.642
57.4000,0.635
57.4400,0.631
57.4800,0.642
57.5200,0.620
57.5600,0.630
57.6000,0.608
57.6400,0.604
57.6800,0.612
57.7200,0.556
57.7600,0.621
57.8000,0.590
57.8400,0.567
57.8800,0.626
57.9200,0.615
57.9600,0.594
58.0000,0.611
58.0400,0.651
58.0800,0.592
58.1200,0.660
58.1600,0.612
58.2000,0.616
58.2400,0.602
58.2800,0.577
58.3200,0.589
58.3600,0.616
58.4000,0.645
58.4400,0.615
58.4800,0.637
58.5200,0.583
58.5600,0.609
58.6000,0.596
58.6400,0.609
58.6800,0.567
58.7200,0.633
58.7600,0.616
58.8000,0.598
58.8400,0.594
58.8800,0.607
58.9200,0.559
58.9600,0.596
59.0000,0.608
59.0400,0.622
59.0800,0.602
59.1200,0.563
59.1600,0.576
59.2000,0.572
59.2400,0.556
59.2800,0.616
59.3200,0.580
59.3600,0.554
59.4000,0.561
59.4400,0.613
59.4800,0.585
59.5200,0.630
59.5600,0.608
59.6000,0.602
59.6400,0.557
59.6800,0.588
59.7200,0.609
59.7600,0.570
59.8000,0.582
59.8400,0.552
59.8800,0.599
59.9200,0.574
59.9600,0.547
60.0000,0.562
60.0400,0.577
60.0800,0.550
60.1200,0.597
60.1600,0.546
60.2000,0.545
60.2400,0.549
60.2800,0.569
60.3200,0.586
60.3600,0.562
60.4000,0.552
60.4400,0.520
60.4800,0.574
60.5200,0.543
60.5600,0.575
60.6000,0.568
60.6400,0.588
60.6800,0.549
60.7200,0.542
60.7600,0.549
60.8000,0.573
60.8400,0.546
60.8800,0.553
60.9200,0.556
60.9600,0.550
61.0000,0.518
61.0400,0.521
61.0800,0.540
61.1200,0.553
61.1600,0.550
61.2000,0.569
61.2400,0.562
61.2800,0.594
61.3200,0.583
61.3600,0.567
61.4000,0.552
61.4400,0.563
61.4800,0.564
61.5200,0.532
61.5600,0.490
61.6000,0.592
61.6400,0.582
61.6800,0.598
61.7200,0.658
61.7600,0.632
61.8000,0.545
61.8400,0.536
61.8800,0.564
61.9200,0.512
61.9600,0.550
62.0000,0.545
62.0400,0.525
62.0800,0.562
62.1200,0.536
62.1600,0.532
62.2000,0.552
62.2400,0.545
62.2800,0.542
62.3200,0.567
62.3600,0.564
62.4000,0.548
62.4400,0.534
62.4800,0.547
62.5200,0.517
62.5600,0.527
62.6000,0.520
62.6400,0.541
62.6800,0.540
62.7200,0.552
62.7600,0.505
62.8000,0.555
62.8400,0.527
62.8800,0.550
62.9200,0.548
62.9600,0.532
63.0000,0.571
63.0400,0.571
63.0800,0.511
63.1200,0.531
63.1600,0.591
63.2000,0.524
63.2400,0.542
63.2800,0.596
63.3200,0.518
63.3600,0.574
63.4000,0.567
63.4400,0.582
63.4800,0.531
63.5200,0.564
63.5600,0.583
63.6000,0.577
63.6400,0.532
63.6800,0.552
63.7200,0.525
63.7600,0.581
63.8000,0.556
63.8400,0.563
63.8800,0.555
63.9200,0.583
63.9600,0.555
64.0000,0.618
64.0400,0.581
64.0800,0.561
64.1200,0.541
64.1600,0.584
64.2000,0.572
64.2400,0.580
64.2800,0.568
64.3200,0.604
64.3600,0.558
64.4000,0.614
64.4400,0.603
64.4800,0.602
64.5200,0.631
64.5600,0.610
64.6000,0.564
64.6400,0.601
64.6800,0.582
64.7200,0.662
64.7600,0.677
64.8000,0.676
64.8400,0.653
64.8800,0.647
64.9200,0.673
64.9600,0.706
65.0000,0.702
65.0400,0.739
65.0800,0.767
65.1200,0.770
65.1600,0.793
65.2000,0.853
65.2400,0.905
65.2800,0.957
65.3200,0.970
65.3600,1.096
65.4000,1.127
65.4400,1.316
65.4800,1.526
65.5200,1.641
65.5600,1.880
65.6000,2.184
65.6400,2.491
65.6800,2.549
65.7200,2.813
65.7600,2.863
65.8000,2.928
65.8400,2.834
65.8800,2.794
65.9200,2.487
65.9600,2.292
66.0000,2.035
66.0400,1.802
66.0800,1.670
66.1200,1.530
66.1600,1.328
66.2000,1.256
66.2400,1.154
66.2800,1.096
66.3200,0.998
66.3600,1.006
66.4000,0.985
66.4400,0.945
66.4800,0.923
66.5200,0.895
66.5600,0.898
66.6000,0.923
66.6400,0.933
66.6800,0.899
66.7200,0.898
66.7600,0.918
66.8000,0.907
66.8400,0.907
66.8800,0.937
66.9200,0.948
66.9600,0.934
67.0000,0.960
67.0400,0.944
67.0800,0.952
67.1200,0.986
67.1600,1.007
67.2000,0.994
67.2400,1.016
67.2800,0.998
67.3200,1.067
67.3600,1.084
67.4000,1.086
67.4400,1.096
67.4800,1.090
67.5200,1.091
67.5600,1.141
67.6000,1.173
67.6400,1.104
67.6800,1.178
67.7200,1.219
67.7600,1.289
67.8000,1.278
67.8400,1.276
67.8800,1.307
67.9200,1.401
67.9600,1.407
68.0000,1.357
68.0400,1.486
68.0800,1.500
68.1200,1.508
68.1600,1.551
68.2000,1.668
68.2400,1.651
68.2800,1.715
68.3200,1.814
68.3600,1.806
68.4000,1.902
68.4400,1.863
68.4800,1.958
68.5200,2.128
68.5600,2.226
68.6000,2.406
68.6400,2.546
68.6800,2.760
68.7200,3.069
68.7600,3.811
68.8000,4.932
68.8400,5.983
68.8800,6.362
68.9200,6.375
68.9600,6.951
69.0000,9.131
69.0400,13.660
69.0800,26.270
69.1200,94.427
69.1600,359.186
69.2000,412.572
69.2400,159.851
69.2800,47.668
69.3200,69.319
69.3600,196.426
69.4000,208.603
69.4400,78.579
69.4800,21.571
69.5200,11.114
69.5600,7.630
69.6000,5.985
69.6400,5.074
69.6800,4.403
69.7200,3.884
69.7600,3.603
69.8000,3.080
69.8400,3.055
69.8800,2.858
69.9200,2.604
69.9600,2.392
70.0000,2.359
70.0400,2.253
70.0800,2.210
70.1200,2.066
70.1600,2.063
70.2000,1.930
70.2400,1.881
70.2800,1.796
70.3200,1.763
70.3600,1.699
70.4000,1.643
70.4400,1.585
70.4800,1.488
70.5200,1.449
70.5600,1.462
70.6000,1.391
70.6400,1.408
70.6800,1.349
70.7200,1.322
70.7600,1.279
70.8000,1.216
70.8400,1.147
70.8800,1.144
70.9200,1.125
70.9600,1.118
71.0000,1.099
71.0400,1.073
71.0800,1.094
71.1200,1.040
71.1600,1.044
71.2000,1.009
71.2400,1.011
71.2800,0.942
71.3200,0.987
71.3600,0.885
71.4000,0.861
71.4400,0.891
71.4800,0.886
71.5200,0.843
71.5600,0.844
71.6000,0.845
71.6400,0.778
71.6800,0.764
71.7200,0.753
71.7600,0.736
71.8000,0.727
71.8400,0.728
71.8800,0.742
71.9200,0.722
71.9600,0.725
72.0000,0.699
72.0400,0.722
72.0800,0.647
72.1200,0.672
72.1600,0.646
72.2000,0.671
72.2400,0.652
72.2800,0.614
72.3200,0.625
72.3600,0.635
72.4000,0.617
72.4400,0.567
72.4800,0.645
72.5200,0.589
72.5600,0.638
72.6000,0.604
72.6400,0.585
72.6800,0.590
72.7200,0.546
72.7600,0.522
72.8000,0.527
72.8400,0.586
72.8800,0.558
72.9200,0.536
72.9600,0.569
73.0000,0.529
73.0400,0.523
73.0800,0.515
73.1200,0.527
73.1600,0.511
73.2000,0.527
73.2400,0.475
73.2800,0.485
73.3200,0.491
73.3600,0.484
73.4000,0.446
73.4400,0.456
73.4800,0.505
73.5200,0.495
73.5600,0.500
73.6000,0.503
73.6400,0.500
73.6800,0.434
73.7200,0.410
73.7600,0.425
73.8000,0.419
73.8400,0.466
73.8800,0.453
73.9200,0.446
73.9600,0.442
74.0000,0.407
74.0400,0.390
74.0800,0.420
74.1200,0.422
74.1600,0.430
74.2000,0.432
74.2400,0.433
74.2800,0.460
74.3200,0.455
74.3600,0.430
74.4000,0.427
74.4400,0.410
74.4800,0.380
74.5200,0.382
74.5600,0.399
74.6000,0.443
74.6400,0.408
74.6800,0.429
74.7200,0.425
74.7600,0.392
74.8000,0.428
74.8400,0.380
74.8800,0.395
74.9200,0.391
74.9600,0.408
75.0000,0.373
75.0400,0.395
75.0800,0.368
75.1200,0.366
75.1600,0.394
75.2000,0.417
75.2400,0.398
75.2800,0.390
75.3200,0.411
75.3600,0.406
75.4000,0.392
75.4400,0.373
75.4800,0.385
75.5200,0.366
75.5600,0.382
75.6000,0.380
75.6400,0.372
75.6800,0.388
75.7200,0.393
75.7600,0.386
75.8000,0.365
75.8400,0.391
75.8800,0.402
75.9200,0.371
75.9600,0.383
76.0000,0.393
76.0400,0.390
76.0800,0.415
76.1200,0.363
76.1600,0.377
76.2000,0.393
76.2400,0.371
76.2800,0.381
76.3200,0.373
76.3600,0.363
76.4000,0.393
76.4400,0.369
76.4800,0.338
76.5200,0.361
76.5600,0.348
76.6000,0.345
76.6400,0.349
76.6800,0.321
76.7200,0.373
76.7600,0.352
76.8000,0.384
76.8400,0.380
76.8800,0.384
76.9200,0.325
76.9600,0.352
77.0000,0.396
77.0400,0.378
77.0800,0.371
77.1200,0.369
77.1600,0.364
77.2000,0.370
77.2400,0.353
77.2800,0.347
77.3200,0.339
77.3600,0.360
77.4000,0.368
77.4400,0.374
77.4800,0.348
77.5200,0.381
77.5600,0.364
77.6000,0.375
77.6400,0.372
77.6800,0.364
77.7200,0.389
77.7600,0.364
77.8000,0.384
77.8400,0.401
77.8800,0.364
77.9200,0.423
77.9600,0.360
78.0000,0.385
78.0400,0.423
78.0800,0.421
78.1200,0.411
78.1600,0.415
78.2000,0.456
78.2400,0.429
78.2800,0.492
78.3200,0.473
78.3600,0.452
78.4000,0.465
78.4400,0.530
78.4800,0.559
78.5200,0.573
78.5600,0.630
78.6000,0.694
78.6400,0.749
78.6800,0.830
78.7200,0.891
78.7600,0.995
78.8000,1.109
78.8400,1.195
78.8800,1.444
78.9200,1.496
78.9600,1.700
79.0000,1.761
79.0400,1.849
79.0800,1.969
79.1200,1.918
79.1600,1.930
79.2000,1.836
79.2400,1.826
79.2800,1.648
79.3200,1.559
79.3600,1.504
79.4000,1.320
79.4400,1.235
79.4800,1.103
79.5200,1.020
79.5600,0.888
79.6000,0.787
79.6400,0.737
79.6800,0.662
79.7200,0.634
79.7600,0.565
79.8000,0.570
79.8400,0.516
79.8800,0.487
79.9200,0.474
79.9600,0.451
80.0000,0.433
