theta,intensity
5.0000,6.120
5.0400,6.088
5.0800,6.018
5.1200,5.958
5.1600,5.929
5.2000,5.819
5.2400,5.714
5.2800,5.790
5.3200,5.733
5.3600,5.531
5.4000,5.606
5.4400,5.622
5.4800,5.440
5.5200,5.460
5.5600,5.392
5.6000,5.310
5.6400,5.233
5.6800,5.204
5.7200,5.107
5.7600,5.032
5.8000,4.929
5.8400,4.942
5.8800,4.895
5.9200,4.758
5.9600,4.706
6.0000,4.681
6.0400,4.475
6.0800,4.511
6.1200,4.476
6.1600,4.431
6.2000,4.284
6.2400,4.337
6.2800,4.320
6.3200,4.215
6.3600,4.160
6.4000,4.233
6.4400,4.197
6.4800,4.185
6.5200,4.224
6.5600,4.273
6.6000,4.250
6.6400,4.222
6.6800,4.162
6.7200,4.232
6.7600,4.124
6.8000,4.149
6.8400,4.086
6.8800,4.132
6.9200,4.129
6.9600,4.189
7.0000,4.149
7.0400,4.064
7.0800,4.094
7.1200,4.034
7.1600,3.980
7.2000,4.046
7.2400,4.073
7.2800,3.954
7.3200,4.021
7.3600,4.023
7.4000,4.097
7.4400,4.018
7.4800,4.005
7.5200,3.996
7.5600,3.840
7.6000,3.981
7.6400,3.985
7.6800,4.014
7.7200,3.955
7.7600,3.870
7.8000,3.907
7.8400,4.102
7.8800,3.991
7.9200,4.067
7.9600,3.837
8.0000,4.027
8.0400,3.991
8.0800,3.892
8.1200,3.946
8.1600,3.933
8.2000,3.847
8.2400,3.898
8.2800,3.848
8.3200,3.813
8.3600,3.806
8.4000,3.970
8.4400,3.819
8.4800,3.774
8.5200,3.842
8.5600,3.861
8.6000,3.825
8.6400,3.885
8.6800,3.806
8.7200,3.877
8.7600,3.850
8.8000,3.753
8.8400,3.812
8.8800,3.792
8.9200,3.838
8.9600,3.751
9.0000,3.838
9.0400,3.813
9.0800,3.748
9.1200,3.782
9.1600,3.823
9.2000,3.627
9.2400,3.746
9.2800,3.862
9.3200,3.737
9.3600,3.765
9.4000,3.653
9.4400,3.727
9.4800,3.674
9.5200,3.678
9.5600,3.659
9.6000,3.815
9.6400,3.683
9.6800,3.648
9.7200,3.716
9.7600,3.613
9.8000,3.762
9.8400,3.781
9.8800,3.557
9.9200,3.711
9.9600,3.616
10.0000,3.544
10.0400,3.687
10.0800,3.707
10.1200,3.678
10.1600,3.636
10.2000,3.548
10.2400,3.703
10.2800,3.731
10.3200,3.700
10.3600,3.555
10.4000,3.607
10.4400,3.628
10.4800,3.477
10.5200,3.582
10.5600,3.601
10.6000,3.591
10.6400,3.588
10.6800,3.607
10.7200,3.516
10.7600,3.690
10.8000,3.520
10.8400,3.632
10.8800,3.558
10.9200,3.612
10.9600,3.647
11.0000,3.585
11.0400,3.547
11.0800,3.538
11.1200,3.598
11.1600,3.411
11.2000,3.535
11.2400,3.513
11.2800,3.432
11.3200,3.477
11.3600,3.554
11.4000,3.605
11.4400,3.446
11.4800,3.527
11.5200,3.565
11.5600,3.597
11.6000,3.457
11.6400,3.524
11.6800,3.531
11.7200,3.468
11.7600,3.469
11.8000,3.460
11.8400,3.496
11.8800,3.444
11.9200,3.421
11.9600,3.486
12.0000,3.358
12.0400,3.442
12.0800,3.422
12.1200,3.466
12.1600,3.422
12.2000,3.443
12.2400,3.426
12.2800,3.475
12.3200,3.477
12.3600,3.375
12.4000,3.366
12.4400,3.427
12.4800,3.313
12.5200,3.348
12.5600,3.378
12.6000,3.417
12.6400,3.320
12.6800,3.423
12.7200,3.333
12.7600,3.383
12.8000,3.348
12.8400,3.359
12.8800,3.366
12.9200,3.375
12.9600,3.345
13.0000,3.278
13.0400,3.311
13.0800,3.318
13.1200,3.282
13.1600,3.354
13.2000,3.227
13.2400,3.202
13.2800,3.304
13.3200,3.387
13.3600,3.268
13.4000,3.242
13.4400,3.328
13.4800,3.299
13.5200,3.264
13.5600,3.203
13.6000,3.312
13.6400,3.275
13.6800,3.235
13.7200,3.271
13.7600,3.220
13.8000,3.292
13.8400,3.296
13.8800,3.298
13.9200,3.309
13.9600,3.296
14.0000,3.303
14.0400,3.189
14.0800,3.251
14.1200,3.220
14.1600,3.264
14.2000,3.256
14.2400,3.188
14.2800,3.142
14.3200,3.241
14.3600,3.139
14.4000,3.285
14.4400,3.167
14.4800,3.183
14.5200,3.298
14.5600,3.209
14.6000,3.207
14.6400,3.199
14.6800,3.233
14.7200,3.146
14.7600,3.305
14.8000,3.204
14.8400,3.189
14.8800,3.251
14.9200,3.129
14.9600,3.093
15.0000,3.114
15.0400,3.124
15.0800,3.200
15.1200,3.105
15.1600,3.153
15.2000,3.070
15.2400,3.086
15.2800,3.077
15.3200,3.123
15.3600,3.055
15.4000,3.054
15.4400,3.088
15.4800,3.168
15.5200,3.058
15.5600,3.128
15.6000,3.108
15.6400,3.098
15.6800,3.073
15.7200,3.085
15.7600,3.052
15.8000,3.066
15.8400,3.101
15.8800,3.044
15.9200,3.052
15.9600,3.017
16.0000,3.158
16.0400,3.115
16.0800,3.025
16.1200,3.005
16.1600,2.924
16.2000,2.987
16.2400,3.055
16.2800,3.104
16.3200,3.076
16.3600,3.010
16.4000,3.046
16.4400,2.987
16.4800,3.058
16.5200,2.987
16.5600,2.984
16.6000,3.043
16.6400,3.075
16.6800,3.065
16.7200,2.948
16.7600,2.932
16.8000,2.902
16.8400,2.903
16.8800,2.989
16.9200,2.912
16.9600,2.953
17.0000,2.958
17.0400,2.960
17.0800,2.929
17.1200,2.924
17.1600,2.967
17.2000,2.962
17.2400,2.980
17.2800,2.878
17.3200,3.039
17.3600,2.911
17.4000,2.922
17.4400,2.880
17.4800,2.906
17.5200,2.994
17.5600,2.918
17.6000,2.965
17.6400,2.914
17.6800,2.874
17.7200,2.894
17.7600,2.887
17.8000,2.882
17.8400,2.913
17.8800,2.773
17.9200,2.911
17.9600,2.939
18.0000,2.851
18.0400,2.893
18.0800,2.820
18.1200,2.935
18.1600,2.922
18.2000,2.893
18.2400,2.895
18.2800,2.790
18.3200,2.815
18.3600,2.763
18.4000,2.962
18.4400,2.911
18.4800,2.794
18.5200,2.854
18.5600,2.667
18.6000,2.832
18.6400,2.792
18.6800,2.797
18.7200,2.814
18.7600,2.848
18.8000,2.774
18.8400,2.786
18.8800,2.871
18.9200,2.774
18.9600,2.754
19.0000,2.745
19.0400,2.750
19.0800,2.703
19.1200,2.804
19.1600,2.770
19.2000,2.760
19.2400,2.657
19.2800,2.726
19.3200,2.652
19.3600,2.686
19.4000,2.743
19.4400,2.708
19.4800,2.740
19.5200,2.742
19.5600,2.677
19.6000,2.725
19.6400,2.763
19.6800,2.747
19.7200,2.654
19.7600,2.726
19.8000,2.663
19.8400,2.662
19.8800,2.686
19.9200,2.633
19.9600,2.673
20.0000,2.754
20.0400,2.738
20.0800,2.629
20.1200,2.659
20.1600,2.707
20.2000,2.675
20.2400,2.668
20.2800,2.626
20.3200,2.694
20.3600,2.683
20.4000,2.654
20.4400,2.633
20.4800,2.663
20.5200,2.641
20.5600,2.671
20.6000,2.584
20.6400,2.683
20.6800,2.661
20.7200,2.627
20.7600,2.648
20.8000,2.615
20.8400,2.590
20.8800,2.620
20.9200,2.654
20.9600,2.645
21.0000,2.620
21.0400,2.626
21.0800,2.549
21.1200,2.649
21.1600,2.541
21.2000,2.526
21.2400,2.596
21.2800,2.631
21.3200,2.583
21.3600,2.647
21.4000,2.613
21.4400,2.619
21.4800,2.479
21.5200,2.589
21.5600,2.531
21.6000,2.518
21.6400,2.551
21.6800,2.522
21.7200,2.490
21.7600,2.583
21.8000,2.517
21.8400,2.499
21.8800,2.555
21.9200,2.471
21.9600,2.552
22.0000,2.513
22.0400,2.473
22.0800,2.535
22.1200,2.607
22.1600,2.492
22.2000,2.474
22.2400,2.556
22.2800,2.400
22.3200,2.464
22.3600,2.547
22.4000,2.449
22.4400,2.520
22.4800,2.470
22.5200,2.447
22.5600,2.442
22.6000,2.409
22.6400,2.404
22.6800,2.387
22.7200,2.425
22.7600,2.469
22.8000,2.431
22.8400,2.404
22.8800,2.414
22.9200,2.466
22.9600,2.428
23.0000,2.353
23.0400,2.418
23.0800,2.381
23.1200,2.409
23.1600,2.421
23.2000,2.393
23.2400,2.434
23.2800,2.425
23.3200,2.417
23.3600,2.462
23.4000,2.449
23.4400,2.406
23.4800,2.294
23.5200,2.434
23.5600,2.393
23.6000,2.413
23.6400,2.339
23.6800,2.363
23.7200,2.386
23.7600,2.327
23.8000,2.438
23.8400,2.307
23.8800,2.304
23.9200,2.404
23.9600,2.321
24.0000,2.371
24.0400,2.330
24.0800,2.346
24.1200,2.346
24.1600,2.337
24.2000,2.363
24.2400,2.354
24.2800,2.297
24.3200,2.255
24.3600,2.282
24.4000,2.317
24.4400,2.218
24.4800,2.269
24.5200,2.228
24.5600,2.311
24.6000,2.373
24.6400,2.272
24.6800,2.275
24.7200,2.315
24.7600,2.258
24.8000,2.294
24.8400,2.253
24.8800,2.288
24.9200,2.258
24.9600,2.261
25.0000,2.343
25.0400,2.243
25.0800,2.284
25.1200,2.232
25.1600,2.268
25.2000,2.224
25.2400,2.314
25.2800,2.236
25.3200,2.302
25.3600,2.221
25.4000,2.203
25.4400,2.203
25.4800,2.263
25.5200,2.209
25.5600,2.237
25.6000,2.248
25.6400,2.185
25.6800,2.182
25.7200,2.311
25.7600,2.165
25.8000,2.213
25.8400,2.197
25.8800,2.250
25.9200,2.232
25.9600,2.149
26.0000,2.187
26.0400,2.290
26.0800,2.191
26.1200,2.246
26.1600,2.115
26.2000,2.092
26.2400,2.211
26.2800,2.167
26.3200,2.119
26.3600,2.166
26.4000,2.265
26.4400,2.110
26.4800,2.207
26.5200,2.127
26.5600,2.088
26.6000,2.198
26.6400,2.116
26.6800,2.169
26.7200,2.085
26.7600,2.159
26.8000,2.104
26.8400,2.100
26.8800,2.145
26.9200,2.216
26.9600,2.098
27.0000,2.122
27.0400,2.081
27.0800,2.092
27.1200,2.073
27.1600,2.089
27.2000,2.025
27.2400,2.061
27.2800,2.068
27.3200,2.066
27.3600,2.089
27.4000,2.058
27.4400,2.086
27.4800,2.088
27.5200,2.060
27.5600,2.066
27.6000,2.036
27.6400,2.025
27.6800,2.006
27.7200,2.020
27.7600,2.085
27.8000,2.031
27.8400,2.028
27.8800,1.962
27.9200,2.018
27.9600,2.041
28.0000,2.016
28.0400,2.040
28.0800,2.023
28.1200,1.947
28.1600,1.974
28.2000,1.996
28.2400,1.987
28.2800,1.996
28.3200,2.035
28.3600,2.020
28.4000,2.045
28.4400,2.017
28.4800,2.020
28.5200,1.975
28.5600,1.993
28.6000,2.011
28.6400,1.959
28.6800,1.937
28.7200,1.963
28.7600,1.984
28.8000,1.942
28.8400,1.971
28.8800,1.978
28.9200,1.934
28.9600,1.925
29.0000,1.909
29.0400,1.958
29.0800,1.962
29.1200,1.823
29.1600,2.014
29.2000,2.018
29.2400,1.951
29.2800,1.898
29.3200,1.836
29.3600,1.982
29.4000,1.947
29.4400,1.934
29.4800,1.885
29.5200,1.910
29.5600,1.872
29.6000,1.838
29.6400,1.894
29.6800,1.861
29.7200,1.934
29.7600,1.925
29.8000,1.882
29.8400,1.936
29.8800,1.865
29.9200,1.778
29.9600,1.884
30.0000,1.830
30.0400,1.827
30.0800,1.835
30.1200,1.834
30.1600,1.824
30.2000,1.856
30.2400,1.893
30.2800,1.826
30.3200,1.797
30.3600,1.793
30.4000,1.829
30.4400,1.847
30.4800,1.924
30.5200,1.827
30.5600,1.841
30.6000,1.818
30.6400,1.733
30.6800,1.876
30.7200,1.914
30.7600,1.850
30.8000,1.784
30.8400,1.851
30.8800,1.785
30.9200,1.816
30.9600,1.758
31.0000,1.831
31.0400,1.734
31.0800,1.798
31.1200,1.778
31.1600,1.754
31.2000,1.810
31.2400,1.789
31.2800,1.714
31.3200,1.754
31.3600,1.753
31.4000,1.791
31.4400,1.704
31.4800,1.813
31.5200,1.802
31.5600,1.777
31.6000,1.726
31.6400,1.775
31.6800,1.834
31.7200,1.749
31.7600,1.789
31.8000,1.835
31.8400,1.718
31.8800,1.777
31.9200,1.769
31.9600,1.722
32.0000,1.741
32.0400,1.717
32.0800,1.703
32.1200,1.718
32.1600,1.733
32.2000,1.762
32.2400,1.785
32.2800,1.701
32.3200,1.759
32.3600,1.791
32.4000,1.768
32.4400,1.753
32.4800,1.724
32.5200,1.651
32.5600,1.729
32.6000,1.700
32.6400,1.683
32.6800,1.676
32.7200,1.622
32.7600,1.690
32.8000,1.703
32.8400,1.673
32.8800,1.741
32.9200,1.697
32.9600,1.634
33.0000,1.983
33.0400,2.872
33.0800,2.559
33.1200,1.706
33.1600,1.654
33.2000,1.718
33.2400,1.613
33.2800,1.686
33.3200,1.653
33.3600,1.723
33.4000,1.645
33.4400,1.603
33.4800,1.635
33.5200,1.639
33.5600,1.626
33.6000,1.619
33.6400,1.711
33.6800,1.594
33.7200,1.644
33.7600,1.599
33.8000,1.593
33.8400,1.633
33.8800,1.637
33.9200,1.616
33.9600,1.678
34.0000,1.557
34.0400,1.668
34.0800,1.619
34.1200,1.588
34.1600,1.568
34.2000,1.553
34.2400,1.632
34.2800,1.611
34.3200,1.552
34.3600,1.586
34.4000,1.612
34.4400,1.571
34.4800,1.573
34.5200,1.585
34.5600,1.530
34.6000,1.504
34.6400,1.513
34.6800,1.549
34.7200,1.645
34.7600,1.609
34.8000,1.574
34.8400,1.538
34.8800,1.611
34.9200,1.537
34.9600,1.536
35.0000,1.492
35.0400,1.582
35.0800,1.551
35.1200,1.613
35.1600,1.622
35.2000,1.578
35.2400,1.544
35.2800,1.539
35.3200,1.493
35.3600,1.549
35.4000,1.417
35.4400,1.551
35.4800,1.571
35.5200,1.579
35.5600,1.500
35.6000,1.484
35.6400,1.513
35.6800,1.517
35.7200,1.495
35.7600,1.485
35.8000,1.609
35.8400,1.573
35.8800,1.556
35.9200,1.589
35.9600,1.547
36.0000,1.531
36.0400,1.580
36.0800,1.615
36.1200,1.520
36.1600,1.565
36.2000,1.639
36.2400,1.514
36.2800,1.573
36.3200,1.463
36.3600,1.595
36.4000,1.575
36.4400,1.536
36.4800,1.608
36.5200,1.600
36.5600,1.611
36.6000,1.567
36.6400,1.589
36.6800,1.539
36.7200,1.565
36.7600,1.589
36.8000,1.618
36.8400,1.657
36.8800,1.619
36.9200,1.637
36.9600,1.670
37.0000,1.569
37.0400,1.590
37.0800,1.626
37.1200,1.671
37.1600,1.698
37.2000,1.715
37.2400,1.760
37.2800,1.805
37.3200,1.766
37.3600,1.838
37.4000,1.860
37.4400,1.882
37.4800,1.916
37.5200,1.965
37.5600,2.052
37.6000,2.127
37.6400,2.256
37.6800,2.411
37.7200,2.459
37.7600,2.611
37.8000,2.725
37.8400,3.175
37.8800,3.483
37.9200,3.778
37.9600,4.550
38.0000,5.095
38.0400,6.076
38.0800,6.909
38.1200,7.931
38.1600,8.720
38.2000,9.678
38.2400,9.624
38.2800,9.150
38.3200,8.427
38.3600,7.347
38.4000,6.379
38.4400,5.457
38.4800,4.628
38.5200,3.952
38.5600,3.619
38.6000,3.251
38.6400,2.979
38.6800,2.778
38.7200,2.583
38.7600,2.382
38.8000,2.265
38.8400,2.122
38.8800,2.026
38.9200,1.968
38.9600,1.957
39.0000,1.889
39.0400,1.841
39.0800,1.794
39.1200,1.821
39.1600,1.720
39.2000,1.639
39.2400,1.580
39.2800,1.567
39.3200,1.585
39.3600,1.603
39.4000,1.560
39.4400,1.591
39.4800,1.495
39.5200,1.541
39.5600,1.506
39.6000,1.459
39.6400,1.426
39.6800,1.438
39.7200,1.472
39.7600,1.470
39.8000,1.443
39.8400,1.401
39.8800,1.402
39.9200,1.403
39.9600,1.378
40.0000,1.361
40.0400,1.332
40.0800,1.342
40.1200,1.327
40.1600,1.329
40.2000,1.376
40.2400,1.342
40.2800,1.351
40.3200,1.332
40.3600,1.277
40.4000,1.361
40.4400,1.299
40.4800,1.314
40.5200,1.334
40.5600,1.316
40.6000,1.263
40.6400,1.317
40.6800,1.305
40.7200,1.284
40.7600,1.257
40.8000,1.288
40.8400,1.345
40.8800,1.299
40.9200,1.283
40.9600,1.219
41.0000,1.233
41.0400,1.303
41.0800,1.253
41.1200,1.244
41.1600,1.155
41.2000,1.231
41.2400,1.279
41.2800,1.235
41.3200,1.251
41.3600,1.266
41.4000,1.305
41.4400,1.188
41.4800,1.257
41.5200,1.218
41.5600,1.194
41.6000,1.264
41.6400,1.213
41.6800,1.286
41.7200,1.240
41.7600,1.247
41.8000,1.233
41.8400,1.210
41.8800,1.213
41.9200,1.201
41.9600,1.187
42.0000,1.234
42.0400,1.257
42.0800,1.185
42.1200,1.217
42.1600,1.204
42.2000,1.189
42.2400,1.204
42.2800,1.154
42.3200,1.160
42.3600,1.121
42.4000,1.120
42.4400,1.105
42.4800,1.205
42.5200,1.187
42.5600,1.175
42.6000,1.205
42.6400,1.223
42.6800,1.190
42.7200,1.133
42.7600,1.203
42.8000,1.190
42.8400,1.161
42.8800,1.157
42.9200,1.265
42.9600,1.222
43.0000,1.150
43.0400,1.260
43.0800,1.172
43.1200,1.209
43.1600,1.220
43.2000,1.242
43.2400,1.237
43.2800,1.163
43.3200,1.274
43.3600,1.241
43.4000,1.301
43.4400,1.239
43.4800,1.294
43.5200,1.333
43.5600,1.344
43.6000,1.323
43.6400,1.387
43.6800,1.420
43.7200,1.417
43.7600,1.433
43.8000,1.497
43.8400,1.488
43.8800,1.530
43.9200,1.603
43.9600,1.699
44.0000,1.777
44.0400,1.839
44.0800,1.886
44.1200,2.017
44.1600,2.047
44.2000,2.268
44.2400,2.445
44.2800,2.460
44.3200,2.684
44.3600,2.729
44.4000,2.840
44.4400,2.828
44.4800,2.868
44.5200,2.809
44.5600,2.592
44.6000,2.556
44.6400,2.347
44.6800,2.167
44.7200,2.051
44.7600,1.921
44.8000,1.757
44.8400,1.750
44.8800,1.662
44.9200,1.545
44.9600,1.490
45.0000,1.417
45.0400,1.393
45.0800,1.321
45.1200,1.329
45.1600,1.252
45.2000,1.181
45.2400,1.170
45.2800,1.176
45.3200,1.170
45.3600,1.105
45.4000,1.147
45.4400,1.133
45.4800,1.144
45.5200,1.111
45.5600,1.116
45.6000,1.072
45.6400,1.106
45.6800,1.063
45.7200,1.073
45.7600,1.032
45.8000,1.048
45.8400,1.004
45.8800,1.019
45.9200,1.036
45.9600,1.014
46.0000,0.976
46.0400,0.983
46.0800,0.970
46.1200,0.978
46.1600,0.956
46.2000,0.944
46.2400,0.962
46.2800,1.007
46.3200,0.969
46.3600,0.943
46.4000,0.964
46.4400,0.965
46.4800,0.958
46.5200,0.942
46.5600,0.945
46.6000,0.980
46.6400,1.001
46.6800,0.949
46.7200,0.930
46.7600,0.904
46.8000,0.932
46.8400,0.943
46.8800,0.904
46.9200,0.931
46.9600,0.940
47.0000,0.940
47.0400,0.926
47.0800,0.918
47.1200,0.891
47.1600,0.872
47.2000,0.926
47.2400,0.883
47.2800,0.828
47.3200,0.858
47.3600,0.936
47.4000,0.879
47.4400,0.885
47.4800,0.911
47.5200,0.829
47.5600,0.889
47.6000,0.881
47.6400,0.847
47.6800,0.936
47.7200,0.889
47.7600,0.858
47.8000,0.868
47.8400,0.875
47.8800,0.934
47.9200,0.895
47.9600,0.850
48.0000,0.831
48.0400,0.851
48.0800,0.912
48.1200,0.888
48.1600,0.886
48.2000,0.863
48.2400,0.863
48.2800,0.852
48.3200,0.874
48.3600,0.810
48.4000,0.811
48.4400,0.824
48.4800,0.832
48.5200,0.822
48.5600,0.888
48.6000,0.855
48.6400,0.830
48.6800,0.862
48.7200,0.810
48.7600,0.837
48.8000,0.784
48.8400,0.792
48.8800,0.824
48.9200,0.798
48.9600,0.770
49.0000,0.848
49.0400,0.822
49.0800,0.821
49.1200,0.797
49.1600,0.812
49.2000,0.825
49.2400,0.796
49.2800,0.814
49.3200,0.796
49.3600,0.856
49.4000,0.824
49.4400,0.803
49.4800,0.833
49.5200,0.783
49.5600,0.811
49.6000,0.800
49.6400,0.823
49.6800,0.819
49.7200,0.764
49.7600,0.791
49.8000,0.797
49.8400,0.809
49.8800,0.791
49.9200,0.742
49.9600,0.804
50.0000,0.758
50.0400,0.766
50.0800,0.774
50.1200,0.758
50.1600,0.736
50.2000,0.768
50.2400,0.786
50.2800,0.766
50.3200,0.759
50.3600,0.806
50.4000,0.748
50.4400,0.802
50.4800,0.847
50.5200,0.777
50.5600,0.749
50.6000,0.793
50.6400,0.773
50.6800,0.748
50.7200,0.782
50.7600,0.740
50.8000,0.769
50.8400,0.711
50.8800,0.760
50.9200,0.800
50.9600,0.736
51.0000,0.801
51.0400,0.789
51.0800,0.762
51.1200,0.763
51.1600,0.654
51.2000,0.763
51.2400,0.742
51.2800,0.739
51.3200,0.784
51.3600,0.747
51.4000,0.753
51.4400,0.751
51.4800,0.715
51.5200,0.748
51.5600,0.708
51.6000,0.805
51.6400,0.734
51.6800,0.726
51.7200,0.772
51.7600,0.767
51.8000,0.777
51.8400,0.673
51.8800,0.697
51.9200,0.718
51.9600,0.747
52.0000,0.749
52.0400,0.762
52.0800,0.755
52.1200,0.795
52.1600,0.793
52.2000,0.717
52.2400,0.736
52.2800,0.680
52.3200,0.687
52.3600,0.685
52.4000,0.722
52.4400,0.719
52.4800,0.686
52.5200,0.734
52.5600,0.729
52.6000,0.730
52.6400,0.677
52.6800,0.727
52.7200,0.705
52.7600,0.713
52.8000,0.739
52.8400,0.720
52.8800,0.719
52.9200,0.680
52.9600,0.728
53.0000,0.672
53.0400,0.721
53.0800,0.706
53.1200,0.681
53.1600,0.653
53.2000,0.748
53.2400,0.728
53.2800,0.703
53.3200,0.725
53.3600,0.678
53.4000,0.716
53.4400,0.678
53.4800,0.730
53.5200,0.682
53.5600,0.720
53.6000,0.707
53.6400,0.723
53.6800,0.674
53.7200,0.732
53.7600,0.680
53.8000,0.677
53.8400,0.685
53.8800,0.757
53.9200,0.660
53.9600,0.667
54.0000,0.649
54.0400,0.658
54.0800,0.686
54.1200,0.668
54.1600,0.666
54.2000,0.665
54.2400,0.690
54.2800,0.721
54.3200,0.672
54.3600,0.690
54.4000,0.675
54.4400,0.652
54.4800,0.685
54.5200,0.679
54.5600,0.643
54.6000,0.632
54.6400,0.666
54.6800,0.685
54.7200,0.685
54.7600,0.643
54.8000,0.667
54.8400,0.696
54.8800,0.666
54.9200,0.655
54.9600,0.693
55.0000,0.655
55.0400,0.688
55.0800,0.663
55.1200,0.684
55.1600,0.654
55.2000,0.702
55.2400,0.694
55.2800,0.660
55.3200,0.629
55.3600,0.669
55.4000,0.660
55.4400,0.675
55.4800,0.674
55.5200,0.664
55.5600,0.632
55.6000,0.625
55.6400,0.650
55.6800,0.612
55.7200,0.666
55.7600,0.689
55.8000,0.664
55.8400,0.627
55.8800,0.660
55.9200,0.656
55.9600,0.631
56.0000,0.640
56.0400,0.657
56.0800,0.614
56.1200,0.659
56.1600,0.628
56.2000,0.648
56.2400,0.602
56.2800,0.646
56.3200,0.644
56.3600,0.623
56.4000,0.684
56.4400,0.643
56.4800,0.683
56.5200,0.613
56.5600,0.653
56.6000,0.656
56.6400,0.611
56.6800,0.622
56.7200,0.585
56.7600,0.626
56.8000,0.590
56.8400,0.626
56.8800,0.653
56.9200,0.675
56.9600,0.610
57.0000,0.603
57.0400,0.573
57.0800,0.601
57.1200,0.667
57.1600,0.652
57.2000,0.623
57.2400,0.647
57.2800,0.655
57.3200,0.638
57.3600,0.602
57.4000,0.639
57.4400,0.595
57.4800,0.648
57.5200,0.612
57.5600,0.643
57.6000,0.615
57.6400,0.658
57.6800,0.631
57.7200,0.603
57.7600,0.619
57.8000,0.585
57.8400,0.600
57.8800,0.611
57.9200,0.605
57.9600,0.568
58.0000,0.608
58.0400,0.620
58.0800,0.579
58.1200,0.613
58.1600,0.638
58.2000,0.657
58.2400,0.610
58.2800,0.650
58.3200,0.589
58.3600,0.599
58.4000,0.621
58.4400,0.607
58.4800,0.623
58.5200,0.584
58.5600,0.625
58.6000,0.614
58.6400,0.573
58.6800,0.595
58.7200,0.585
58.7600,0.593
58.8000,0.622
58.8400,0.581
58.8800,0.584
58.9200,0.568
58.9600,0.583
59.0000,0.572
59.0400,0.579
59.0800,0.548
59.1200,0.588
59.1600,0.611
59.2000,0.603
59.2400,0.601
59.2800,0.588
59.3200,0.591
59.3600,0.575
59.4000,0.569
59.4400,0.584
59.4800,0.579
59.5200,0.572
59.5600,0.562
59.6000,0.539
59.6400,0.547
59.6800,0.578
59.7200,0.595
59.7600,0.614
59.8000,0.635
59.8400,0.568
59.8800,0.613
59.9200,0.601
59.9600,0.603
60.0000,0.607
60.0400,0.575
60.0800,0.584
60.1200,0.573
60.1600,0.541
60.2000,0.590
60.2400,0.531
60.2800,0.549
60.3200,0.570
60.3600,0.542
60.4000,0.567
60.4400,0.615
60.4800,0.567
60.5200,0.601
60.5600,0.607
60.6000,0.588
60.6400,0.600
60.6800,0.552
60.7200,0.554
60.7600,0.572
60.8000,0.594
60.8400,0.585
60.8800,0.570
60.9200,0.569
60.9600,0.573
61.0000,0.578
61.0400,0.580
61.0800,0.598
61.1200,0.555
61.1600,0.572
61.2000,0.549
61.2400,0.583
61.2800,0.546
61.3200,0.546
61.3600,0.529
61.4000,0.540
61.4400,0.536
61.4800,0.579
61.5200,0.527
61.5600,0.554
61.6000,0.618
61.6400,0.680
61.6800,0.672
61.7200,0.611
61.7600,0.590
61.8000,0.564
61.8400,0.599
61.8800,0.595
61.9200,0.555
61.9600,0.592
62.0000,0.565
62.0400,0.574
62.0800,0.574
62.1200,0.536
62.1600,0.548
62.2000,0.540
62.2400,0.559
62.2800,0.535
62.3200,0.538
62.3600,0.614
62.4000,0.590
62.4400,0.605
62.4800,0.600
62.5200,0.567
62.5600,0.558
62.6000,0.588
62.6400,0.584
62.6800,0.581
62.7200,0.566
62.7600,0.544
62.8000,0.559
62.8400,0.604
62.8800,0.566
62.9200,0.569
62.9600,0.583
63.0000,0.571
63.0400,0.572
63.0800,0.584
63.1200,0.604
63.1600,0.598
63.2000,0.538
63.2400,0.629
63.2800,0.605
63.3200,0.587
63.3600,0.590
63.4000,0.610
63.4400,0.600
63.4800,0.591
63.5200,0.620
63.5600,0.592
63.6000,0.667
63.6400,0.583
63.6800,0.630
63.7200,0.628
63.7600,0.641
63.8000,0.686
63.8400,0.677
63.8800,0.732
63.9200,0.661
63.9600,0.694
64.0000,0.726
64.0400,0.729
64.0800,0.771
64.1200,0.755
64.1600,0.822
64.2000,0.855
64.2400,0.858
64.2800,0.874
64.3200,0.961
64.3600,1.008
64.4000,1.067
64.4400,1.109
64.4800,1.199
64.5200,1.307
64.5600,1.417
64.6000,1.439
64.6400,1.484
64.6800,1.498
64.7200,1.424
64.7600,1.413
64.8000,1.329
64.8400,1.313
64.8800,1.259
64.9200,1.177
64.9600,1.136
65.0000,1.051
65.0400,1.031
65.0800,1.009
65.1200,0.928
65.1600,0.888
65.2000,0.893
65.2400,0.812
65.2800,0.832
65.3200,0.784
65.3600,0.828
65.4000,0.789
65.4400,0.769
65.4800,0.762
65.5200,0.787
65.5600,0.721
65.6000,0.734
65.6400,0.756
65.6800,0.749
65.7200,0.743
65.7600,0.717
65.8000,0.758
65.8400,0.754
65.8800,0.711
65.9200,0.725
65.9600,0.788
66.0000,0.739
66.0400,0.778
66.0800,0.771
66.1200,0.767
66.1600,0.776
66.2000,0.797
66.2400,0.741
66.2800,0.836
66.3200,0.837
66.3600,0.818
66.4000,0.838
66.4400,0.839
66.4800,0.876
66.5200,0.829
66.5600,0.817
66.6000,0.905
66.6400,0.840
66.6800,0.943
66.7200,0.879
66.7600,0.917
66.8000,0.984
66.8400,0.964
66.8800,0.933
66.9200,1.005
66.9600,0.990
67.0000,1.006
67.0400,1.050
67.0800,1.011
67.1200,1.086
67.1600,1.115
67.2000,1.071
67.2400,1.033
67.2800,1.160
67.3200,1.216
67.3600,1.196
67.4000,1.154
67.4400,1.165
67.4800,1.200
67.5200,1.217
67.5600,1.256
67.6000,1.280
67.6400,1.365
67.6800,1.321
67.7200,1.452
67.7600,1.453
67.8000,1.450
67.8400,1.573
67.8800,1.503
67.9200,1.518
67.9600,1.653
68.0000,1.638
68.0400,1.710
68.0800,1.715
68.1200,1.804
68.1600,1.736
68.2000,1.914
68.2400,1.903
68.2800,1.939
68.3200,2.024
68.3600,2.157
68.4000,2.301
68.4400,2.366
68.4800,2.474
68.5200,2.672
68.5600,2.792
68.6000,2.942
68.6400,3.254
68.6800,3.755
68.7200,4.670
68.7600,6.249
68.8000,7.383
68.8400,7.901
68.8800,7.832
68.9200,8.848
68.9600,11.834
69.0000,18.417
69.0400,37.375
69.0800,151.633
69.1200,475.967
69.1600,445.195
69.2000,143.431
69.2400,51.969
69.2800,102.762
69.3200,252.560
69.3600,221.447
69.4000,71.173
69.4400,21.887
69.4800,12.273
69.5200,9.008
69.5600,7.142
69.6000,5.853
69.6400,5.083
69.6800,4.440
69.7200,4.070
69.7600,3.579
69.8000,3.463
69.8400,3.039
69.8800,2.896
69.9200,2.685
69.9600,2.687
70.0000,2.630
70.0400,2.501
70.0800,2.329
70.1200,2.347
70.1600,2.164
70.2000,2.025
70.2400,2.050
70.2800,2.029
70.3200,1.977
70.3600,1.810
70.4000,1.733
70.4400,1.753
70.4800,1.618
70.5200,1.579
70.5600,1.629
70.6000,1.534
70.6400,1.485
70.6800,1.442
70.7200,1.372
70.7600,1.425
70.8000,1.313
70.8400,1.316
70.8800,1.303
70.9200,1.223
70.9600,1.217
71.0000,1.177
71.0400,1.217
71.0800,1.164
71.1200,1.137
71.1600,1.062
71.2000,1.048
71.2400,1.040
71.2800,0.978
71.3200,1.007
71.3600,1.000
71.4000,0.977
71.4400,0.922
71.4800,0.913
71.5200,0.867
71.5600,0.879
71.6000,0.874
71.6400,0.893
71.6800,0.878
71.7200,0.789
71.7600,0.773
71.8000,0.760
71.8400,0.767
71.8800,0.744
71.9200,0.753
71.9600,0.718
72.0000,0.720
72.0400,0.717
72.0800,0.725
72.1200,0.725
72.1600,0.688
72.2000,0.670
72.2400,0.667
72.2800,0.639
72.3200,0.657
72.3600,0.636
72.4000,0.705
72.4400,0.643
72.4800,0.618
72.5200,0.584
72.5600,0.592
72.6000,0.674
72.6400,0.553
72.6800,0.545
72.7200,0.549
72.7600,0.576
72.8000,0.538
72.8400,0.551
72.8800,0.525
72.9200,0.555
72.9600,0.519
73.0000,0.522
73.0400,0.498
73.0800,0.497
73.1200,0.556
73.1600,0.525
73.2000,0.479
73.2400,0.512
73.2800,0.547
73.3200,0.538
73.3600,0.475
73.4000,0.461
73.4400,0.511
73.4800,0.492
73.5200,0.506
73.5600,0.470
73.6000,0.471
73.6400,0.485
73.6800,0.470
73.7200,0.473
73.7600,0.425
73.8000,0.505
73.8400,0.434
73.8800,0.432
73.9200,0.404
73.9600,0.450
74.0000,0.437
74.0400,0.419
74.0800,0.472
74.1200,0.435
74.1600,0.460
74.2000,0.409
74.2400,0.425
74.2800,0.433
74.3200,0.467
74.3600,0.453
74.4000,0.441
74.4400,0.422
74.4800,0.446
74.5200,0.405
74.5600,0.412
74.6000,0.431
74.6400,0.428
74.6800,0.383
74.7200,0.415
74.7600,0.449
74.8000,0.395
74.8400,0.421
74.8800,0.385
74.9200,0.384
74.9600,0.388
75.0000,0.450
75.0400,0.381
75.0800,0.425
75.1200,0.388
75.1600,0.388
75.2000,0.396
75.2400,0.396
75.2800,0.414
75.3200,0.390
75.3600,0.386
75.4000,0.381
75.4400,0.362
75.4800,0.393
75.5200,0.388
75.5600,0.350
75.6000,0.414
75.6400,0.417
75.6800,0.370
75.7200,0.395
75.7600,0.432
75.8000,0.420
75.8400,0.385
75.8800,0.391
75.9200,0.397
75.9600,0.430
76.0000,0.420
76.0400,0.350
76.0800,0.430
76.1200,0.400
76.1600,0.375
76.2000,0.394
76.2400,0.410
76.2800,0.438
76.3200,0.388
76.3600,0.378
76.4000,0.419
76.4400,0.388
76.4800,0.438
76.5200,0.406
76.5600,0.403
76.6000,0.447
76.6400,0.415
76.6800,0.398
76.7200,0.445
76.7600,0.416
76.8000,0.440
76.8400,0.470
76.8800,0.446
76.9200,0.501
76.9600,0.492
77.0000,0.515
77.0400,0.503
77.0800,0.510
77.1200,0.601
77.1600,0.606
77.2000,0.613
77.2400,0.656
77.2800,0.716
77.3200,0.709
77.3600,0.760
77.4000,0.820
77.4400,0.842
77.4800,0.925
77.5200,1.034
77.5600,1.064
77.6000,1.076
77.6400,1.129
77.6800,1.106
77.7200,1.110
77.7600,1.086
77.8000,1.010
77.8400,0.981
77.8800,0.864
77.9200,0.906
77.9600,0.804
78.0000,0.741
78.0400,0.738
78.0800,0.642
78.1200,0.638
78.1600,0.569
78.2000,0.595
78.2400,0.569
78.2800,0.523
78.3200,0.453
78.3600,0.480
78.4000,0.480
78.4400,0.420
78.4800,0.456
78.5200,0.480
78.5600,0.399
78.6000,0.380
78.6400,0.381
78.6800,0.400
78.7200,0.350
78.7600,0.404
78.8000,0.347
78.8400,0.350
78.8800,0.352
78.9200,0.391
78.9600,0.353
79.0000,0.366
79.0400,0.341
79.0800,0.380
79.1200,0.368
79.1600,0.361
79.2000,0.383
79.2400,0.361
79.2800,0.298
79.3200,0.335
79.3600,0.334
79.4000,0.336
79.4400,0.323
79.4800,0.323
79.5200,0.324
79.5600,0.325
79.6000,0.342
79.6400,0.333
79.6800,0.319
79.7200,0.335
79.7600,0.297
79.8000,0.319
79.8400,0.311
79.8800,0.322
79.9200,0.351
79.9600,0.311
80.0000,0.311
