theta,intensity
5.0000,6.417
5.0400,6.395
5.0800,6.411
5.1200,6.108
5.1600,6.286
5.2000,6.302
5.2400,6.368
5.2800,6.220
5.3200,6.117
5.3600,6.201
5.4000,6.231
5.4400,6.189
5.4800,6.057
5.5200,5.914
5.5600,5.829
5.6000,5.845
5.6400,5.881
5.6800,5.703
5.7200,5.674
5.7600,5.598
5.8000,5.705
5.8400,5.497
5.8800,5.345
5.9200,5.422
5.9600,5.355
6.0000,5.119
6.0400,5.041
6.0800,5.072
6.1200,5.058
6.1600,4.885
6.2000,4.792
6.2400,4.776
6.2800,4.632
6.3200,4.630
6.3600,4.452
6.4000,4.521
6.4400,4.437
6.4800,4.316
6.5200,4.319
6.5600,4.376
6.6000,4.258
6.6400,4.145
6.6800,4.152
6.7200,4.245
6.7600,4.203
6.8000,4.102
6.8400,4.083
6.8800,4.169
6.9200,4.076
6.9600,4.051
7.0000,4.013
7.0400,4.094
7.0800,4.018
7.1200,4.002
7.1600,4.057
7.2000,3.999
7.2400,4.042
7.2800,3.959
7.3200,3.974
7.3600,3.829
7.4000,3.893
7.4400,3.942
7.4800,3.870
7.5200,4.015
7.5600,4.058
7.6000,3.934
7.6400,3.984
7.6800,3.923
7.7200,3.934
7.7600,3.910
7.8000,3.967
7.8400,3.958
7.8800,3.871
7.9200,3.837
7.9600,3.932
8.0000,3.784
8.0400,3.974
8.0800,3.797
8.1200,3.799
8.1600,3.911
8.2000,3.883
8.2400,3.870
8.2800,3.793
8.3200,3.878
8.3600,3.750
8.4000,3.820
8.4400,3.759
8.4800,3.848
8.5200,3.901
8.5600,3.891
8.6000,3.842
8.6400,3.737
8.6800,3.735
8.7200,3.826
8.7600,3.798
8.8000,3.817
8.8400,3.815
8.8800,3.816
8.9200,3.799
8.9600,3.799
9.0000,3.778
9.0400,3.730
9.0800,3.728
9.1200,3.701
9.1600,3.682
9.2000,3.664
9.2400,3.930
9.2800,3.733
9.3200,3.762
9.3600,3.795
9.4000,3.649
9.4400,3.646
9.4800,3.641
9.5200,3.580
9.5600,3.664
9.6000,3.600
9.6400,3.780
9.6800,3.639
9.7200,3.594
9.7600,3.709
9.8000,3.642
9.8400,3.715
9.8800,3.703
9.9200,3.671
9.9600,3.752
10.0000,3.630
10.0400,3.721
10.0800,3.606
10.1200,3.605
10.1600,3.520
10.2000,3.615
10.2400,3.712
10.2800,3.625
10.3200,3.666
10.3600,3.548
10.4000,3.639
10.4400,3.590
10.4800,3.543
10.5200,3.607
10.5600,3.694
10.6000,3.665
10.6400,3.723
10.6800,3.484
10.7200,3.442
10.7600,3.597
10.8000,3.627
10.8400,3.547
10.8800,3.514
10.9200,3.534
10.9600,3.495
11.0000,3.480
11.0400,3.513
11.0800,3.620
11.1200,3.571
11.1600,3.545
11.2000,3.413
11.2400,3.491
11.2800,3.420
11.3200,3.449
11.3600,3.568
11.4000,3.394
11.4400,3.440
11.4800,3.433
11.5200,3.454
11.5600,3.509
11.6000,3.585
11.6400,3.515
11.6800,3.478
11.7200,3.525
11.7600,3.482
11.8000,3.505
11.8400,3.421
11.8800,3.400
11.9200,3.339
11.9600,3.409
12.0000,3.433
12.0400,3.370
12.0800,3.491
12.1200,3.401
12.1600,3.451
12.2000,3.340
12.2400,3.363
12.2800,3.279
12.3200,3.366
12.3600,3.327
12.4000,3.436
12.4400,3.353
12.4800,3.298
12.5200,3.306
12.5600,3.288
12.6000,3.335
12.6400,3.435
12.6800,3.341
12.7200,3.351
12.7600,3.387
12.8000,3.363
12.8400,3.348
12.8800,3.337
12.9200,3.350
12.9600,3.355
13.0000,3.280
13.0400,3.253
13.0800,3.216
13.1200,3.376
13.1600,3.261
13.2000,3.343
13.2400,3.317
13.2800,3.294
13.3200,3.322
13.3600,3.329
13.4000,3.328
13.4400,3.372
13.4800,3.229
13.5200,3.224
13.5600,3.182
13.6000,3.218
13.6400,3.241
13.6800,3.230
13.7200,3.233
13.7600,3.264
13.8000,3.154
13.8400,3.174
13.8800,3.320
13.9200,3.262
13.9600,3.332
14.0000,3.243
14.0400,3.205
14.0800,3.202
14.1200,3.262
14.1600,3.261
14.2000,3.245
14.2400,3.202
14.2800,3.242
14.3200,3.192
14.3600,3.178
14.4000,3.231
14.4400,3.159
14.4800,3.148
14.5200,3.209
14.5600,3.085
14.6000,3.139
14.6400,3.108
14.6800,3.115
14.7200,3.170
14.7600,3.100
14.8000,3.259
14.8400,3.201
14.8800,3.144
14.9200,3.133
14.9600,3.120
15.0000,3.103
15.0400,3.119
15.0800,3.149
15.1200,3.093
15.1600,3.198
15.2000,3.122
15.2400,3.154
15.2800,3.026
15.3200,3.113
15.3600,3.089
15.4000,3.093
15.4400,3.086
15.4800,3.090
15.5200,3.075
15.5600,2.985
15.6000,3.073
15.6400,3.034
15.6800,2.961
15.7200,2.996
15.7600,3.070
15.8000,3.026
15.8400,3.096
15.8800,3.018
15.9200,3.035
15.9600,2.990
16.0000,3.000
16.0400,3.073
16.0800,3.141
16.1200,3.063
16.1600,2.966
16.2000,3.099
16.2400,2.996
16.2800,3.022
16.3200,2.990
16.3600,2.930
16.4000,2.973
16.4400,2.989
16.4800,2.968
16.5200,2.931
16.5600,3.059
16.6000,3.019
16.6400,2.909
16.6800,2.861
16.7200,2.962
16.7600,2.983
16.8000,2.901
16.8400,3.002
16.8800,2.972
16.9200,2.979
16.9600,3.066
17.0000,2.940
17.0400,2.876
17.0800,2.966
17.1200,2.977
17.1600,2.957
17.2000,2.954
17.2400,2.869
17.2800,2.853
17.3200,2.948
17.3600,2.839
17.4000,2.949
17.4400,2.937
17.4800,2.938
17.5200,2.894
17.5600,2.822
17.6000,2.876
17.6400,2.923
17.6800,2.874
17.7200,2.917
17.7600,2.798
17.8000,2.914
17.8400,2.917
17.8800,2.852
17.9200,2.935
17.9600,2.835
18.0000,2.836
18.0400,2.814
18.0800,2.837
18.1200,2.880
18.1600,2.803
18.2000,2.798
18.2400,2.906
18.2800,2.850
18.3200,2.928
18.3600,2.867
18.4000,2.745
18.4400,2.850
18.4800,2.818
18.5200,2.890
18.5600,2.809
18.6000,2.796
18.6400,2.851
18.6800,2.803
18.7200,2.699
18.7600,2.710
18.8000,2.761
18.8400,2.737
18.8800,2.827
18.9200,2.721
18.9600,2.666
19.0000,2.678
19.0400,2.776
19.0800,2.745
19.1200,2.830
19.1600,2.841
19.2000,2.763
19.2400,2.775
19.2800,2.658
19.3200,2.722
19.3600,2.759
19.4000,2.806
19.4400,2.782
19.4800,2.625
19.5200,2.729
19.5600,2.732
19.6000,2.794
19.6400,2.662
19.6800,2.642
19.7200,2.688
19.7600,2.654
19.8000,2.729
19.8400,2.742
19.8800,2.698
19.9200,2.682
19.9600,2.656
20.0000,2.650
20.0400,2.708
20.0800,2.744
20.1200,2.716
20.1600,2.668
20.2000,2.659
20.2400,2.663
20.2800,2.629
20.3200,2.624
20.3600,2.639
20.4000,2.651
20.4400,2.648
20.4800,2.619
20.5200,2.633
20.5600,2.642
20.6000,2.621
20.6400,2.621
20.6800,2.606
20.7200,2.481
20.7600,2.642
20.8000,2.578
20.8400,2.564
20.8800,2.665
20.9200,2.581
20.9600,2.606
21.0000,2.558
21.0400,2.551
21.0800,2.584
21.1200,2.552
21.1600,2.553
21.2000,2.518
21.2400,2.508
21.2800,2.559
21.3200,2.567
21.3600,2.548
21.4000,2.546
21.4400,2.467
21.4800,2.515
21.5200,2.574
21.5600,2.568
21.6000,2.550
21.6400,2.415
21.6800,2.553
21.7200,2.519
21.7600,2.392
21.8000,2.528
21.8400,2.524
21.8800,2.493
21.9200,2.492
21.9600,2.440
22.0000,2.497
22.0400,2.526
22.0800,2.468
22.1200,2.430
22.1600,2.505
22.2000,2.521
22.2400,2.494
22.2800,2.479
22.3200,2.511
22.3600,2.373
22.4000,2.503
22.4400,2.403
22.4800,2.439
22.5200,2.421
22.5600,2.512
22.6000,2.403
22.6400,2.340
22.6800,2.372
22.7200,2.392
22.7600,2.381
22.8000,2.439
22.8400,2.453
22.8800,2.486
22.9200,2.447
22.9600,2.426
23.0000,2.462
23.0400,2.431
23.0800,2.380
23.1200,2.427
23.1600,2.343
23.2000,2.379
23.2400,2.462
23.2800,2.435
23.3200,2.428
23.3600,2.351
23.4000,2.355
23.4400,2.392
23.4800,2.339
23.5200,2.274
23.5600,2.331
23.6000,2.311
23.6400,2.353
23.6800,2.367
23.7200,2.371
23.7600,2.370
23.8000,2.296
23.8400,2.277
23.8800,2.290
23.9200,2.379
23.9600,2.339
24.0000,2.386
24.0400,2.251
24.0800,2.293
24.1200,2.265
24.1600,2.333
24.2000,2.272
24.2400,2.291
24.2800,2.321
24.3200,2.272
24.3600,2.316
24.4000,2.221
24.4400,2.238
24.4800,2.264
24.5200,2.276
24.5600,2.288
24.6000,2.260
24.6400,2.215
24.6800,2.183
24.7200,2.322
24.7600,2.249
24.8000,2.236
24.8400,2.213
24.8800,2.253
24.9200,2.210
24.9600,2.276
25.0000,2.177
25.0400,2.253
25.0800,2.194
25.1200,2.263
25.1600,2.258
25.2000,2.256
25.2400,2.182
25.2800,2.233
25.3200,2.129
25.3600,2.195
25.4000,2.244
25.4400,2.265
25.4800,2.151
25.5200,2.194
25.5600,2.135
25.6000,2.138
25.6400,2.170
25.6800,2.233
25.7200,2.239
25.7600,2.206
25.8000,2.154
25.8400,2.247
25.8800,2.264
25.9200,2.154
25.9600,2.205
26.0000,2.137
26.0400,2.126
26.0800,2.058
26.1200,2.186
26.1600,2.163
26.2000,2.058
26.2400,2.162
26.2800,2.121
26.3200,2.152
26.3600,2.150
26.4000,2.157
26.4400,2.152
26.4800,1.977
26.5200,2.187
26.5600,2.096
26.6000,2.027
26.6400,2.141
26.6800,2.169
26.7200,2.143
26.7600,2.021
26.8000,2.089
26.8400,2.098
26.8800,2.066
26.9200,2.066
26.9600,2.077
27.0000,2.021
27.0400,2.019
27.0800,2.055
27.1200,2.004
27.1600,2.037
27.2000,2.093
27.2400,2.059
27.2800,2.039
27.3200,2.048
27.3600,2.085
27.4000,2.061
27.4400,1.981
27.4800,2.050
27.5200,2.053
27.5600,2.158
27.6000,2.018
27.6400,2.045
27.6800,2.078
27.7200,2.103
27.7600,2.050
27.8000,2.058
27.8400,2.114
27.8800,2.047
27.9200,1.992
27.9600,2.025
28.0000,2.053
28.0400,2.036
28.0800,1.974
28.1200,2.019
28.1600,2.015
28.2000,1.966
28.2400,1.993
28.2800,1.973
28.3200,1.919
28.3600,1.993
28.4000,1.961
28.4400,1.923
28.4800,1.926
28.5200,2.015
28.5600,1.973
28.6000,1.925
28.6400,1.937
28.6800,1.972
28.7200,1.952
28.7600,1.969
28.8000,1.925
28.8400,1.889
28.8800,1.828
28.9200,1.880
28.9600,1.887
29.0000,2.022
29.0400,1.954
29.0800,1.836
29.1200,1.934
29.1600,1.971
29.2000,1.861
29.2400,1.821
29.2800,1.920
29.3200,1.920
29.3600,1.849
29.4000,1.906
29.4400,1.942
29.4800,1.924
29.5200,1.981
29.5600,1.894
29.6000,1.872
29.6400,1.899
29.6800,1.944
29.7200,1.873
29.7600,1.880
29.8000,1.920
29.8400,1.840
29.8800,1.820
29.9200,1.883
29.9600,1.857
30.0000,1.853
30.0400,1.867
30.0800,1.843
30.1200,1.855
30.1600,1.808
30.2000,1.885
30.2400,1.846
30.2800,1.805
30.3200,1.809
30.3600,1.868
30.4000,1.773
30.4400,1.838
30.4800,1.813
30.5200,1.869
30.5600,1.825
30.6000,1.818
30.6400,1.727
30.6800,1.783
30.7200,1.853
30.7600,1.841
30.8000,1.748
30.8400,1.768
30.8800,1.829
30.9200,1.777
30.9600,1.724
31.0000,1.763
31.0400,1.819
31.0800,1.785
31.1200,1.857
31.1600,1.824
31.2000,1.795
31.2400,1.782
31.2800,1.764
31.3200,1.749
31.3600,1.720
31.4000,1.709
31.4400,1.722
31.4800,1.755
31.5200,1.707
31.5600,1.646
31.6000,1.741
31.6400,1.701
31.6800,1.805
31.7200,1.734
31.7600,1.851
31.8000,1.755
31.8400,1.687
31.8800,1.700
31.9200,1.636
31.9600,1.708
32.0000,1.610
32.0400,1.713
32.0800,1.727
32.1200,1.733
32.1600,1.650
32.2000,1.678
32.2400,1.717
32.2800,1.655
32.3200,1.650
32.3600,1.694
32.4000,1.789
32.4400,1.648
32.4800,1.666
32.5200,1.717
32.5600,1.682
32.6000,1.632
32.6400,1.676
32.6800,1.679
32.7200,1.660
32.7600,1.709
32.8000,1.714
32.8400,1.699
32.8800,1.668
32.9200,1.652
32.9600,1.625
33.0000,1.698
33.0400,1.643
33.0800,1.695
33.1200,1.684
33.1600,1.755
33.2000,1.639
33.2400,1.772
33.2800,1.721
33.3200,1.668
33.3600,1.599
33.4000,1.613
33.4400,1.636
33.4800,1.605
33.5200,1.622
33.5600,1.639
33.6000,1.618
33.6400,1.590
33.6800,1.658
33.7200,1.658
33.7600,1.610
33.8000,1.615
33.8400,1.571
33.8800,1.601
33.9200,1.575
33.9600,1.588
34.0000,1.611
34.0400,1.620
34.0800,1.657
34.1200,1.528
34.1600,1.634
34.2000,1.601
34.2400,1.607
34.2800,1.583
34.3200,1.610
34.3600,1.627
34.4000,1.554
34.4400,1.526
34.4800,1.525
34.5200,1.534
34.5600,1.495
34.6000,1.575
34.6400,1.610
34.6800,1.619
34.7200,1.557
34.7600,1.583
34.8000,1.487
34.8400,1.520
34.8800,1.500
34.9200,1.601
34.9600,1.509
35.0000,1.534
35.0400,1.539
35.0800,1.489
35.1200,1.566
35.1600,1.541
35.2000,1.459
35.2400,1.616
35.2800,1.543
35.3200,1.543
35.3600,1.596
35.4000,1.559
35.4400,1.525
35.4800,1.522
35.5200,1.530
35.5600,1.625
35.6000,1.604
35.6400,1.502
35.6800,1.586
35.7200,1.572
35.7600,1.590
35.8000,1.547
35.8400,1.514
35.8800,1.544
35.9200,1.642
35.9600,1.577
36.0000,1.561
36.0400,1.544
36.0800,1.630
36.1200,1.563
36.1600,1.534
36.2000,1.518
36.2400,1.550
36.2800,1.535
36.3200,1.572
36.3600,1.502
36.4000,1.579
36.4400,1.593
36.4800,1.563
36.5200,1.596
36.5600,1.630
36.6000,1.612
36.6400,1.604
36.6800,1.521
36.7200,1.613
36.7600,1.525
36.8000,1.613
36.8400,1.584
36.8800,1.602
36.9200,1.602
36.9600,1.550
37.0000,1.584
37.0400,1.564
37.0800,1.622
37.1200,1.663
37.1600,1.690
37.2000,1.583
37.2400,1.693
37.2800,1.645
37.3200,1.722
37.3600,1.746
37.4000,1.733
37.4400,1.841
37.4800,1.957
37.5200,1.873
37.5600,1.958
37.6000,2.076
37.6400,2.210
37.6800,2.233
37.7200,2.395
37.7600,2.487
37.8000,2.607
37.8400,2.823
37.8800,3.085
37.9200,3.360
37.9600,3.775
38.0000,4.437
38.0400,5.027
38.0800,6.053
38.1200,7.170
38.1600,8.516
38.2000,9.554
38.2400,10.837
38.2800,11.687
38.3200,11.792
38.3600,11.206
38.4000,10.182
38.4400,9.162
38.4800,7.644
38.5200,6.560
38.5600,5.527
38.6000,4.783
38.6400,4.222
38.6800,3.716
38.7200,3.252
38.7600,2.955
38.8000,2.795
38.8400,2.502
38.8800,2.458
38.9200,2.298
38.9600,2.141
39.0000,2.058
39.0400,2.039
39.0800,1.910
39.1200,1.931
39.1600,1.845
39.2000,1.817
39.2400,1.735
39.2800,1.797
39.3200,1.666
39.3600,1.698
39.4000,1.732
39.4400,1.662
39.4800,1.681
39.5200,1.709
39.5600,1.647
39.6000,1.653
39.6400,1.650
39.6800,1.581
39.7200,1.663
39.7600,1.543
39.8000,1.579
39.8400,1.527
39.8800,1.456
39.9200,1.537
39.9600,1.486
40.0000,1.489
40.0400,1.511
40.0800,1.419
40.1200,1.421
40.1600,1.427
40.2000,1.458
40.2400,1.382
40.2800,1.361
40.3200,1.367
40.3600,1.357
40.4000,1.364
40.4400,1.324
40.4800,1.360
40.5200,1.402
40.5600,1.340
40.6000,1.390
40.6400,1.372
40.6800,1.410
40.7200,1.398
40.7600,1.377
40.8000,1.338
40.8400,1.376
40.8800,1.412
40.9200,1.479
40.9600,1.436
41.0000,1.428
41.0400,1.425
41.0800,1.436
41.1200,1.487
41.1600,1.415
41.2000,1.431
41.2400,1.436
41.2800,1.456
41.3200,1.448
41.3600,1.314
41.4000,1.346
41.4400,1.332
41.4800,1.294
41.5200,1.331
41.5600,1.294
41.6000,1.311
41.6400,1.264
41.6800,1.234
41.7200,1.219
41.7600,1.233
41.8000,1.228
41.8400,1.196
41.8800,1.224
41.9200,1.264
41.9600,1.197
42.0000,1.191
42.0400,1.197
42.0800,1.242
42.1200,1.232
42.1600,1.256
42.2000,1.231
42.2400,1.169
42.2800,1.215
42.3200,1.183
42.3600,1.159
42.4000,1.162
42.4400,1.158
42.4800,1.260
42.5200,1.219
42.5600,1.226
42.6000,1.183
42.6400,1.140
42.6800,1.158
42.7200,1.132
42.7600,1.167
42.8000,1.229
42.8400,1.096
42.8800,1.202
42.9200,1.242
42.9600,1.180
43.0000,1.218
43.0400,1.215
43.0800,1.197
43.1200,1.217
43.1600,1.233
43.2000,1.273
43.2400,1.265
43.2800,1.284
43.3200,1.281
43.3600,1.220
43.4000,1.323
43.4400,1.268
43.4800,1.328
43.5200,1.327
43.5600,1.278
43.6000,1.355
43.6400,1.394
43.6800,1.328
43.7200,1.398
43.7600,1.462
43.8000,1.432
43.8400,1.504
43.8800,1.517
43.9200,1.566
43.9600,1.676
44.0000,1.751
44.0400,1.861
44.0800,1.934
44.1200,2.050
44.1600,2.143
44.2000,2.228
44.2400,2.429
44.2800,2.521
44.3200,2.819
44.3600,3.017
44.4000,3.161
44.4400,3.415
44.4800,3.605
44.5200,3.592
44.5600,3.533
44.6000,3.369
44.6400,3.326
44.6800,3.107
44.7200,3.020
44.7600,2.689
44.8000,2.444
44.8400,2.280
44.8800,2.120
44.9200,1.976
44.9600,1.793
45.0000,1.729
45.0400,1.645
45.0800,1.606
45.1200,1.514
45.1600,1.386
45.2000,1.399
45.2400,1.385
45.2800,1.338
45.3200,1.311
45.3600,1.239
45.4000,1.222
45.4400,1.186
45.4800,1.136
45.5200,1.153
45.5600,1.144
45.6000,1.133
45.6400,1.072
45.6800,1.135
45.7200,1.131
45.7600,1.055
45.8000,1.035
45.8400,1.053
45.8800,1.038
45.9200,1.013
45.9600,1.021
46.0000,1.009
46.0400,1.026
46.0800,1.002
46.1200,0.970
46.1600,0.975
46.2000,0.954
46.2400,0.975
46.2800,0.999
46.3200,0.984
46.3600,0.975
46.4000,0.926
46.4400,0.936
46.4800,0.980
46.5200,0.940
46.5600,0.959
46.6000,0.965
46.6400,0.993
46.6800,0.950
46.7200,0.930
46.7600,0.941
46.8000,0.922
46.8400,0.996
46.8800,0.937
46.9200,0.924
46.9600,0.941
47.0000,0.868
47.0400,0.907
47.0800,0.867
47.1200,0.888
47.1600,0.923
47.2000,0.900
47.2400,0.942
47.2800,0.904
47.3200,0.905
47.3600,0.975
47.4000,0.933
47.4400,0.932
47.4800,0.879
47.5200,0.913
47.5600,0.902
47.6000,0.919
47.6400,0.883
47.6800,0.884
47.7200,0.906
47.7600,0.953
47.8000,0.912
47.8400,0.905
47.8800,0.883
47.9200,0.907
47.9600,0.874
48.0000,0.864
48.0400,0.855
48.0800,0.860
48.1200,0.898
48.1600,0.927
48.2000,0.908
48.2400,0.867
48.2800,0.840
48.3200,0.897
48.3600,0.830
48.4000,0.926
48.4400,0.816
48.4800,0.876
48.5200,0.847
48.5600,0.872
48.6000,0.811
48.6400,0.851
48.6800,0.829
48.7200,0.801
48.7600,0.841
48.8000,0.885
48.8400,0.886
48.8800,0.768
48.9200,0.831
48.9600,0.829
49.0000,0.817
49.0400,0.818
49.0800,0.803
49.1200,0.826
49.1600,0.766
49.2000,0.754
49.2400,0.790
49.2800,0.799
49.3200,0.835
49.3600,0.832
49.4000,0.781
49.4400,0.783
49.4800,0.823
49.5200,0.794
49.5600,0.831
49.6000,0.794
49.6400,0.769
49.6800,0.792
49.7200,0.861
49.7600,0.785
49.8000,0.788
49.8400,0.800
49.8800,0.772
49.9200,0.806
49.9600,0.817
50.0000,0.743
50.0400,0.791
50.0800,0.800
50.1200,0.802
50.1600,0.780
50.2000,0.772
50.2400,0.737
50.2800,0.754
50.3200,0.788
50.3600,0.748
50.4000,0.814
50.4400,0.805
50.4800,0.768
50.5200,0.792
50.5600,0.786
50.6000,0.808
50.6400,0.761
50.6800,0.736
50.7200,0.780
50.7600,0.808
50.8000,0.744
50.8400,0.761
50.8800,0.763
50.9200,0.783
50.9600,0.749
51.0000,0.736
51.0400,0.775
51.0800,0.723
51.1200,0.717
51.1600,0.742
51.2000,0.772
51.2400,0.778
51.2800,0.736
51.3200,0.731
51.3600,0.728
51.4000,0.724
51.4400,0.757
51.4800,0.698
51.5200,0.754
51.5600,0.734
51.6000,0.732
51.6400,0.724
51.6800,0.761
51.7200,0.756
51.7600,0.737
51.8000,0.781
51.8400,0.789
51.8800,0.702
51.9200,0.768
51.9600,0.741
52.0000,0.752
52.0400,0.699
52.0800,0.700
52.1200,0.750
52.1600,0.733
52.2000,0.700
52.2400,0.741
52.2800,0.741
52.3200,0.682
52.3600,0.722
52.4000,0.734
52.4400,0.683
52.4800,0.673
52.5200,0.721
52.5600,0.693
52.6000,0.717
52.6400,0.732
52.6800,0.699
52.7200,0.677
52.7600,0.728
52.8000,0.754
52.8400,0.760
52.8800,0.714
52.9200,0.688
52.9600,0.697
53.0000,0.743
53.0400,0.736
53.0800,0.685
53.1200,0.681
53.1600,0.718
53.2000,0.706
53.2400,0.701
53.2800,0.717
53.3200,0.674
53.3600,0.683
53.4000,0.737
53.4400,0.691
53.4800,0.666
53.5200,0.714
53.5600,0.703
53.6000,0.690
53.6400,0.701
53.6800,0.686
53.7200,0.737
53.7600,0.680
53.8000,0.736
53.8400,0.709
53.8800,0.679
53.9200,0.668
53.9600,0.709
54.0000,0.686
54.0400,0.695
54.0800,0.703
54.1200,0.710
54.1600,0.688
54.2000,0.675
54.2400,0.707
54.2800,0.718
54.3200,0.661
54.3600,0.675
54.4000,0.645
54.4400,0.667
54.4800,0.687
54.5200,0.635
54.5600,0.687
54.6000,0.651
54.6400,0.664
54.6800,0.643
54.7200,0.655
54.7600,0.682
54.8000,0.673
54.8400,0.665
54.8800,0.687
54.9200,0.632
54.9600,0.638
55.0000,0.643
55.0400,0.665
55.0800,0.678
55.1200,0.615
55.1600,0.637
55.2000,0.678
55.2400,0.649
55.2800,0.657
55.3200,0.627
55.3600,0.659
55.4000,0.624
55.4400,0.643
55.4800,0.632
55.5200,0.640
55.5600,0.663
55.6000,0.645
55.6400,0.624
55.6800,0.658
55.7200,0.658
55.7600,0.654
55.8000,0.643
55.8400,0.609
55.8800,0.655
55.9200,0.672
55.9600,0.647
56.0000,0.611
56.0400,0.597
56.0800,0.637
56.1200,0.634
56.1600,0.668
56.2000,0.658
56.2400,0.671
56.2800,0.648
56.3200,0.654
56.3600,0.613
56.4000,0.611
56.4400,0.613
56.4800,0.658
56.5200,0.689
56.5600,0.647
56.6000,0.620
56.6400,0.639
56.6800,0.604
56.7200,0.594
56.7600,0.598
56.8000,0.634
56.8400,0.606
56.8800,0.625
56.9200,0.639
56.9600,0.602
57.0000,0.589
57.0400,0.611
57.0800,0.592
57.1200,0.612
57.1600,0.634
57.2000,0.625
57.2400,0.625
57.2800,0.635
57.3200,0.634
57.3600,0.654
57.4000,0.590
57.4400,0.625
57.4800,0.612
57.5200,0.655
57.5600,0.650
57.6000,0.652
57.6400,0.614
57.6800,0.629
57.7200,0.625
57.7600,0.675
57.8000,0.597
57.8400,0.646
57.8800,0.637
57.9200,0.625
57.9600,0.573
58.0000,0.612
58.0400,0.624
58.0800,0.666
58.1200,0.642
58.1600,0.609
58.2000,0.610
58.2400,0.646
58.2800,0.673
58.3200,0.605
58.3600,0.595
58.4000,0.604
58.4400,0.618
58.4800,0.627
58.5200,0.611
58.5600,0.600
58.6000,0.559
58.6400,0.593
58.6800,0.610
58.7200,0.604
58.7600,0.597
58.8000,0.612
58.8400,0.592
58.8800,0.576
58.9200,0.576
58.9600,0.572
59.0000,0.629
59.0400,0.603
59.0800,0.604
59.1200,0.592
59.1600,0.577
59.2000,0.556
59.2400,0.575
59.2800,0.604
59.3200,0.588
59.3600,0.593
59.4000,0.586
59.4400,0.585
59.4800,0.585
59.5200,0.579
59.5600,0.617
59.6000,0.570
59.6400,0.513
59.6800,0.558
59.7200,0.560
59.7600,0.599
59.8000,0.565
59.8400,0.573
59.8800,0.583
59.9200,0.582
59.9600,0.591
60.0000,0.541
60.0400,0.573
60.0800,0.615
60.1200,0.559
60.1600,0.591
60.2000,0.600
60.2400,0.577
60.2800,0.577
60.3200,0.546
60.3600,0.562
60.4000,0.606
60.4400,0.563
60.4800,0.563
60.5200,0.558
60.5600,0.589
60.6000,0.542
60.6400,0.531
60.6800,0.549
60.7200,0.566
60.7600,0.573
60.8000,0.537
60.8400,0.522
60.8800,0.560
60.9200,0.586
60.9600,0.570
61.0000,0.592
61.0400,0.568
61.0800,0.586
61.1200,0.594
61.1600,0.546
61.2000,0.561
61.2400,0.571
61.2800,0.524
61.3200,0.597
61.3600,0.582
61.4000,0.571
61.4400,0.570
61.4800,0.570
61.5200,0.579
61.5600,0.559
61.6000,0.610
61.6400,0.611
61.6800,0.703
61.7200,0.622
61.7600,0.572
61.8000,0.587
61.8400,0.584
61.8800,0.542
61.9200,0.563
61.9600,0.533
62.0000,0.528
62.0400,0.580
62.0800,0.611
62.1200,0.496
62.1600,0.582
62.2000,0.528
62.2400,0.548
62.2800,0.552
62.3200,0.566
62.3600,0.537
62.4000,0.534
62.4400,0.579
62.4800,0.586
62.5200,0.551
62.5600,0.567
62.6000,0.591
62.6400,0.571
62.6800,0.513
62.7200,0.583
62.7600,0.540
62.8000,0.569
62.8400,0.577
62.8800,0.553
62.9200,0.578
62.9600,0.559
63.0000,0.562
63.0400,0.558
63.0800,0.604
63.1200,0.534
63.1600,0.595
63.2000,0.556
63.2400,0.628
63.2800,0.534
63.3200,0.563
63.3600,0.573
63.4000,0.624
63.4400,0.618
63.4800,0.618
63.5200,0.624
63.5600,0.628
63.6000,0.621
63.6400,0.593
63.6800,0.622
63.7200,0.687
63.7600,0.623
63.8000,0.628
63.8400,0.687
63.8800,0.661
63.9200,0.663
63.9600,0.685
64.0000,0.654
64.0400,0.703
64.0800,0.738
64.1200,0.774
64.1600,0.792
64.2000,0.803
64.2400,0.856
64.2800,0.888
64.3200,0.879
64.3600,0.967
64.4000,0.928
64.4400,1.063
64.4800,1.158
64.5200,1.234
64.5600,1.237
64.6000,1.386
64.6400,1.489
64.6800,1.592
64.7200,1.683
64.7600,1.781
64.8000,1.731
64.8400,1.771
64.8800,1.777
64.9200,1.727
64.9600,1.677
65.0000,1.545
65.0400,1.443
65.0800,1.332
65.1200,1.283
65.1600,1.165
65.2000,1.144
65.2400,1.060
65.2800,1.000
65.3200,0.960
65.3600,0.970
65.4000,0.904
65.4400,0.886
65.4800,0.851
65.5200,0.875
65.5600,0.826
65.6000,0.817
65.6400,0.789
65.6800,0.801
65.7200,0.836
65.7600,0.804
65.8000,0.763
65.8400,0.795
65.8800,0.795
65.9200,0.781
65.9600,0.742
66.0000,0.734
66.0400,0.791
66.0800,0.800
66.1200,0.874
66.1600,0.812
66.2000,0.753
66.2400,0.826
66.2800,0.803
66.3200,0.814
66.3600,0.820
66.4000,0.802
66.4400,0.835
66.4800,0.842
66.5200,0.871
66.5600,0.777
66.6000,0.879
66.6400,0.857
66.6800,0.874
66.7200,0.897
66.7600,0.918
66.8000,0.900
66.8400,0.904
66.8800,0.893
66.9200,0.958
66.9600,0.980
67.0000,0.953
67.0400,0.988
67.0800,0.953
67.1200,1.033
67.1600,0.992
67.2000,1.044
67.2400,1.058
67.2800,1.077
67.3200,1.113
67.3600,1.071
67.4000,1.133
67.4400,1.145
67.4800,1.128
67.5200,1.197
67.5600,1.227
67.6000,1.270
67.6400,1.280
67.6800,1.377
67.7200,1.276
67.7600,1.323
67.8000,1.333
67.8400,1.407
67.8800,1.491
67.9200,1.477
67.9600,1.607
68.0000,1.581
68.0400,1.549
68.0800,1.768
68.1200,1.656
68.1600,1.671
68.2000,1.828
68.2400,1.834
68.2800,1.924
68.3200,1.899
68.3600,1.965
68.4000,2.025
68.4400,2.143
68.4800,2.309
68.5200,2.450
68.5600,2.628
68.6000,2.792
68.6400,3.023
68.6800,3.467
68.7200,4.455
68.7600,5.548
68.8000,6.743
68.8400,7.020
68.8800,7.330
68.9200,8.630
68.9600,11.159
69.0000,17.908
69.0400,35.549
69.0800,139.621
69.1200,427.401
69.1600,409.951
69.2000,133.662
69.2400,50.628
69.2800,96.736
69.3200,233.832
69.3600,209.663
69.4000,68.108
69.4400,21.428
69.4800,11.975
69.5200,8.720
69.5600,6.767
69.6000,5.625
69.6400,4.964
69.6800,4.200
69.7200,3.863
69.7600,3.598
69.8000,3.311
69.8400,3.013
69.8800,2.762
69.9200,2.701
69.9600,2.658
70.0000,2.470
70.0400,2.433
70.0800,2.220
70.1200,2.169
70.1600,2.163
70.2000,2.122
70.2400,2.047
70.2800,1.788
70.3200,1.830
70.3600,1.798
70.4000,1.798
70.4400,1.665
70.4800,1.584
70.5200,1.505
70.5600,1.499
70.6000,1.514
70.6400,1.489
70.6800,1.382
70.7200,1.381
70.7600,1.318
70.8000,1.267
70.8400,1.264
70.8800,1.291
70.9200,1.242
70.9600,1.179
71.0000,1.188
71.0400,1.159
71.0800,1.122
71.1200,1.048
71.1600,1.017
71.2000,1.012
71.2400,0.978
71.2800,0.979
71.3200,1.018
71.3600,0.929
71.4000,0.924
71.4400,0.910
71.4800,0.841
71.5200,0.884
71.5600,0.858
71.6000,0.862
71.6400,0.829
71.6800,0.812
71.7200,0.841
71.7600,0.849
71.8000,0.785
71.8400,0.746
71.8800,0.738
71.9200,0.757
71.9600,0.782
72.0000,0.751
72.0400,0.723
72.0800,0.696
72.1200,0.633
72.1600,0.697
72.2000,0.696
72.2400,0.609
72.2800,0.634
72.3200,0.642
72.3600,0.632
72.4000,0.631
72.4400,0.598
72.4800,0.563
72.5200,0.570
72.5600,0.561
72.6000,0.588
72.6400,0.572
72.6800,0.626
72.7200,0.581
72.7600,0.557
72.8000,0.578
72.8400,0.539
72.8800,0.577
72.9200,0.543
72.9600,0.497
73.0000,0.529
73.0400,0.515
73.0800,0.511
73.1200,0.508
73.1600,0.510
73.2000,0.535
73.2400,0.507
73.2800,0.482
73.3200,0.504
73.3600,0.522
73.4000,0.493
73.4400,0.482
73.4800,0.488
73.5200,0.508
73.5600,0.476
73.6000,0.493
73.6400,0.502
73.6800,0.473
73.7200,0.492
73.7600,0.448
73.8000,0.417
73.8400,0.459
73.8800,0.438
73.9200,0.492
73.9600,0.471
74.0000,0.436
74.0400,0.435
74.0800,0.410
74.1200,0.412
74.1600,0.412
74.2000,0.414
74.2400,0.427
74.2800,0.391
74.3200,0.423
74.3600,0.409
74.4000,0.429
74.4400,0.418
74.4800,0.407
74.5200,0.467
74.5600,0.413
74.6000,0.410
74.6400,0.423
74.6800,0.443
74.7200,0.404
74.7600,0.413
74.8000,0.412
74.8400,0.426
74.8800,0.424
74.9200,0.406
74.9600,0.431
75.0000,0.412
75.0400,0.396
75.0800,0.381
75.1200,0.389
75.1600,0.424
75.2000,0.376
75.2400,0.380
75.2800,0.410
75.3200,0.385
75.3600,0.400
75.4000,0.374
75.4400,0.413
75.4800,0.374
75.5200,0.408
75.5600,0.409
75.6000,0.367
75.6400,0.384
75.6800,0.401
75.7200,0.398
75.7600,0.377
75.8000,0.354
75.8400,0.394
75.8800,0.368
75.9200,0.367
75.9600,0.382
76.0000,0.405
76.0400,0.383
76.0800,0.424
76.1200,0.391
76.1600,0.380
76.2000,0.375
76.2400,0.356
76.2800,0.410
76.3200,0.419
76.3600,0.393
76.4000,0.447
76.4400,0.424
76.4800,0.396
76.5200,0.396
76.5600,0.440
76.6000,0.410
76.6400,0.433
76.6800,0.428
76.7200,0.470
76.7600,0.461
76.8000,0.436
76.8400,0.435
76.8800,0.467
76.9200,0.491
76.9600,0.463
77.0000,0.505
77.0400,0.502
77.0800,0.516
77.1200,0.548
77.1600,0.571
77.2000,0.572
77.2400,0.607
77.2800,0.617
77.3200,0.630
77.3600,0.677
77.4000,0.719
77.4400,0.759
77.4800,0.794
77.5200,0.934
77.5600,0.963
77.6000,1.044
77.6400,1.111
77.6800,1.142
77.7200,1.220
77.7600,1.273
77.8000,1.237
77.8400,1.297
77.8800,1.325
77.9200,1.222
77.9600,1.227
78.0000,1.211
78.0400,1.123
78.0800,1.072
78.1200,0.991
78.1600,0.992
78.2000,0.915
78.2400,0.879
78.2800,0.757
78.3200,0.759
78.3600,0.653
78.4000,0.630
78.4400,0.658
78.4800,0.557
78.5200,0.582
78.5600,0.531
78.6000,0.527
78.6400,0.547
78.6800,0.482
78.7200,0.486
78.7600,0.501
78.8000,0.462
78.8400,0.423
78.8800,0.448
78.9200,0.424
78.9600,0.398
79.0000,0.386
79.0400,0.415
79.0800,0.398
79.1200,0.401
79.1600,0.379
79.2000,0.397
79.2400,0.399
79.2800,0.370
79.3200,0.359
79.3600,0.329
79.4000,0.345
79.4400,0.363
79.4800,0.372
79.5200,0.350
79.5600,0.343
79.6000,0.399
79.6400,0.378
79.6800,0.344
79.7200,0.330
79.7600,0.350
79.8000,0.367
79.8400,0.361
79.8800,0.344
79.9200,0.332
79.9600,0.332
80.0000,0.357
