theta,intensity
5.0000,4.224
5.0400,4.288
5.0800,4.203
5.1200,4.227
5.1600,4.284
5.2000,4.254
5.2400,4.225
5.2800,4.289
5.3200,4.208
5.3600,4.242
5.4000,4.181
5.4400,4.231
5.4800,4.165
5.5200,4.137
5.5600,4.132
5.6000,4.145
5.6400,4.089
5.6800,4.110
5.7200,4.083
5.7600,4.018
5.8000,4.154
5.8400,4.057
5.8800,4.079
5.9200,4.012
5.9600,3.983
6.0000,4.049
6.0400,4.067
6.0800,3.992
6.1200,4.013
6.1600,4.036
6.2000,3.890
6.2400,3.974
6.2800,4.084
6.3200,4.036
6.3600,3.936
6.4000,3.981
6.4400,3.995
6.4800,4.023
6.5200,3.884
6.5600,3.865
6.6000,3.927
6.6400,3.956
6.6800,3.809
6.7200,3.890
6.7600,3.915
6.8000,3.968
6.8400,3.828
6.8800,3.847
6.9200,3.836
6.9600,3.999
7.0000,3.976
7.0400,3.970
7.0800,3.792
7.1200,3.779
7.1600,3.836
7.2000,3.898
7.2400,3.908
7.2800,3.926
7.3200,3.842
7.3600,3.773
7.4000,3.879
7.4400,3.819
7.4800,3.832
7.5200,3.931
7.5600,3.844
7.6000,3.810
7.6400,3.827
7.6800,3.817
7.7200,3.863
7.7600,3.857
7.8000,3.857
7.8400,3.807
7.8800,3.862
7.9200,3.721
7.9600,3.816
8.0000,3.794
8.0400,3.796
8.0800,3.882
8.1200,3.873
8.1600,3.694
8.2000,3.786
8.2400,3.641
8.2800,3.698
8.3200,3.802
8.3600,3.706
8.4000,3.671
8.4400,3.788
8.4800,3.793
8.5200,3.725
8.5600,3.820
8.6000,3.659
8.6400,3.777
8.6800,3.790
8.7200,3.684
8.7600,3.718
8.8000,3.668
8.8400,3.683
8.8800,3.705
8.9200,3.595
8.9600,3.664
9.0000,3.725
9.0400,3.825
9.0800,3.625
9.1200,3.814
9.1600,3.695
9.2000,3.730
9.2400,3.587
9.2800,3.670
9.3200,3.722
9.3600,3.669
9.4000,3.723
9.4400,3.678
9.4800,3.644
9.5200,3.624
9.5600,3.627
9.6000,3.698
9.6400,3.584
9.6800,3.615
9.7200,3.602
9.7600,3.638
9.8000,3.637
9.8400,3.592
9.8800,3.576
9.9200,3.552
9.9600,3.614
10.0000,3.610
10.0400,3.583
10.0800,3.589
10.1200,3.540
10.1600,3.583
10.2000,3.623
10.2400,3.505
10.2800,3.582
10.3200,3.491
10.3600,3.580
10.4000,3.586
10.4400,3.509
10.4800,3.634
10.5200,3.665
10.5600,3.470
10.6000,3.563
10.6400,3.475
10.6800,3.573
10.7200,3.613
10.7600,3.508
10.8000,3.528
10.8400,3.500
10.8800,3.518
10.9200,3.593
10.9600,3.471
11.0000,3.492
11.0400,3.397
11.0800,3.452
11.1200,3.466
11.1600,3.458
11.2000,3.449
11.2400,3.349
11.2800,3.423
11.3200,3.482
11.3600,3.451
11.4000,3.531
11.4400,3.382
11.4800,3.438
11.5200,3.432
11.5600,3.457
11.6000,3.503
11.6400,3.584
11.6800,3.451
11.7200,3.337
11.7600,3.402
11.8000,3.263
11.8400,3.349
11.8800,3.434
11.9200,3.395
11.9600,3.418
12.0000,3.340
12.0400,3.445
12.0800,3.449
12.1200,3.404
12.1600,3.320
12.2000,3.500
12.2400,3.433
12.2800,3.444
12.3200,3.395
12.3600,3.339
12.4000,3.398
12.4400,3.325
12.4800,3.445
12.5200,3.396
12.5600,3.333
12.6000,3.392
12.6400,3.324
12.6800,3.373
12.7200,3.443
12.7600,3.280
12.8000,3.294
12.8400,3.319
12.8800,3.272
12.9200,3.380
12.9600,3.373
13.0000,3.297
13.0400,3.396
13.0800,3.256
13.1200,3.307
13.1600,3.347
13.2000,3.249
13.2400,3.264
13.2800,3.245
13.3200,3.204
13.3600,3.213
13.4000,3.274
13.4400,3.201
13.4800,3.270
13.5200,3.309
13.5600,3.283
13.6000,3.162
13.6400,3.159
13.6800,3.261
13.7200,3.284
13.7600,3.253
13.8000,3.236
13.8400,3.164
13.8800,3.162
13.9200,3.255
13.9600,3.229
14.0000,3.221
14.0400,3.170
14.0800,3.145
14.1200,3.144
14.1600,3.181
14.2000,3.216
14.2400,3.247
14.2800,3.268
14.3200,3.355
14.3600,3.160
14.4000,3.166
14.4400,3.285
14.4800,3.223
14.5200,3.220
14.5600,3.205
14.6000,3.181
14.6400,3.152
14.6800,3.102
14.7200,3.235
14.7600,3.199
14.8000,3.181
14.8400,3.186
14.8800,3.115
14.9200,3.142
14.9600,3.149
15.0000,3.048
15.0400,3.119
15.0800,3.178
15.1200,3.225
15.1600,3.115
15.2000,3.140
15.2400,3.134
15.2800,3.100
15.3200,3.158
15.3600,3.108
15.4000,3.035
15.4400,3.103
15.4800,3.105
15.5200,3.046
15.5600,2.983
15.6000,3.140
15.6400,2.985
15.6800,3.007
15.7200,3.020
15.7600,2.968
15.8000,3.028
15.8400,3.052
15.8800,3.014
15.9200,3.002
15.9600,2.999
16.0000,2.990
16.0400,3.039
16.0800,3.129
16.1200,3.005
16.1600,3.056
16.2000,3.008
16.2400,3.108
16.2800,2.980
16.3200,3.112
16.3600,3.185
16.4000,2.982
16.4400,3.038
16.4800,2.934
16.5200,2.947
16.5600,3.028
16.6000,2.991
16.6400,3.053
16.6800,2.969
16.7200,2.963
16.7600,2.960
16.8000,3.048
16.8400,2.997
16.8800,2.893
16.9200,2.912
16.9600,3.043
17.0000,2.931
17.0400,2.889
17.0800,2.906
17.1200,2.856
17.1600,2.854
17.2000,2.862
17.2400,3.041
17.2800,2.859
17.3200,2.936
17.3600,2.923
17.4000,2.957
17.4400,2.975
17.4800,3.051
17.5200,2.948
17.5600,2.979
17.6000,2.948
17.6400,2.927
17.6800,2.826
17.7200,2.958
17.7600,2.869
17.8000,2.838
17.8400,2.810
17.8800,2.821
17.9200,2.917
17.9600,2.871
18.0000,2.754
18.0400,2.781
18.0800,2.847
18.1200,2.795
18.1600,2.891
18.2000,2.841
18.2400,2.893
18.2800,2.728
18.3200,2.766
18.3600,2.813
18.4000,2.741
18.4400,2.897
18.4800,2.775
18.5200,2.725
18.5600,2.886
18.6000,2.805
18.6400,2.761
18.6800,2.791
18.7200,2.792
18.7600,2.769
18.8000,2.822
18.8400,2.685
18.8800,2.722
18.9200,2.755
18.9600,2.804
19.0000,2.804
19.0400,2.728
19.0800,2.709
19.1200,2.739
19.1600,2.761
19.2000,2.689
19.2400,2.689
19.2800,2.749
19.3200,2.753
19.3600,2.690
19.4000,2.597
19.4400,2.785
19.4800,2.677
19.5200,2.756
19.5600,2.785
19.6000,2.741
19.6400,2.706
19.6800,2.641
19.7200,2.779
19.7600,2.740
19.8000,2.698
19.8400,2.641
19.8800,2.640
19.9200,2.733
19.9600,2.760
20.0000,2.704
20.0400,2.758
20.0800,2.711
20.1200,2.678
20.1600,2.715
20.2000,2.654
20.2400,2.671
20.2800,2.644
20.3200,2.547
20.3600,2.659
20.4000,2.596
20.4400,2.620
20.4800,2.628
20.5200,2.655
20.5600,2.634
20.6000,2.681
20.6400,2.577
20.6800,2.537
20.7200,2.613
20.7600,2.712
20.8000,2.654
20.8400,2.731
20.8800,2.580
20.9200,2.649
20.9600,2.622
21.0000,2.591
21.0400,2.583
21.0800,2.560
21.1200,2.619
21.1600,2.542
21.2000,2.619
21.2400,2.605
21.2800,2.639
21.3200,2.624
21.3600,2.560
21.4000,2.655
21.4400,2.487
21.4800,2.561
21.5200,2.632
21.5600,2.556
21.6000,2.714
21.6400,2.663
21.6800,2.656
21.7200,2.603
21.7600,2.634
21.8000,2.607
21.8400,2.650
21.8800,2.574
21.9200,2.501
21.9600,2.556
22.0000,2.528
22.0400,2.523
22.0800,2.471
22.1200,2.397
22.1600,2.455
22.2000,2.601
22.2400,2.546
22.2800,2.437
22.3200,2.441
22.3600,2.453
22.4000,2.388
22.4400,2.479
22.4800,2.614
22.5200,2.506
22.5600,2.420
22.6000,2.509
22.6400,2.572
22.6800,2.496
22.7200,2.443
22.7600,2.381
22.8000,2.439
22.8400,2.388
22.8800,2.299
22.9200,2.391
22.9600,2.363
23.0000,2.393
23.0400,2.440
23.0800,2.389
23.1200,2.432
23.1600,2.402
23.2000,2.375
23.2400,2.382
23.2800,2.300
23.3200,2.400
23.3600,2.393
23.4000,2.380
23.4400,2.317
23.4800,2.373
23.5200,2.333
23.5600,2.354
23.6000,2.285
23.6400,2.364
23.6800,2.316
23.7200,2.347
23.7600,2.328
23.8000,2.291
23.8400,2.426
23.8800,2.368
23.9200,2.304
23.9600,2.315
24.0000,2.317
24.0400,2.274
24.0800,2.322
24.1200,2.346
24.1600,2.292
24.2000,2.288
24.2400,2.268
24.2800,2.241
24.3200,2.301
24.3600,2.192
24.4000,2.205
24.4400,2.256
24.4800,2.301
24.5200,2.261
24.5600,2.292
24.6000,2.307
24.6400,2.308
24.6800,2.221
24.7200,2.222
24.7600,2.192
24.8000,2.176
24.8400,2.290
24.8800,2.282
24.9200,2.282
24.9600,2.263
25.0000,2.244
25.0400,2.304
25.0800,2.250
25.1200,2.238
25.1600,2.256
25.2000,2.205
25.2400,2.278
25.2800,2.267
25.3200,2.239
25.3600,2.217
25.4000,2.157
25.4400,2.208
25.4800,2.144
25.5200,2.164
25.5600,2.252
25.6000,2.264
25.6400,2.139
25.6800,2.169
25.7200,2.174
25.7600,2.254
25.8000,2.214
25.8400,2.187
25.8800,2.193
25.9200,2.086
25.9600,2.270
26.0000,2.122
26.0400,2.154
26.0800,2.118
26.1200,2.120
26.1600,2.081
26.2000,2.166
26.2400,2.113
26.2800,2.106
26.3200,2.103
26.3600,2.106
26.4000,2.126
26.4400,2.050
26.4800,2.149
26.5200,2.115
26.5600,2.152
26.6000,2.120
26.6400,2.092
26.6800,2.077
26.7200,2.112
26.7600,2.068
26.8000,2.112
26.8400,2.110
26.8800,2.152
26.9200,2.060
26.9600,2.060
27.0000,2.061
27.0400,2.029
27.0800,2.014
27.1200,1.998
27.1600,2.060
27.2000,2.031
27.2400,2.034
27.2800,2.073
27.3200,2.043
27.3600,1.995
27.4000,2.085
27.4400,1.974
27.4800,2.043
27.5200,2.071
27.5600,2.049
27.6000,2.057
27.6400,2.018
27.6800,2.005
27.7200,1.967
27.7600,2.055
27.8000,1.950
27.8400,1.928
27.8800,1.979
27.9200,2.065
27.9600,2.018
28.0000,2.003
28.0400,1.950
28.0800,2.008
28.1200,1.945
28.1600,1.990
28.2000,1.943
28.2400,1.911
28.2800,1.994
28.3200,1.980
28.3600,1.951
28.4000,1.915
28.4400,2.041
28.4800,1.956
28.5200,2.001
28.5600,1.894
28.6000,1.958
28.6400,1.936
28.6800,1.920
28.7200,1.958
28.7600,1.945
28.8000,1.968
28.8400,1.912
28.8800,1.867
28.9200,1.910
28.9600,1.880
29.0000,1.905
29.0400,1.870
29.0800,1.841
29.1200,1.879
29.1600,1.908
29.2000,1.833
29.2400,1.889
29.2800,1.874
29.3200,1.903
29.3600,1.942
29.4000,1.858
29.4400,1.871
29.4800,1.912
29.5200,1.921
29.5600,1.908
29.6000,1.894
29.6400,1.942
29.6800,1.930
29.7200,1.909
29.7600,1.950
29.8000,1.966
29.8400,2.022
29.8800,1.917
29.9200,1.950
29.9600,1.932
30.0000,2.025
30.0400,2.068
30.0800,1.972
30.1200,2.051
30.1600,2.080
30.2000,1.995
30.2400,2.117
30.2800,2.163
30.3200,2.149
30.3600,2.238
30.4000,2.310
30.4400,2.236
30.4800,2.335
30.5200,2.380
30.5600,2.371
30.6000,2.467
30.6400,2.494
30.6800,2.477
30.7200,2.405
30.7600,2.412
30.8000,2.460
30.8400,2.346
30.8800,2.343
30.9200,2.302
30.9600,2.166
31.0000,2.225
31.0400,2.142
31.0800,2.122
31.1200,2.054
31.1600,2.026
31.2000,1.924
31.2400,1.959
31.2800,1.964
31.3200,1.925
31.3600,1.895
31.4000,1.813
31.4400,1.851
31.4800,1.810
31.5200,1.805
31.5600,1.844
31.6000,1.800
31.6400,1.746
31.6800,1.736
31.7200,1.703
31.7600,1.812
31.8000,1.749
31.8400,1.775
31.8800,1.805
31.9200,1.734
31.9600,1.761
32.0000,1.740
32.0400,1.674
32.0800,1.645
32.1200,1.728
32.1600,1.687
32.2000,1.758
32.2400,1.713
32.2800,1.718
32.3200,1.745
32.3600,1.707
32.4000,1.667
32.4400,1.729
32.4800,1.711
32.5200,1.715
32.5600,1.720
32.6000,1.658
32.6400,1.602
32.6800,1.679
32.7200,1.667
32.7600,1.658
32.8000,1.735
32.8400,1.722
32.8800,1.652
32.9200,1.681
32.9600,1.623
33.0000,1.633
33.0400,1.650
33.0800,1.670
33.1200,1.660
33.1600,1.663
33.2000,1.648
33.2400,1.665
33.2800,1.678
33.3200,1.597
33.3600,1.600
33.4000,1.638
33.4400,1.609
33.4800,1.675
33.5200,1.559
33.5600,1.617
33.6000,1.623
33.6400,1.597
33.6800,1.607
33.7200,1.537
33.7600,1.592
33.8000,1.680
33.8400,1.635
33.8800,1.628
33.9200,1.583
33.9600,1.609
34.0000,1.569
34.0400,1.509
34.0800,1.596
34.1200,1.610
34.1600,1.671
34.2000,1.618
34.2400,1.601
34.2800,1.550
34.3200,1.582
34.3600,1.549
34.4000,1.498
34.4400,1.588
34.4800,1.601
34.5200,1.622
34.5600,1.556
34.6000,1.538
34.6400,1.643
34.6800,1.584
34.7200,1.631
34.7600,1.610
34.8000,1.582
34.8400,1.632
34.8800,1.639
34.9200,1.636
34.9600,1.634
35.0000,1.546
35.0400,1.589
35.0800,1.665
35.1200,1.670
35.1600,1.637
35.2000,1.676
35.2400,1.693
35.2800,1.680
35.3200,1.774
35.3600,1.746
35.4000,1.724
35.4400,1.851
35.4800,1.831
35.5200,1.828
35.5600,1.914
35.6000,2.031
35.6400,2.012
35.6800,2.198
35.7200,2.353
35.7600,2.543
35.8000,2.859
35.8400,3.021
35.8800,3.295
35.9200,3.353
35.9600,3.206
36.0000,3.147
36.0400,2.961
36.0800,2.848
36.1200,2.620
36.1600,2.477
36.2000,2.336
36.2400,2.246
36.2800,2.084
36.3200,2.054
36.3600,2.020
36.4000,1.932
36.4400,1.947
36.4800,1.834
36.5200,1.848
36.5600,1.806
36.6000,1.787
36.6400,1.813
36.6800,1.852
36.7200,1.789
36.7600,1.759
36.8000,1.697
36.8400,1.737
36.8800,1.671
36.9200,1.729
36.9600,1.701
37.0000,1.740
37.0400,1.710
37.0800,1.672
37.1200,1.757
37.1600,1.774
37.2000,1.730
37.2400,1.752
37.2800,1.815
37.3200,1.786
37.3600,1.851
37.4000,1.925
37.4400,1.979
37.4800,2.148
37.5200,2.239
37.5600,2.572
37.6000,2.978
37.6400,3.433
37.6800,3.996
37.7200,4.540
37.7600,5.069
37.8000,5.476
37.8400,5.411
37.8800,5.112
37.9200,4.679
37.9600,4.273
38.0000,3.687
38.0400,3.230
38.0800,3.002
38.1200,2.812
38.1600,2.553
38.2000,2.333
38.2400,2.216
38.2800,2.070
38.3200,2.061
38.3600,1.940
38.4000,1.863
38.4400,1.860
38.4800,1.852
38.5200,1.845
38.5600,1.794
38.6000,1.760
38.6400,1.719
38.6800,1.750
38.7200,1.661
38.7600,1.685
38.8000,1.742
38.8400,1.680
38.8800,1.701
38.9200,1.682
38.9600,1.687
39.0000,1.698
39.0400,1.697
39.0800,1.672
39.1200,1.710
39.1600,1.680
39.2000,1.672
39.2400,1.707
39.2800,1.806
39.3200,1.813
39.3600,1.752
39.4000,1.805
39.4400,1.798
39.4800,1.916
39.5200,1.906
39.5600,1.900
39.6000,2.062
39.6400,2.040
39.6800,2.102
39.7200,2.202
39.7600,2.169
39.8000,2.223
39.8400,2.375
39.8800,2.367
39.9200,2.400
39.9600,2.544
40.0000,2.505
40.0400,2.552
40.0800,2.659
40.1200,2.744
40.1600,2.722
40.2000,2.851
40.2400,2.899
40.2800,2.899
40.3200,3.036
40.3600,3.146
40.4000,3.252
40.4400,3.345
40.4800,3.531
40.5200,3.650
40.5600,3.832
40.6000,3.833
40.6400,3.986
40.6800,4.050
40.7200,3.973
40.7600,3.895
40.8000,3.917
40.8400,3.679
40.8800,3.638
40.9200,3.431
40.9600,3.400
41.0000,3.060
41.0400,3.034
41.0800,2.870
41.1200,2.799
41.1600,2.605
41.2000,2.534
41.2400,2.432
41.2800,2.408
41.3200,2.471
41.3600,2.380
41.4000,2.244
41.4400,2.251
41.4800,2.123
41.5200,2.104
41.5600,2.080
41.6000,2.029
41.6400,2.012
41.6800,2.002
41.7200,1.806
41.7600,1.864
41.8000,1.881
41.8400,1.746
41.8800,1.784
41.9200,1.725
41.9600,1.651
42.0000,1.644
42.0400,1.668
42.0800,1.582
42.1200,1.515
42.1600,1.518
42.2000,1.404
42.2400,1.380
42.2800,1.377
42.3200,1.393
42.3600,1.377
42.4000,1.337
42.4400,1.325
42.4800,1.352
42.5200,1.324
42.5600,1.312
42.6000,1.285
42.6400,1.254
42.6800,1.238
42.7200,1.296
42.7600,1.257
42.8000,1.274
42.8400,1.231
42.8800,1.245
42.9200,1.277
42.9600,1.195
43.0000,1.247
43.0400,1.252
43.0800,1.200
43.1200,1.154
43.1600,1.203
43.2000,1.190
43.2400,1.164
43.2800,1.183
43.3200,1.198
43.3600,1.151
43.4000,1.096
43.4400,1.156
43.4800,1.185
43.5200,1.126
43.5600,1.155
43.6000,1.194
43.6400,1.161
43.6800,1.133
43.7200,1.141
43.7600,1.179
43.8000,1.124
43.8400,1.075
43.8800,1.168
43.9200,1.148
43.9600,1.142
44.0000,1.175
44.0400,1.160
44.0800,1.149
44.1200,1.092
44.1600,1.223
44.2000,1.147
44.2400,1.154
44.2800,1.186
44.3200,1.028
44.3600,1.110
44.4000,1.065
44.4400,1.094
44.4800,1.123
44.5200,1.081
44.5600,1.132
44.6000,1.101
44.6400,1.135
44.6800,1.096
44.7200,1.123
44.7600,1.108
44.8000,1.094
44.8400,1.054
44.8800,1.062
44.9200,1.062
44.9600,1.037
45.0000,1.049
45.0400,1.003
45.0800,1.044
45.1200,1.037
45.1600,1.048
45.2000,1.019
45.2400,1.057
45.2800,1.013
45.3200,1.078
45.3600,1.019
45.4000,1.075
45.4400,1.072
45.4800,1.049
45.5200,1.028
45.5600,1.044
45.6000,1.070
45.6400,0.995
45.6800,1.042
45.7200,1.009
45.7600,0.993
45.8000,1.024
45.8400,1.045
45.8800,0.973
45.9200,0.969
45.9600,0.995
46.0000,0.994
46.0400,1.012
46.0800,0.986
46.1200,0.989
46.1600,1.009
46.2000,1.013
46.2400,0.992
46.2800,0.971
46.3200,0.989
46.3600,0.980
46.4000,0.964
46.4400,0.949
46.4800,0.960
46.5200,0.907
46.5600,0.920
46.6000,0.922
46.6400,0.940
46.6800,0.952
46.7200,0.934
46.7600,0.971
46.8000,0.940
46.8400,0.947
46.8800,0.945
46.9200,0.932
46.9600,0.949
47.0000,0.989
47.0400,0.969
47.0800,0.946
47.1200,0.948
47.1600,0.890
47.2000,0.951
47.2400,0.865
47.2800,0.910
47.3200,0.921
47.3600,0.894
47.4000,0.885
47.4400,0.942
47.4800,0.948
47.5200,0.862
47.5600,0.924
47.6000,0.891
47.6400,0.901
47.6800,0.920
47.7200,0.904
47.7600,0.926
47.8000,0.885
47.8400,0.845
47.8800,0.887
47.9200,0.945
47.9600,0.880
48.0000,0.851
48.0400,0.928
48.0800,0.896
48.1200,0.880
48.1600,0.889
48.2000,0.886
48.2400,0.901
48.2800,0.864
48.3200,0.905
48.3600,0.892
48.4000,0.887
48.4400,0.870
48.4800,0.865
48.5200,0.909
48.5600,0.886
48.6000,0.924
48.6400,0.897
48.6800,0.875
48.7200,0.906
48.7600,0.893
48.8000,0.882
48.8400,0.854
48.8800,0.906
48.9200,0.897
48.9600,0.847
49.0000,0.864
49.0400,0.850
49.0800,0.855
49.1200,0.887
49.1600,0.834
49.2000,0.861
49.2400,0.851
49.2800,0.903
49.3200,0.816
49.3600,0.855
49.4000,0.922
49.4400,0.907
49.4800,0.880
49.5200,0.839
49.5600,0.891
49.6000,0.865
49.6400,0.907
49.6800,0.871
49.7200,0.844
49.7600,0.886
49.8000,0.905
49.8400,0.843
49.8800,0.905
49.9200,0.828
49.9600,0.854
50.0000,0.832
50.0400,0.905
50.0800,0.874
50.1200,0.892
50.1600,0.921
50.2000,0.868
50.2400,0.873
50.2800,0.905
50.3200,0.887
50.3600,0.844
50.4000,0.903
50.4400,0.908
50.4800,0.910
50.5200,0.916
50.5600,0.903
50.6000,0.945
50.6400,0.893
50.6800,0.849
50.7200,0.954
50.7600,0.922
50.8000,0.927
50.8400,0.946
50.8800,1.015
50.9200,1.007
50.9600,1.016
51.0000,0.980
51.0400,0.998
51.0800,1.038
51.1200,1.067
51.1600,0.991
51.2000,1.015
51.2400,1.063
51.2800,1.023
51.3200,0.933
51.3600,0.953
51.4000,0.953
51.4400,0.962
51.4800,0.950
51.5200,0.904
51.5600,0.919
51.6000,0.927
51.6400,0.880
51.6800,0.912
51.7200,0.860
51.7600,0.866
51.8000,0.852
51.8400,0.880
51.8800,0.870
51.9200,0.872
51.9600,0.893
52.0000,0.833
52.0400,0.804
52.0800,0.797
52.1200,0.833
52.1600,0.850
52.2000,0.819
52.2400,0.834
52.2800,0.905
52.3200,0.852
52.3600,0.878
52.4000,0.813
52.4400,0.792
52.4800,0.821
52.5200,0.841
52.5600,0.813
52.6000,0.853
52.6400,0.861
52.6800,0.864
52.7200,0.872
52.7600,0.819
52.8000,0.842
52.8400,0.834
52.8800,0.836
52.9200,0.821
52.9600,0.815
53.0000,0.856
53.0400,0.879
53.0800,0.849
53.1200,0.857
53.1600,0.862
53.2000,0.880
53.2400,0.829
53.2800,0.845
53.3200,0.862
53.3600,0.821
53.4000,0.852
53.4400,0.863
53.4800,0.766
53.5200,0.829
53.5600,0.739
53.6000,0.780
53.6400,0.803
53.6800,0.789
53.7200,0.811
53.7600,0.795
53.8000,0.766
53.8400,0.765
53.8800,0.786
53.9200,0.782
53.9600,0.741
54.0000,0.776
54.0400,0.780
54.0800,0.774
54.1200,0.701
54.1600,0.693
54.2000,0.748
54.2400,0.728
54.2800,0.766
54.3200,0.726
54.3600,0.758
54.4000,0.726
54.4400,0.721
54.4800,0.684
54.5200,0.748
54.5600,0.717
54.6000,0.736
54.6400,0.740
54.6800,0.703
54.7200,0.748
54.7600,0.721
54.8000,0.747
54.8400,0.740
54.8800,0.729
54.9200,0.677
54.9600,0.736
55.0000,0.731
55.0400,0.695
55.0800,0.735
55.1200,0.718
55.1600,0.710
55.2000,0.705
55.2400,0.726
55.2800,0.739
55.3200,0.706
55.3600,0.733
55.4000,0.781
55.4400,0.683
55.4800,0.682
55.5200,0.684
55.5600,0.701
55.6000,0.688
55.6400,0.695
55.6800,0.687
55.7200,0.703
55.7600,0.648
55.8000,0.732
55.8400,0.728
55.8800,0.735
55.9200,0.724
55.9600,0.678
56.0000,0.674
56.0400,0.696
56.0800,0.720
56.1200,0.697
56.1600,0.708
56.2000,0.672
56.2400,0.734
56.2800,0.674
56.3200,0.667
56.3600,0.679
56.4000,0.708
56.4400,0.707
56.4800,0.681
56.5200,0.708
56.5600,0.693
56.6000,0.690
56.6400,0.688
56.6800,0.696
56.7200,0.678
56.7600,0.646
56.8000,0.597
56.8400,0.672
56.8800,0.661
56.9200,0.671
56.9600,0.687
57.0000,0.652
57.0400,0.617
57.0800,0.674
57.1200,0.657
57.1600,0.635
57.2000,0.674
57.2400,0.658
57.2800,0.653
57.3200,0.665
57.3600,0.659
57.4000,0.612
57.4400,0.591
57.4800,0.656
57.5200,0.610
57.5600,0.631
57.6000,0.624
57.6400,0.666
57.6800,0.635
57.7200,0.626
57.7600,0.639
57.8000,0.634
57.8400,0.624
57.8800,0.611
57.9200,0.640
57.9600,0.642
58.0000,0.626
58.0400,0.624
58.0800,0.634
58.1200,0.624
58.1600,0.635
58.2000,0.636
58.2400,0.634
58.2800,0.652
58.3200,0.658
58.3600,0.606
58.4000,0.607
58.4400,0.647
58.4800,0.641
58.5200,0.615
58.5600,0.652
58.6000,0.652
58.6400,0.639
58.6800,0.535
58.7200,0.597
58.7600,0.607
58.8000,0.641
58.8400,0.593
58.8800,0.647
58.9200,0.624
58.9600,0.595
59.0000,0.630
59.0400,0.639
59.0800,0.645
59.1200,0.623
59.1600,0.629
59.2000,0.608
59.2400,0.596
59.2800,0.627
59.3200,0.629
59.3600,0.636
59.4000,0.614
59.4400,0.549
59.4800,0.596
59.5200,0.637
59.5600,0.599
59.6000,0.651
59.6400,0.628
59.6800,0.625
59.7200,0.652
59.7600,0.646
59.8000,0.626
59.8400,0.593
59.8800,0.593
59.9200,0.614
59.9600,0.608
60.0000,0.601
60.0400,0.621
60.0800,0.633
60.1200,0.595
60.1600,0.607
60.2000,0.576
60.2400,0.663
60.2800,0.620
60.3200,0.670
60.3600,0.660
60.4000,0.634
60.4400,0.662
60.4800,0.634
60.5200,0.641
60.5600,0.644
60.6000,0.670
60.6400,0.651
60.6800,0.718
60.7200,0.663
60.7600,0.740
60.8000,0.657
60.8400,0.711
60.8800,0.645
60.9200,0.672
60.9600,0.664
61.0000,0.714
61.0400,0.635
61.0800,0.627
61.1200,0.599
61.1600,0.645
61.2000,0.628
61.2400,0.657
61.2800,0.639
61.3200,0.553
61.3600,0.600
61.4000,0.585
61.4400,0.550
61.4800,0.600
61.5200,0.578
61.5600,0.613
61.6000,0.583
61.6400,0.566
61.6800,0.628
61.7200,0.660
61.7600,0.658
61.8000,0.649
61.8400,0.605
61.8800,0.609
61.9200,0.551
61.9600,0.600
62.0000,0.553
62.0400,0.570
62.0800,0.593
62.1200,0.545
62.1600,0.623
62.2000,0.577
62.2400,0.589
62.2800,0.572
62.3200,0.596
62.3600,0.585
62.4000,0.615
62.4400,0.587
62.4800,0.571
62.5200,0.564
62.5600,0.563
62.6000,0.537
62.6400,0.566
62.6800,0.568
62.7200,0.560
62.7600,0.562
62.8000,0.557
62.8400,0.587
62.8800,0.552
62.9200,0.624
62.9600,0.599
63.0000,0.544
63.0400,0.562
63.0800,0.561
63.1200,0.585
63.1600,0.541
63.2000,0.537
63.2400,0.603
63.2800,0.571
63.3200,0.589
63.3600,0.607
63.4000,0.616
63.4400,0.591
63.4800,0.642
63.5200,0.588
63.5600,0.602
63.6000,0.639
63.6400,0.603
63.6800,0.631
63.7200,0.656
63.7600,0.638
63.8000,0.605
63.8400,0.635
63.8800,0.686
63.9200,0.688
63.9600,0.730
64.0000,0.762
64.0400,0.782
64.0800,0.814
64.1200,0.921
64.1600,1.005
64.2000,1.094
64.2400,1.127
64.2800,1.219
64.3200,1.267
64.3600,1.370
64.4000,1.331
64.4400,1.316
64.4800,1.261
64.5200,1.186
64.5600,1.093
64.6000,1.045
64.6400,1.028
64.6800,0.950
64.7200,0.883
64.7600,0.859
64.8000,0.821
64.8400,0.789
64.8800,0.753
64.9200,0.688
64.9600,0.717
65.0000,0.720
65.0400,0.673
65.0800,0.689
65.1200,0.673
65.1600,0.660
65.2000,0.658
65.2400,0.690
65.2800,0.645
65.3200,0.685
65.3600,0.678
65.4000,0.670
65.4400,0.719
65.4800,0.647
65.5200,0.626
65.5600,0.663
65.6000,0.702
65.6400,0.644
65.6800,0.670
65.7200,0.705
65.7600,0.701
65.8000,0.700
65.8400,0.688
65.8800,0.708
65.9200,0.721
65.9600,0.697
66.0000,0.765
66.0400,0.682
66.0800,0.709
66.1200,0.765
66.1600,0.741
66.2000,0.683
66.2400,0.727
66.2800,0.765
66.3200,0.746
66.3600,0.759
66.4000,0.748
66.4400,0.815
66.4800,0.762
66.5200,0.802
66.5600,0.848
66.6000,0.816
66.6400,0.806
66.6800,0.826
66.7200,0.863
66.7600,0.848
66.8000,0.862
66.8400,0.881
66.8800,0.885
66.9200,0.913
66.9600,0.903
67.0000,0.927
67.0400,1.004
67.0800,0.990
67.1200,1.044
67.1600,1.010
67.2000,1.023
67.2400,1.055
67.2800,1.027
67.3200,1.092
67.3600,1.092
67.4000,1.094
67.4400,1.128
67.4800,1.183
67.5200,1.141
67.5600,1.204
67.6000,1.214
67.6400,1.253
67.6800,1.300
67.7200,1.265
67.7600,1.320
67.8000,1.390
67.8400,1.446
67.8800,1.411
67.9200,1.409
67.9600,1.488
68.0000,1.552
68.0400,1.546
68.0800,1.607
68.1200,1.610
68.1600,1.700
68.2000,1.799
68.2400,1.860
68.2800,1.845
68.3200,1.903
68.3600,1.981
68.4000,2.119
68.4400,2.153
68.4800,2.225
68.5200,2.342
68.5600,2.411
68.6000,2.549
68.6400,2.648
68.6800,2.798
68.7200,3.077
68.7600,3.598
68.8000,4.415
68.8400,5.727
68.8800,6.756
68.9200,7.299
68.9600,7.231
69.0000,8.116
69.0400,10.729
69.0800,17.073
69.1200,34.623
69.1600,134.943
69.2000,423.325
69.2400,423.645
69.2800,142.584
69.3200,49.290
69.3600,92.811
69.4000,228.127
69.4400,211.831
69.4800,70.054
69.5200,20.407
69.5600,11.629
69.6000,8.409
69.6400,6.668
69.6800,5.628
69.7200,4.892
69.7600,4.339
69.8000,3.992
69.8400,3.631
69.8800,3.458
69.9200,3.237
69.9600,2.975
70.0000,2.822
70.0400,2.744
70.0800,2.653
70.1200,2.523
70.1600,2.403
70.2000,2.416
70.2400,2.326
70.2800,2.214
70.3200,2.124
70.3600,2.081
70.4000,1.970
70.4400,1.956
70.4800,1.875
70.5200,1.778
70.5600,1.790
70.6000,1.745
70.6400,1.590
70.6800,1.546
70.7200,1.642
70.7600,1.579
70.8000,1.441
70.8400,1.449
70.8800,1.441
70.9200,1.391
70.9600,1.335
71.0000,1.288
71.0400,1.276
71.0800,1.269
71.1200,1.234
71.1600,1.167
71.2000,1.125
71.2400,1.182
71.2800,1.122
71.3200,1.103
71.3600,1.091
71.4000,1.007
71.4400,0.952
71.4800,0.920
71.5200,1.003
71.5600,0.979
71.6000,0.947
71.6400,0.872
71.6800,0.895
71.7200,0.868
71.7600,0.882
71.8000,0.879
71.8400,0.842
71.8800,0.798
71.9200,0.841
71.9600,0.789
72.0000,0.767
72.0400,0.785
72.0800,0.801
72.1200,0.796
72.1600,0.771
72.2000,0.731
72.2400,0.721
72.2800,0.721
72.3200,0.706
72.3600,0.681
72.4000,0.663
72.4400,0.680
72.4800,0.667
72.5200,0.602
72.5600,0.658
72.6000,0.594
72.6400,0.619
72.6800,0.578
72.7200,0.604
72.7600,0.540
72.8000,0.584
72.8400,0.570
72.8800,0.533
72.9200,0.569
72.9600,0.570
73.0000,0.518
73.0400,0.537
73.0800,0.532
73.1200,0.546
73.1600,0.502
73.2000,0.563
73.2400,0.507
73.2800,0.514
73.3200,0.525
73.3600,0.526
73.4000,0.484
73.4400,0.493
73.4800,0.525
73.5200,0.504
73.5600,0.525
73.6000,0.545
73.6400,0.532
73.6800,0.487
73.7200,0.470
73.7600,0.494
73.8000,0.483
73.8400,0.465
73.8800,0.510
73.9200,0.501
73.9600,0.513
74.0000,0.463
74.0400,0.433
74.0800,0.527
74.1200,0.479
74.1600,0.463
74.2000,0.457
74.2400,0.422
74.2800,0.447
74.3200,0.451
74.3600,0.449
74.4000,0.453
74.4400,0.419
74.4800,0.451
74.5200,0.465
74.5600,0.423
74.6000,0.419
74.6400,0.440
74.6800,0.398
74.7200,0.418
74.7600,0.408
74.8000,0.419
74.8400,0.430
74.8800,0.378
74.9200,0.429
74.9600,0.434
75.0000,0.437
75.0400,0.411
75.0800,0.408
75.1200,0.405
75.1600,0.405
75.2000,0.441
75.2400,0.441
75.2800,0.469
75.3200,0.445
75.3600,0.460
75.4000,0.437
75.4400,0.413
75.4800,0.418
75.5200,0.400
75.5600,0.420
75.6000,0.448
75.6400,0.445
75.6800,0.446
75.7200,0.431
75.7600,0.495
75.8000,0.445
75.8400,0.502
75.8800,0.501
75.9200,0.482
75.9600,0.444
76.0000,0.476
76.0400,0.496
76.0800,0.471
76.1200,0.457
76.1600,0.472
76.2000,0.470
76.2400,0.444
76.2800,0.466
76.3200,0.499
76.3600,0.501
76.4000,0.515
76.4400,0.491
76.4800,0.518
76.5200,0.520
76.5600,0.521
76.6000,0.570
76.6400,0.583
76.6800,0.596
76.7200,0.655
76.7600,0.691
76.8000,0.698
76.8400,0.744
76.8800,0.778
76.9200,0.866
76.9600,0.975
77.0000,0.934
77.0400,1.030
77.0800,0.934
77.1200,1.002
77.1600,0.930
77.2000,0.922
77.2400,0.890
77.2800,0.870
77.3200,0.850
77.3600,0.755
77.4000,0.716
77.4400,0.668
77.4800,0.622
77.5200,0.630
77.5600,0.586
77.6000,0.491
77.6400,0.520
77.6800,0.509
77.7200,0.483
77.7600,0.458
77.8000,0.428
77.8400,0.484
77.8800,0.464
77.9200,0.427
77.9600,0.430
78.0000,0.398
78.0400,0.453
78.0800,0.445
78.1200,0.411
78.1600,0.433
78.2000,0.416
78.2400,0.453
78.2800,0.454
78.3200,0.441
78.3600,0.456
78.4000,0.446
78.4400,0.462
78.4800,0.494
78.5200,0.468
78.5600,0.503
78.6000,0.487
78.6400,0.495
78.6800,0.511
78.7200,0.489
78.7600,0.503
78.8000,0.548
78.8400,0.568
78.8800,0.580
78.9200,0.561
78.9600,0.561
79.0000,0.539
79.0400,0.580
79.0800,0.569
79.1200,0.564
79.1600,0.542
79.2000,0.513
79.2400,0.477
79.2800,0.486
79.3200,0.477
79.3600,0.498
79.4000,0.452
79.4400,0.456
79.4800,0.437
79.5200,0.462
79.5600,0.442
79.6000,0.430
79.6400,0.411
79.6800,0.381
79.7200,0.388
79.7600,0.400
79.8000,0.394
79.8400,0.390
79.8800,0.367
79.9200,0.361
79.9600,0.405
80.0000,0.380
