theta,intensity
5.0000,18.174
5.0400,18.163
5.0800,18.021
5.1200,17.857
5.1600,17.741
5.2000,17.631
5.2400,17.407
5.2800,17.244
5.3200,17.047
5.3600,17.051
5.4000,16.814
5.4400,16.550
5.4800,16.336
5.5200,16.196
5.5600,16.042
5.6000,16.015
5.6400,15.893
5.6800,15.734
5.7200,15.419
5.7600,15.182
5.8000,15.123
5.8400,14.910
5.8800,14.637
5.9200,14.522
5.9600,14.120
6.0000,14.111
6.0400,13.753
6.0800,13.884
6.1200,13.620
6.1600,13.277
6.2000,13.257
6.2400,13.061
6.2800,12.844
6.3200,12.503
6.3600,12.547
6.4000,12.377
6.4400,12.247
6.4800,12.101
6.5200,11.739
6.5600,11.592
6.6000,11.464
6.6400,11.355
6.6800,11.401
6.7200,11.037
6.7600,11.069
6.8000,10.850
6.8400,10.494
6.8800,10.617
6.9200,10.271
6.9600,10.303
7.0000,10.360
7.0400,10.062
7.0800,9.882
7.1200,9.729
7.1600,9.657
7.2000,9.570
7.2400,9.442
7.2800,9.570
7.3200,9.070
7.3600,9.031
7.4000,8.939
7.4400,8.966
7.4800,8.888
7.5200,8.626
7.5600,8.598
7.6000,8.452
7.6400,8.399
7.6800,8.532
7.7200,8.190
7.7600,8.056
7.8000,7.968
7.8400,7.856
7.8800,7.737
7.9200,7.776
7.9600,7.675
8.0000,7.651
8.0400,7.412
8.0800,7.378
8.1200,7.451
8.1600,7.150
8.2000,7.145
8.2400,6.930
8.2800,7.154
8.3200,6.758
8.3600,6.870
8.4000,6.838
8.4400,6.667
8.4800,6.618
8.5200,6.652
8.5600,6.506
8.6000,6.435
8.6400,6.272
8.6800,6.225
8.7200,6.174
8.7600,6.211
8.8000,6.130
8.8400,6.159
8.8800,6.040
8.9200,5.993
8.9600,5.821
9.0000,5.821
9.0400,5.790
9.0800,5.735
9.1200,5.674
9.1600,5.571
9.2000,5.534
9.2400,5.509
9.2800,5.372
9.3200,5.427
9.3600,5.499
9.4000,5.187
9.4400,5.386
9.4800,5.196
9.5200,5.150
9.5600,5.099
9.6000,5.138
9.6400,5.123
9.6800,5.033
9.7200,4.921
9.7600,4.879
9.8000,4.987
9.8400,4.852
9.8800,4.986
9.9200,4.960
9.9600,4.759
10.0000,4.704
10.0400,4.780
10.0800,4.758
10.1200,4.724
10.1600,4.659
10.2000,4.649
10.2400,4.576
10.2800,4.465
10.3200,4.401
10.3600,4.554
10.4000,4.398
10.4400,4.308
10.4800,4.501
10.5200,4.396
10.5600,4.354
10.6000,4.358
10.6400,4.277
10.6800,4.254
10.7200,4.229
10.7600,4.198
10.8000,4.171
10.8400,4.258
10.8800,4.113
10.9200,4.166
10.9600,4.085
11.0000,4.150
11.0400,3.999
11.0800,4.071
11.1200,3.940
11.1600,3.849
11.2000,3.944
11.2400,3.969
11.2800,3.835
11.3200,3.871
11.3600,3.935
11.4000,3.974
11.4400,3.844
11.4800,3.791
11.5200,3.840
11.5600,3.810
11.6000,3.727
11.6400,3.787
11.6800,3.777
11.7200,3.648
11.7600,3.715
11.8000,3.731
11.8400,3.759
11.8800,3.677
11.9200,3.636
11.9600,3.631
12.0000,3.682
12.0400,3.661
12.0800,3.740
12.1200,3.774
12.1600,3.645
12.2000,3.722
12.2400,3.604
12.2800,3.544
12.3200,3.538
12.3600,3.572
12.4000,3.625
12.4400,3.549
12.4800,3.581
12.5200,3.474
12.5600,3.540
12.6000,3.553
12.6400,3.468
12.6800,3.570
12.7200,3.495
12.7600,3.482
12.8000,3.524
12.8400,3.488
12.8800,3.434
12.9200,3.418
12.9600,3.325
13.0000,3.400
13.0400,3.321
13.0800,3.456
13.1200,3.414
13.1600,3.484
13.2000,3.435
13.2400,3.506
13.2800,3.511
13.3200,3.365
13.3600,3.337
13.4000,3.399
13.4400,3.346
13.4800,3.343
13.5200,3.395
13.5600,3.463
13.6000,3.389
13.6400,3.373
13.6800,3.424
13.7200,3.215
13.7600,3.294
13.8000,3.277
13.8400,3.335
13.8800,3.338
13.9200,3.248
13.9600,3.291
14.0000,3.336
14.0400,3.366
14.0800,3.244
14.1200,3.257
14.1600,3.278
14.2000,3.345
14.2400,3.286
14.2800,3.297
14.3200,3.256
14.3600,3.267
14.4000,3.303
14.4400,3.207
14.4800,3.203
14.5200,3.268
14.5600,3.287
14.6000,3.157
14.6400,3.287
14.6800,3.276
14.7200,3.246
14.7600,3.131
14.8000,3.302
14.8400,3.224
14.8800,3.316
14.9200,3.237
14.9600,3.171
15.0000,3.194
15.0400,3.184
15.0800,3.081
15.1200,3.072
15.1600,3.156
15.2000,3.158
15.2400,3.175
15.2800,3.203
15.3200,3.202
15.3600,3.073
15.4000,3.148
15.4400,3.090
15.4800,3.057
15.5200,3.029
15.5600,3.113
15.6000,3.177
15.6400,3.137
15.6800,3.170
15.7200,3.067
15.7600,3.102
15.8000,3.057
15.8400,3.049
15.8800,3.201
15.9200,3.071
15.9600,3.084
16.0000,3.081
16.0400,3.070
16.0800,3.125
16.1200,3.119
16.1600,3.010
16.2000,2.999
16.2400,3.102
16.2800,3.051
16.3200,2.972
16.3600,3.084
16.4000,2.986
16.4400,3.086
16.4800,3.021
16.5200,2.959
16.5600,3.048
16.6000,2.949
16.6400,2.978
16.6800,3.006
16.7200,3.013
16.7600,2.981
16.8000,2.958
16.8400,2.971
16.8800,2.940
16.9200,3.047
16.9600,2.954
17.0000,3.008
17.0400,3.022
17.0800,2.981
17.1200,2.985
17.1600,2.919
17.2000,2.962
17.2400,3.017
17.2800,2.933
17.3200,3.010
17.3600,2.873
17.4000,2.922
17.4400,2.904
17.4800,2.974
17.5200,2.950
17.5600,2.899
17.6000,2.988
17.6400,2.947
17.6800,2.982
17.7200,2.918
17.7600,2.907
17.8000,2.934
17.8400,2.863
17.8800,2.921
17.9200,2.959
17.9600,2.935
18.0000,2.746
18.0400,2.837
18.0800,2.782
18.1200,2.962
18.1600,2.930
18.2000,2.899
18.2400,2.826
18.2800,2.837
18.3200,2.773
18.3600,2.844
18.4000,2.842
18.4400,2.871
18.4800,2.782
18.5200,2.832
18.5600,2.816
18.6000,2.882
18.6400,2.838
18.6800,2.807
18.7200,2.847
18.7600,2.816
18.8000,2.880
18.8400,2.775
18.8800,2.870
18.9200,2.815
18.9600,2.819
19.0000,2.797
19.0400,2.807
19.0800,2.768
19.1200,2.737
19.1600,2.760
19.2000,2.798
19.2400,2.774
19.2800,2.666
19.3200,2.810
19.3600,2.785
19.4000,2.787
19.4400,2.704
19.4800,2.780
19.5200,2.803
19.5600,2.801
19.6000,2.726
19.6400,2.820
19.6800,2.764
19.7200,2.768
19.7600,2.668
19.8000,2.705
19.8400,2.710
19.8800,2.776
19.9200,2.681
19.9600,2.802
20.0000,2.617
20.0400,2.668
20.0800,2.661
20.1200,2.797
20.1600,2.588
20.2000,2.654
20.2400,2.789
20.2800,2.706
20.3200,2.735
20.3600,2.660
20.4000,2.643
20.4400,2.580
20.4800,2.636
20.5200,2.701
20.5600,2.657
20.6000,2.680
20.6400,2.740
20.6800,2.664
20.7200,2.663
20.7600,2.645
20.8000,2.642
20.8400,2.646
20.8800,2.709
20.9200,2.620
20.9600,2.599
21.0000,2.628
21.0400,2.622
21.0800,2.668
21.1200,2.561
21.1600,2.678
21.2000,2.634
21.2400,2.622
21.2800,2.737
21.3200,2.606
21.3600,2.539
21.4000,2.605
21.4400,2.606
21.4800,2.630
21.5200,2.642
21.5600,2.629
21.6000,2.653
21.6400,2.588
21.6800,2.646
21.7200,2.594
21.7600,2.618
21.8000,2.552
21.8400,2.473
21.8800,2.559
21.9200,2.523
21.9600,2.501
22.0000,2.545
22.0400,2.495
22.0800,2.601
22.1200,2.439
22.1600,2.547
22.2000,2.508
22.2400,2.514
22.2800,2.507
22.3200,2.607
22.3600,2.437
22.4000,2.452
22.4400,2.449
22.4800,2.462
22.5200,2.467
22.5600,2.528
22.6000,2.592
22.6400,2.463
22.6800,2.442
22.7200,2.468
22.7600,2.558
22.8000,2.473
22.8400,2.484
22.8800,2.484
22.9200,2.467
22.9600,2.502
23.0000,2.416
23.0400,2.471
23.0800,2.464
23.1200,2.493
23.1600,2.494
23.2000,2.430
23.2400,2.375
23.2800,2.419
23.3200,2.403
23.3600,2.452
23.4000,2.475
23.4400,2.447
23.4800,2.379
23.5200,2.474
23.5600,2.437
23.6000,2.374
23.6400,2.482
23.6800,2.394
23.7200,2.390
23.7600,2.450
23.8000,2.464
23.8400,2.374
23.8800,2.438
23.9200,2.482
23.9600,2.348
24.0000,2.418
24.0400,2.391
24.0800,2.399
24.1200,2.310
24.1600,2.313
24.2000,2.361
24.2400,2.378
24.2800,2.395
24.3200,2.403
24.3600,2.401
24.4000,2.413
24.4400,2.370
24.4800,2.413
24.5200,2.324
24.5600,2.462
24.6000,2.383
24.6400,2.283
24.6800,2.400
24.7200,2.389
24.7600,2.291
24.8000,2.317
24.8400,2.367
24.8800,2.312
24.9200,2.365
24.9600,2.342
25.0000,2.346
25.0400,2.301
25.0800,2.369
25.1200,2.323
25.1600,2.335
25.2000,2.231
25.2400,2.342
25.2800,2.301
25.3200,2.365
25.3600,2.373
25.4000,2.355
25.4400,2.396
25.4800,2.401
25.5200,2.302
25.5600,2.269
25.6000,2.263
25.6400,2.295
25.6800,2.236
25.7200,2.277
25.7600,2.244
25.8000,2.365
25.8400,2.298
25.8800,2.247
25.9200,2.286
25.9600,2.284
26.0000,2.239
26.0400,2.200
26.0800,2.290
26.1200,2.248
26.1600,2.189
26.2000,2.143
26.2400,2.219
26.2800,2.197
26.3200,2.156
26.3600,2.254
26.4000,2.181
26.4400,2.218
26.4800,2.143
26.5200,2.189
26.5600,2.210
26.6000,2.136
26.6400,2.188
26.6800,2.215
26.7200,2.184
26.7600,2.097
26.8000,2.204
26.8400,2.202
26.8800,2.240
26.9200,2.159
26.9600,2.179
27.0000,2.206
27.0400,2.111
27.0800,2.063
27.1200,2.188
27.1600,2.117
27.2000,2.119
27.2400,2.162
27.2800,2.150
27.3200,2.067
27.3600,2.036
27.4000,2.126
27.4400,2.197
27.4800,2.211
27.5200,2.102
27.5600,2.093
27.6000,2.132
27.6400,2.065
27.6800,2.123
27.7200,2.151
27.7600,2.078
27.8000,2.112
27.8400,2.044
27.8800,2.180
27.9200,2.103
27.9600,2.088
28.0000,2.060
28.0400,2.113
28.0800,2.038
28.1200,2.035
28.1600,2.103
28.2000,2.130
28.2400,2.132
28.2800,2.152
28.3200,2.122
28.3600,2.102
28.4000,2.075
28.4400,2.091
28.4800,2.065
28.5200,2.050
28.5600,2.041
28.6000,2.079
28.6400,2.087
28.6800,2.036
28.7200,2.053
28.7600,2.044
28.8000,2.028
28.8400,1.967
28.8800,2.050
28.9200,2.101
28.9600,2.086
29.0000,2.008
29.0400,2.087
29.0800,2.010
29.1200,1.987
29.1600,2.010
29.2000,2.036
29.2400,1.994
29.2800,1.961
29.3200,2.083
29.3600,2.048
29.4000,2.106
29.4400,2.086
29.4800,2.108
29.5200,2.168
29.5600,2.088
29.6000,2.056
29.6400,2.080
29.6800,2.076
29.7200,2.014
29.7600,2.066
29.8000,1.999
29.8400,2.038
29.8800,2.001
29.9200,1.982
29.9600,2.033
30.0000,1.898
30.0400,1.968
30.0800,1.926
30.1200,1.894
30.1600,1.938
30.2000,1.856
30.2400,1.949
30.2800,2.032
30.3200,2.000
30.3600,1.907
30.4000,1.960
30.4400,1.862
30.4800,1.888
30.5200,1.918
30.5600,1.932
30.6000,2.011
30.6400,1.940
30.6800,1.918
30.7200,1.883
30.7600,1.906
30.8000,1.910
30.8400,1.855
30.8800,1.946
30.9200,1.845
30.9600,1.833
31.0000,1.898
31.0400,1.894
31.0800,1.793
31.1200,1.792
31.1600,1.853
31.2000,1.892
31.2400,1.831
31.2800,1.816
31.3200,1.935
31.3600,1.844
31.4000,1.900
31.4400,2.018
31.4800,1.839
31.5200,1.909
31.5600,1.901
31.6000,1.833
31.6400,1.854
31.6800,1.874
31.7200,1.884
31.7600,1.822
31.8000,1.833
31.8400,1.819
31.8800,1.851
31.9200,1.837
31.9600,1.864
32.0000,1.783
32.0400,1.747
32.0800,1.781
32.1200,1.740
32.1600,1.815
32.2000,1.778
32.2400,1.800
32.2800,1.776
32.3200,1.718
32.3600,1.826
32.4000,1.796
32.4400,1.787
32.4800,1.786
32.5200,1.773
32.5600,1.769
32.6000,1.745
32.6400,1.772
32.6800,1.773
32.7200,1.827
32.7600,1.760
32.8000,1.807
32.8400,1.764
32.8800,1.737
32.9200,1.777
32.9600,1.757
33.0000,1.798
33.0400,1.795
33.0800,1.760
33.1200,1.773
33.1600,1.732
33.2000,1.726
33.2400,1.792
33.2800,1.712
33.3200,1.701
33.3600,1.718
33.4000,1.738
33.4400,1.761
33.4800,1.631
33.5200,1.756
33.5600,1.683
33.6000,1.706
33.6400,1.739
33.6800,1.694
33.7200,1.691
33.7600,1.696
33.8000,1.697
33.8400,1.723
33.8800,1.695
33.9200,1.661
33.9600,1.706
34.0000,1.733
34.0400,1.695
34.0800,1.736
34.1200,1.609
34.1600,1.737
34.2000,1.625
34.2400,1.640
34.2800,1.691
34.3200,1.589
34.3600,1.616
34.4000,1.669
34.4400,1.695
34.4800,1.680
34.5200,1.630
34.5600,1.677
34.6000,1.653
34.6400,1.731
34.6800,1.668
34.7200,1.647
34.7600,1.650
34.8000,1.708
34.8400,1.679
34.8800,1.631
34.9200,1.646
34.9600,1.649
35.0000,1.702
35.0400,1.697
35.0800,1.686
35.1200,1.656
35.1600,1.648
35.2000,1.704
35.2400,1.719
35.2800,1.652
35.3200,1.668
35.3600,1.680
35.4000,1.683
35.4400,1.671
35.4800,1.706
35.5200,1.751
35.5600,1.743
35.6000,1.828
35.6400,1.778
35.6800,1.847
35.7200,1.757
35.7600,1.933
35.8000,1.863
35.8400,1.901
35.8800,1.876
35.9200,1.880
35.9600,1.841
36.0000,1.820
36.0400,1.723
36.0800,1.719
36.1200,1.759
36.1600,1.662
36.2000,1.644
36.2400,1.686
36.2800,1.743
36.3200,1.673
36.3600,1.782
36.4000,1.627
36.4400,1.607
36.4800,1.679
36.5200,1.631
36.5600,1.661
36.6000,1.569
36.6400,1.608
36.6800,1.592
36.7200,1.640
36.7600,1.663
36.8000,1.647
36.8400,1.664
36.8800,1.638
36.9200,1.595
36.9600,1.641
37.0000,1.655
37.0400,1.628
37.0800,1.606
37.1200,1.638
37.1600,1.679
37.2000,1.666
37.2400,1.712
37.2800,1.695
37.3200,1.707
37.3600,1.750
37.4000,1.792
37.4400,1.734
37.4800,1.825
37.5200,1.800
37.5600,1.815
37.6000,1.732
37.6400,1.884
37.6800,1.926
37.7200,1.939
37.7600,1.964
37.8000,2.038
37.8400,2.215
37.8800,2.247
37.9200,2.295
37.9600,2.472
38.0000,2.592
38.0400,2.678
38.0800,2.819
38.1200,3.046
38.1600,3.126
38.2000,3.167
38.2400,3.291
38.2800,3.306
38.3200,3.344
38.3600,3.442
38.4000,3.453
38.4400,3.324
38.4800,3.185
38.5200,3.053
38.5600,2.991
38.6000,2.824
38.6400,2.665
38.6800,2.597
38.7200,2.498
38.7600,2.287
38.8000,2.199
38.8400,2.157
38.8800,2.144
38.9200,2.058
38.9600,2.031
39.0000,1.908
39.0400,1.925
39.0800,1.961
39.1200,1.978
39.1600,2.031
39.2000,1.996
39.2400,2.028
39.2800,2.100
39.3200,2.050
39.3600,2.135
39.4000,2.141
39.4400,2.291
39.4800,2.320
39.5200,2.340
39.5600,2.389
39.6000,2.369
39.6400,2.381
39.6800,2.393
39.7200,2.251
39.7600,2.228
39.8000,2.113
39.8400,2.117
39.8800,2.027
39.9200,1.956
39.9600,2.008
40.0000,1.939
40.0400,1.976
40.0800,1.956
40.1200,1.889
40.1600,1.887
40.2000,1.865
40.2400,1.829
40.2800,1.801
40.3200,1.885
40.3600,1.813
40.4000,1.714
40.4400,1.744
40.4800,1.737
40.5200,1.818
40.5600,1.804
40.6000,1.777
40.6400,1.797
40.6800,1.883
40.7200,2.003
40.7600,2.073
40.8000,2.174
40.8400,2.274
40.8800,2.358
40.9200,2.478
40.9600,2.576
41.0000,2.703
41.0400,2.693
41.0800,2.783
41.1200,2.806
41.1600,2.819
41.2000,2.744
41.2400,2.795
41.2800,2.607
41.3200,2.591
41.3600,2.413
41.4000,2.305
41.4400,2.250
41.4800,2.053
41.5200,1.883
41.5600,1.842
41.6000,1.790
41.6400,1.650
41.6800,1.562
41.7200,1.553
41.7600,1.497
41.8000,1.465
41.8400,1.364
41.8800,1.433
41.9200,1.388
41.9600,1.353
42.0000,1.366
42.0400,1.348
42.0800,1.242
42.1200,1.279
42.1600,1.220
42.2000,1.267
42.2400,1.266
42.2800,1.262
42.3200,1.260
42.3600,1.270
42.4000,1.276
42.4400,1.270
42.4800,1.239
42.5200,1.248
42.5600,1.253
42.6000,1.252
42.6400,1.238
42.6800,1.173
42.7200,1.232
42.7600,1.249
42.8000,1.215
42.8400,1.275
42.8800,1.272
42.9200,1.224
42.9600,1.173
43.0000,1.254
43.0400,1.213
43.0800,1.263
43.1200,1.175
43.1600,1.207
43.2000,1.226
43.2400,1.232
43.2800,1.125
43.3200,1.227
43.3600,1.203
43.4000,1.226
43.4400,1.255
43.4800,1.304
43.5200,1.220
43.5600,1.258
43.6000,1.275
43.6400,1.270
43.6800,1.266
43.7200,1.300
43.7600,1.263
43.8000,1.341
43.8400,1.353
43.8800,1.370
43.9200,1.344
43.9600,1.445
44.0000,1.518
44.0400,1.465
44.0800,1.529
44.1200,1.627
44.1600,1.622
44.2000,1.609
44.2400,1.717
44.2800,1.862
44.3200,2.020
44.3600,2.021
44.4000,2.105
44.4400,2.163
44.4800,2.090
44.5200,2.232
44.5600,2.082
44.6000,2.130
44.6400,2.104
44.6800,2.041
44.7200,1.913
44.7600,1.851
44.8000,1.816
44.8400,1.707
44.8800,1.660
44.9200,1.607
44.9600,1.526
45.0000,1.561
45.0400,1.453
45.0800,1.488
45.1200,1.410
45.1600,1.342
45.2000,1.357
45.2400,1.298
45.2800,1.304
45.3200,1.227
45.3600,1.200
45.4000,1.249
45.4400,1.174
45.4800,1.199
45.5200,1.138
45.5600,1.176
45.6000,1.095
45.6400,1.153
45.6800,1.037
45.7200,1.110
45.7600,1.077
45.8000,1.169
45.8400,1.081
45.8800,1.024
45.9200,1.087
45.9600,1.067
46.0000,1.068
46.0400,1.089
46.0800,1.115
46.1200,1.024
46.1600,1.068
46.2000,0.997
46.2400,0.984
46.2800,1.009
46.3200,1.041
46.3600,0.999
46.4000,1.018
46.4400,1.070
46.4800,1.036
46.5200,0.978
46.5600,0.978
46.6000,1.020
46.6400,0.966
46.6800,0.956
46.7200,1.028
46.7600,1.014
46.8000,0.968
46.8400,1.000
46.8800,0.934
46.9200,0.915
46.9600,0.958
47.0000,0.977
47.0400,0.951
47.0800,0.977
47.1200,0.930
47.1600,0.907
47.2000,0.898
47.2400,0.961
47.2800,0.998
47.3200,0.937
47.3600,0.969
47.4000,0.981
47.4400,0.938
47.4800,0.917
47.5200,0.939
47.5600,0.978
47.6000,0.927
47.6400,1.041
47.6800,1.018
47.7200,1.056
47.7600,0.954
47.8000,1.063
47.8400,1.042
47.8800,1.055
47.9200,1.053
47.9600,1.081
48.0000,1.031
48.0400,1.090
48.0800,1.093
48.1200,1.098
48.1600,1.082
48.2000,1.177
48.2400,1.107
48.2800,1.051
48.3200,1.080
48.3600,1.039
48.4000,1.052
48.4400,0.973
48.4800,0.981
48.5200,0.978
48.5600,0.943
48.6000,0.926
48.6400,0.868
48.6800,0.879
48.7200,0.867
48.7600,0.855
48.8000,0.896
48.8400,0.887
48.8800,0.896
48.9200,0.889
48.9600,0.842
49.0000,0.900
49.0400,0.864
49.0800,0.858
49.1200,0.863
49.1600,0.848
49.2000,0.880
49.2400,0.870
49.2800,0.860
49.3200,0.891
49.3600,0.846
49.4000,0.864
49.4400,0.879
49.4800,0.866
49.5200,0.854
49.5600,0.859
49.6000,0.858
49.6400,0.862
49.6800,0.821
49.7200,0.817
49.7600,0.823
49.8000,0.846
49.8400,0.841
49.8800,0.817
49.9200,0.835
49.9600,0.797
50.0000,0.834
50.0400,0.849
50.0800,0.830
50.1200,0.832
50.1600,0.822
50.2000,0.836
50.2400,0.818
50.2800,0.805
50.3200,0.806
50.3600,0.785
50.4000,0.885
50.4400,0.872
50.4800,0.829
50.5200,0.832
50.5600,0.792
50.6000,0.787
50.6400,0.835
50.6800,0.791
50.7200,0.776
50.7600,0.798
50.8000,0.788
50.8400,0.771
50.8800,0.767
50.9200,0.777
50.9600,0.775
51.0000,0.766
51.0400,0.789
51.0800,0.803
51.1200,0.818
51.1600,0.837
51.2000,0.814
51.2400,0.811
51.2800,0.850
51.3200,0.769
51.3600,0.773
51.4000,0.845
51.4400,0.797
51.4800,0.747
51.5200,0.796
51.5600,0.749
51.6000,0.740
51.6400,0.751
51.6800,0.766
51.7200,0.848
51.7600,0.770
51.8000,0.773
51.8400,0.791
51.8800,0.726
51.9200,0.792
51.9600,0.782
52.0000,0.745
52.0400,0.768
52.0800,0.799
52.1200,0.778
52.1600,0.788
52.2000,0.750
52.2400,0.774
52.2800,0.736
52.3200,0.764
52.3600,0.788
52.4000,0.795
52.4400,0.752
52.4800,0.761
52.5200,0.724
52.5600,0.750
52.6000,0.821
52.6400,0.719
52.6800,0.731
52.7200,0.724
52.7600,0.769
52.8000,0.732
52.8400,0.746
52.8800,0.712
52.9200,0.777
52.9600,0.728
53.0000,0.721
53.0400,0.797
53.0800,0.767
53.1200,0.797
53.1600,0.802
53.2000,0.648
53.2400,0.745
53.2800,0.759
53.3200,0.780
53.3600,0.739
53.4000,0.699
53.4400,0.744
53.4800,0.786
53.5200,0.718
53.5600,0.713
53.6000,0.768
53.6400,0.724
53.6800,0.764
53.7200,0.728
53.7600,0.697
53.8000,0.711
53.8400,0.761
53.8800,0.718
53.9200,0.698
53.9600,0.696
54.0000,0.669
54.0400,0.679
54.0800,0.713
54.1200,0.742
54.1600,0.729
54.2000,0.737
54.2400,0.656
54.2800,0.687
54.3200,0.712
54.3600,0.753
54.4000,0.724
54.4400,0.728
54.4800,0.703
54.5200,0.709
54.5600,0.689
54.6000,0.700
54.6400,0.692
54.6800,0.681
54.7200,0.735
54.7600,0.681
54.8000,0.691
54.8400,0.703
54.8800,0.698
54.9200,0.658
54.9600,0.724
55.0000,0.690
55.0400,0.672
55.0800,0.716
55.1200,0.721
55.1600,0.725
55.2000,0.695
55.2400,0.755
55.2800,0.753
55.3200,0.690
55.3600,0.676
55.4000,0.735
55.4400,0.710
55.4800,0.759
55.5200,0.673
55.5600,0.725
55.6000,0.701
55.6400,0.738
55.6800,0.710
55.7200,0.718
55.7600,0.690
55.8000,0.633
55.8400,0.680
55.8800,0.664
55.9200,0.655
55.9600,0.725
56.0000,0.668
56.0400,0.699
56.0800,0.703
56.1200,0.683
56.1600,0.710
56.2000,0.671
56.2400,0.642
56.2800,0.640
56.3200,0.614
56.3600,0.659
56.4000,0.695
56.4400,0.646
56.4800,0.658
56.5200,0.652
56.5600,0.665
56.6000,0.630
56.6400,0.680
56.6800,0.670
56.7200,0.686
56.7600,0.669
56.8000,0.650
56.8400,0.605
56.8800,0.718
56.9200,0.611
56.9600,0.622
57.0000,0.644
57.0400,0.690
57.0800,0.641
57.1200,0.631
57.1600,0.663
57.2000,0.654
57.2400,0.650
57.2800,0.683
57.3200,0.659
57.3600,0.698
57.4000,0.726
57.4400,0.659
57.4800,0.605
57.5200,0.682
57.5600,0.662
57.6000,0.685
57.6400,0.689
57.6800,0.681
57.7200,0.675
57.7600,0.701
57.8000,0.677
57.8400,0.635
57.8800,0.672
57.9200,0.667
57.9600,0.639
58.0000,0.680
58.0400,0.681
58.0800,0.676
58.1200,0.719
58.1600,0.653
58.2000,0.675
58.2400,0.656
58.2800,0.679
58.3200,0.666
58.3600,0.643
58.4000,0.651
58.4400,0.660
58.4800,0.642
58.5200,0.614
58.5600,0.696
58.6000,0.668
58.6400,0.652
58.6800,0.638
58.7200,0.632
58.7600,0.639
58.8000,0.622
58.8400,0.606
58.8800,0.656
58.9200,0.619
58.9600,0.621
59.0000,0.683
59.0400,0.628
59.0800,0.615
59.1200,0.640
59.1600,0.667
59.2000,0.618
59.2400,0.676
59.2800,0.625
59.3200,0.621
59.3600,0.591
59.4000,0.608
59.4400,0.607
59.4800,0.615
59.5200,0.601
59.5600,0.662
59.6000,0.631
59.6400,0.638
59.6800,0.657
59.7200,0.639
59.7600,0.622
59.8000,0.638
59.8400,0.659
59.8800,0.646
59.9200,0.651
59.9600,0.630
60.0000,0.622
60.0400,0.699
60.0800,0.660
60.1200,0.659
60.1600,0.683
60.2000,0.665
60.2400,0.616
60.2800,0.647
60.3200,0.646
60.3600,0.641
60.4000,0.630
60.4400,0.645
60.4800,0.633
60.5200,0.615
60.5600,0.631
60.6000,0.617
60.6400,0.628
60.6800,0.612
60.7200,0.642
60.7600,0.647
60.8000,0.653
60.8400,0.661
60.8800,0.631
60.9200,0.604
60.9600,0.631
61.0000,0.641
61.0400,0.636
61.0800,0.635
61.1200,0.614
61.1600,0.660
61.2000,0.664
61.2400,0.675
61.2800,0.687
61.3200,0.674
61.3600,0.668
61.4000,0.664
61.4400,0.717
61.4800,0.700
61.5200,0.720
61.5600,0.805
61.6000,0.774
61.6400,0.813
61.6800,0.730
61.7200,0.679
61.7600,0.755
61.8000,0.702
61.8400,0.691
61.8800,0.624
61.9200,0.675
61.9600,0.645
62.0000,0.628
62.0400,0.599
62.0800,0.609
62.1200,0.635
62.1600,0.636
62.2000,0.578
62.2400,0.597
62.2800,0.627
62.3200,0.618
62.3600,0.679
62.4000,0.619
62.4400,0.596
62.4800,0.612
62.5200,0.595
62.5600,0.556
62.6000,0.591
62.6400,0.650
62.6800,0.602
62.7200,0.620
62.7600,0.610
62.8000,0.596
62.8400,0.614
62.8800,0.573
62.9200,0.559
62.9600,0.631
63.0000,0.626
63.0400,0.595
63.0800,0.626
63.1200,0.575
63.1600,0.584
63.2000,0.614
63.2400,0.590
63.2800,0.599
63.3200,0.596
63.3600,0.563
63.4000,0.651
63.4400,0.590
63.4800,0.572
63.5200,0.594
63.5600,0.605
63.6000,0.667
63.6400,0.613
63.6800,0.627
63.7200,0.650
63.7600,0.621
63.8000,0.590
63.8400,0.677
63.8800,0.644
63.9200,0.672
63.9600,0.646
64.0000,0.694
64.0400,0.631
64.0800,0.683
64.1200,0.664
64.1600,0.662
64.2000,0.672
64.2400,0.688
64.2800,0.672
64.3200,0.686
64.3600,0.737
64.4000,0.690
64.4400,0.730
64.4800,0.734
64.5200,0.811
64.5600,0.794
64.6000,0.801
64.6400,0.861
64.6800,0.826
64.7200,0.844
64.7600,0.835
64.8000,0.810
64.8400,0.827
64.8800,0.898
64.9200,0.892
64.9600,0.837
65.0000,0.846
65.0400,0.879
65.0800,0.863
65.1200,0.829
65.1600,0.817
65.2000,0.822
65.2400,0.833
65.2800,0.835
65.3200,0.791
65.3600,0.769
65.4000,0.830
65.4400,0.819
65.4800,0.838
65.5200,0.771
65.5600,0.809
65.6000,0.793
65.6400,0.756
65.6800,0.799
65.7200,0.792
65.7600,0.783
65.8000,0.798
65.8400,0.792
65.8800,0.778
65.9200,0.786
65.9600,0.834
66.0000,0.801
66.0400,0.825
66.0800,0.811
66.1200,0.807
66.1600,0.789
66.2000,0.843
66.2400,0.798
66.2800,0.850
66.3200,0.838
66.3600,0.833
66.4000,0.870
66.4400,0.881
66.4800,0.869
66.5200,0.856
66.5600,0.890
66.6000,0.853
66.6400,0.933
66.6800,0.916
66.7200,0.896
66.7600,0.979
66.8000,0.999
66.8400,0.946
66.8800,1.034
66.9200,1.017
66.9600,1.029
67.0000,1.022
67.0400,1.091
67.0800,1.058
67.1200,1.084
67.1600,1.139
67.2000,1.132
67.2400,1.138
67.2800,1.166
67.3200,1.145
67.3600,1.242
67.4000,1.305
67.4400,1.310
67.4800,1.267
67.5200,1.361
67.5600,1.356
67.6000,1.379
67.6400,1.416
67.6800,1.472
67.7200,1.569
67.7600,1.544
67.8000,1.530
67.8400,1.613
67.8800,1.647
67.9200,1.659
67.9600,1.727
68.0000,1.649
68.0400,1.744
68.0800,1.800
68.1200,1.813
68.1600,1.890
68.2000,1.924
68.2400,2.063
68.2800,2.078
68.3200,2.024
68.3600,2.286
68.4000,2.336
68.4400,2.428
68.4800,2.505
68.5200,2.711
68.5600,2.995
68.6000,3.321
68.6400,3.951
68.6800,5.165
68.7200,6.457
68.7600,7.306
68.8000,7.434
68.8400,8.177
68.8800,9.911
68.9200,13.904
68.9600,22.778
69.0000,54.555
69.0400,256.319
69.0800,480.265
69.1200,283.421
69.1600,73.939
69.2000,52.503
69.2400,154.684
69.2800,252.498
69.3200,143.912
69.3600,37.192
69.4000,15.693
69.4400,10.499
69.4800,8.122
69.5200,6.457
69.5600,5.388
69.6000,4.758
69.6400,4.177
69.6800,3.815
69.7200,3.478
69.7600,3.257
69.8000,3.060
69.8400,2.862
69.8800,2.716
69.9200,2.575
69.9600,2.531
70.0000,2.432
70.0400,2.291
70.0800,2.220
70.1200,2.174
70.1600,2.139
70.2000,2.048
70.2400,1.913
70.2800,1.865
70.3200,1.789
70.3600,1.714
70.4000,1.721
70.4400,1.587
70.4800,1.652
70.5200,1.619
70.5600,1.522
70.6000,1.399
70.6400,1.404
70.6800,1.368
70.7200,1.343
70.7600,1.330
70.8000,1.296
70.8400,1.314
70.8800,1.226
70.9200,1.173
70.9600,1.153
71.0000,1.164
71.0400,1.100
71.0800,1.132
71.1200,1.096
71.1600,1.023
71.2000,0.983
71.2400,1.039
71.2800,0.991
71.3200,0.945
71.3600,0.976
71.4000,0.916
71.4400,0.925
71.4800,0.939
71.5200,0.873
71.5600,0.886
71.6000,0.852
71.6400,0.810
71.6800,0.827
71.7200,0.855
71.7600,0.840
71.8000,0.804
71.8400,0.798
71.8800,0.796
71.9200,0.725
71.9600,0.704
72.0000,0.714
72.0400,0.724
72.0800,0.680
72.1200,0.730
72.1600,0.682
72.2000,0.702
72.2400,0.677
72.2800,0.680
72.3200,0.625
72.3600,0.681
72.4000,0.654
72.4400,0.631
72.4800,0.642
72.5200,0.656
72.5600,0.650
72.6000,0.602
72.6400,0.586
72.6800,0.608
72.7200,0.598
72.7600,0.604
72.8000,0.562
72.8400,0.587
72.8800,0.528
72.9200,0.568
72.9600,0.537
73.0000,0.580
73.0400,0.571
73.0800,0.560
73.1200,0.539
73.1600,0.526
73.2000,0.570
73.2400,0.526
73.2800,0.528
73.3200,0.493
73.3600,0.515
73.4000,0.507
73.4400,0.510
73.4800,0.482
73.5200,0.512
73.5600,0.482
73.6000,0.482
73.6400,0.544
73.6800,0.504
73.7200,0.509
73.7600,0.521
73.8000,0.475
73.8400,0.505
73.8800,0.511
73.9200,0.447
73.9600,0.475
74.0000,0.475
74.0400,0.470
74.0800,0.494
74.1200,0.478
74.1600,0.455
74.2000,0.457
74.2400,0.487
74.2800,0.486
74.3200,0.449
74.3600,0.472
74.4000,0.485
74.4400,0.439
74.4800,0.471
74.5200,0.484
74.5600,0.435
74.6000,0.471
74.6400,0.441
74.6800,0.460
74.7200,0.445
74.7600,0.482
74.8000,0.481
74.8400,0.449
74.8800,0.475
74.9200,0.477
74.9600,0.474
75.0000,0.503
75.0400,0.485
75.0800,0.439
75.1200,0.453
75.1600,0.477
75.2000,0.455
75.2400,0.472
75.2800,0.437
75.3200,0.418
75.3600,0.396
75.4000,0.397
75.4400,0.444
75.4800,0.433
75.5200,0.441
75.5600,0.432
75.6000,0.468
75.6400,0.444
75.6800,0.409
75.7200,0.421
75.7600,0.438
75.8000,0.448
75.8400,0.414
75.8800,0.431
75.9200,0.435
75.9600,0.434
76.0000,0.378
76.0400,0.435
76.0800,0.419
76.1200,0.391
76.1600,0.415
76.2000,0.409
76.2400,0.436
76.2800,0.412
76.3200,0.393
76.3600,0.438
76.4000,0.427
76.4400,0.411
76.4800,0.424
76.5200,0.425
76.5600,0.441
76.6000,0.396
76.6400,0.400
76.6800,0.447
76.7200,0.465
76.7600,0.410
76.8000,0.444
76.8400,0.427
76.8800,0.415
76.9200,0.428
76.9600,0.449
77.0000,0.437
77.0400,0.450
77.0800,0.427
77.1200,0.458
77.1600,0.483
77.2000,0.463
77.2400,0.499
77.2800,0.462
77.3200,0.485
77.3600,0.491
77.4000,0.486
77.4400,0.523
77.4800,0.554
77.5200,0.533
77.5600,0.556
77.6000,0.532
77.6400,0.556
77.6800,0.575
77.7200,0.518
77.7600,0.562
77.8000,0.559
77.8400,0.549
77.8800,0.556
77.9200,0.576
77.9600,0.595
78.0000,0.543
78.0400,0.592
78.0800,0.560
78.1200,0.541
78.1600,0.524
78.2000,0.554
78.2400,0.559
78.2800,0.506
78.3200,0.541
78.3600,0.512
78.4000,0.562
78.4400,0.525
78.4800,0.530
78.5200,0.547
78.5600,0.504
78.6000,0.517
78.6400,0.509
78.6800,0.471
78.7200,0.500
78.7600,0.498
78.8000,0.488
78.8400,0.494
78.8800,0.495
78.9200,0.444
78.9600,0.485
79.0000,0.507
79.0400,0.509
79.0800,0.455
79.1200,0.483
79.1600,0.488
79.2000,0.468
79.2400,0.454
79.2800,0.483
79.3200,0.485
79.3600,0.449
79.4000,0.448
79.4400,0.450
79.4800,0.409
79.5200,0.448
79.5600,0.455
79.6000,0.464
79.6400,0.444
79.6800,0.463
79.7200,0.410
79.7600,0.452
79.8000,0.431
79.8400,0.462
79.8800,0.449
79.9200,0.447
79.9600,0.387
80.0000,0.444
