theta,intensity
5.0000,5.501
5.0400,5.534
5.0800,5.402
5.1200,5.496
5.1600,5.298
5.2000,5.435
5.2400,5.409
5.2800,5.476
5.3200,5.434
5.3600,5.380
5.4000,5.400
5.4400,5.151
5.4800,5.154
5.5200,5.239
5.5600,5.091
5.6000,5.165
5.6400,5.149
5.6800,5.134
5.7200,5.050
5.7600,4.903
5.8000,5.030
5.8400,4.924
5.8800,4.769
5.9200,4.732
5.9600,4.771
6.0000,4.745
6.0400,4.685
6.0800,4.514
6.1200,4.533
6.1600,4.485
6.2000,4.418
6.2400,4.341
6.2800,4.177
6.3200,4.366
6.3600,4.223
6.4000,4.234
6.4400,4.215
6.4800,4.096
6.5200,4.008
6.5600,4.010
6.6000,4.068
6.6400,3.978
6.6800,3.931
6.7200,3.962
6.7600,4.011
6.8000,3.960
6.8400,4.082
6.8800,3.985
6.9200,4.036
6.9600,4.079
7.0000,3.931
7.0400,3.925
7.0800,3.999
7.1200,3.992
7.1600,3.970
7.2000,4.010
7.2400,3.865
7.2800,3.818
7.3200,3.818
7.3600,3.905
7.4000,3.771
7.4400,4.014
7.4800,3.858
7.5200,3.967
7.5600,3.807
7.6000,3.837
7.6400,3.893
7.6800,3.877
7.7200,3.784
7.7600,3.821
7.8000,3.849
7.8400,3.838
7.8800,3.890
7.9200,3.746
7.9600,3.732
8.0000,3.724
8.0400,3.792
8.0800,3.809
8.1200,3.770
8.1600,3.705
8.2000,3.847
8.2400,3.723
8.2800,3.706
8.3200,3.707
8.3600,3.769
8.4000,3.754
8.4400,3.764
8.4800,3.807
8.5200,3.741
8.5600,3.760
8.6000,3.717
8.6400,3.681
8.6800,3.729
8.7200,3.827
8.7600,3.675
8.8000,3.679
8.8400,3.699
8.8800,3.736
8.9200,3.683
8.9600,3.595
9.0000,3.666
9.0400,3.611
9.0800,3.635
9.1200,3.741
9.1600,3.625
9.2000,3.687
9.2400,3.643
9.2800,3.585
9.3200,3.716
9.3600,3.650
9.4000,3.738
9.4400,3.543
9.4800,3.629
9.5200,3.609
9.5600,3.548
9.6000,3.618
9.6400,3.628
9.6800,3.673
9.7200,3.619
9.7600,3.682
9.8000,3.574
9.8400,3.647
9.8800,3.558
9.9200,3.615
9.9600,3.628
10.0000,3.687
10.0400,3.559
10.0800,3.501
10.1200,3.494
10.1600,3.551
10.2000,3.515
10.2400,3.532
10.2800,3.572
10.3200,3.575
10.3600,3.400
10.4000,3.498
10.4400,3.626
10.4800,3.547
10.5200,3.423
10.5600,3.574
10.6000,3.567
10.6400,3.541
10.6800,3.503
10.7200,3.479
10.7600,3.392
10.8000,3.503
10.8400,3.439
10.8800,3.449
10.9200,3.489
10.9600,3.455
11.0000,3.493
11.0400,3.445
11.0800,3.482
11.1200,3.512
11.1600,3.379
11.2000,3.382
11.2400,3.404
11.2800,3.524
11.3200,3.452
11.3600,3.507
11.4000,3.495
11.4400,3.392
11.4800,3.447
11.5200,3.487
11.5600,3.518
11.6000,3.354
11.6400,3.380
11.6800,3.435
11.7200,3.421
11.7600,3.391
11.8000,3.441
11.8400,3.386
11.8800,3.465
11.9200,3.281
11.9600,3.465
12.0000,3.421
12.0400,3.397
12.0800,3.386
12.1200,3.341
12.1600,3.338
12.2000,3.334
12.2400,3.406
12.2800,3.352
12.3200,3.366
12.3600,3.310
12.4000,3.333
12.4400,3.389
12.4800,3.302
12.5200,3.328
12.5600,3.287
12.6000,3.335
12.6400,3.335
12.6800,3.274
12.7200,3.293
12.7600,3.360
12.8000,3.327
12.8400,3.263
12.8800,3.330
12.9200,3.377
12.9600,3.304
13.0000,3.229
13.0400,3.221
13.0800,3.298
13.1200,3.203
13.1600,3.303
13.2000,3.243
13.2400,3.260
13.2800,3.266
13.3200,3.309
13.3600,3.193
13.4000,3.165
13.4400,3.263
13.4800,3.270
13.5200,3.252
13.5600,3.323
13.6000,3.336
13.6400,3.238
13.6800,3.219
13.7200,3.244
13.7600,3.215
13.8000,3.270
13.8400,3.152
13.8800,3.279
13.9200,3.220
13.9600,3.172
14.0000,3.163
14.0400,3.191
14.0800,3.253
14.1200,3.265
14.1600,3.190
14.2000,3.182
14.2400,3.100
14.2800,3.094
14.3200,3.076
14.3600,3.197
14.4000,3.166
14.4400,3.137
14.4800,3.092
14.5200,3.151
14.5600,3.145
14.6000,3.056
14.6400,3.175
14.6800,3.102
14.7200,3.147
14.7600,3.188
14.8000,3.071
14.8400,3.125
14.8800,3.049
14.9200,3.083
14.9600,3.023
15.0000,3.091
15.0400,3.023
15.0800,3.114
15.1200,3.142
15.1600,3.036
15.2000,3.154
15.2400,3.154
15.2800,3.047
15.3200,3.046
15.3600,3.143
15.4000,3.059
15.4400,3.127
15.4800,2.958
15.5200,3.081
15.5600,3.097
15.6000,3.071
15.6400,3.002
15.6800,2.939
15.7200,2.988
15.7600,3.125
15.8000,3.025
15.8400,3.036
15.8800,2.974
15.9200,3.016
15.9600,3.022
16.0000,3.011
16.0400,3.017
16.0800,3.002
16.1200,2.947
16.1600,3.032
16.2000,3.050
16.2400,2.971
16.2800,2.935
16.3200,2.921
16.3600,2.956
16.4000,2.944
16.4400,3.024
16.4800,2.988
16.5200,2.940
16.5600,2.936
16.6000,2.918
16.6400,2.876
16.6800,3.027
16.7200,2.990
16.7600,3.005
16.8000,2.917
16.8400,3.129
16.8800,2.944
16.9200,2.916
16.9600,2.961
17.0000,2.934
17.0400,2.902
17.0800,2.922
17.1200,2.890
17.1600,2.908
17.2000,2.897
17.2400,2.886
17.2800,2.733
17.3200,2.819
17.3600,2.907
17.4000,2.793
17.4400,2.802
17.4800,2.890
17.5200,3.014
17.5600,2.805
17.6000,2.832
17.6400,2.845
17.6800,2.832
17.7200,2.880
17.7600,2.805
17.8000,2.875
17.8400,2.703
17.8800,2.833
17.9200,2.805
17.9600,2.801
18.0000,2.880
18.0400,2.830
18.0800,2.836
18.1200,2.823
18.1600,2.779
18.2000,2.790
18.2400,2.807
18.2800,2.783
18.3200,2.805
18.3600,2.840
18.4000,2.778
18.4400,2.793
18.4800,2.725
18.5200,2.740
18.5600,2.822
18.6000,2.750
18.6400,2.741
18.6800,2.724
18.7200,2.668
18.7600,2.819
18.8000,2.705
18.8400,2.742
18.8800,2.768
18.9200,2.784
18.9600,2.691
19.0000,2.759
19.0400,2.757
19.0800,2.690
19.1200,2.705
19.1600,2.663
19.2000,2.688
19.2400,2.796
19.2800,2.779
19.3200,2.626
19.3600,2.630
19.4000,2.694
19.4400,2.822
19.4800,2.707
19.5200,2.689
19.5600,2.732
19.6000,2.703
19.6400,2.678
19.6800,2.673
19.7200,2.735
19.7600,2.622
19.8000,2.669
19.8400,2.570
19.8800,2.640
19.9200,2.682
19.9600,2.661
20.0000,2.645
20.0400,2.615
20.0800,2.683
20.1200,2.573
20.1600,2.630
20.2000,2.646
20.2400,2.645
20.2800,2.609
20.3200,2.625
20.3600,2.535
20.4000,2.629
20.4400,2.614
20.4800,2.611
20.5200,2.612
20.5600,2.555
20.6000,2.669
20.6400,2.622
20.6800,2.526
20.7200,2.642
20.7600,2.587
20.8000,2.531
20.8400,2.500
20.8800,2.548
20.9200,2.648
20.9600,2.536
21.0000,2.558
21.0400,2.579
21.0800,2.580
21.1200,2.626
21.1600,2.637
21.2000,2.617
21.2400,2.559
21.2800,2.465
21.3200,2.536
21.3600,2.501
21.4000,2.585
21.4400,2.461
21.4800,2.464
21.5200,2.613
21.5600,2.505
21.6000,2.410
21.6400,2.493
21.6800,2.452
21.7200,2.499
21.7600,2.625
21.8000,2.442
21.8400,2.391
21.8800,2.485
21.9200,2.418
21.9600,2.484
22.0000,2.400
22.0400,2.473
22.0800,2.446
22.1200,2.451
22.1600,2.397
22.2000,2.475
22.2400,2.473
22.2800,2.450
22.3200,2.495
22.3600,2.440
22.4000,2.504
22.4400,2.439
22.4800,2.363
22.5200,2.490
22.5600,2.392
22.6000,2.427
22.6400,2.446
22.6800,2.358
22.7200,2.482
22.7600,2.439
22.8000,2.423
22.8400,2.450
22.8800,2.413
22.9200,2.454
22.9600,2.382
23.0000,2.409
23.0400,2.357
23.0800,2.343
23.1200,2.381
23.1600,2.375
23.2000,2.452
23.2400,2.341
23.2800,2.345
23.3200,2.425
23.3600,2.355
23.4000,2.284
23.4400,2.359
23.4800,2.300
23.5200,2.322
23.5600,2.284
23.6000,2.304
23.6400,2.259
23.6800,2.351
23.7200,2.342
23.7600,2.314
23.8000,2.252
23.8400,2.258
23.8800,2.234
23.9200,2.282
23.9600,2.264
24.0000,2.262
24.0400,2.249
24.0800,2.272
24.1200,2.235
24.1600,2.171
24.2000,2.240
24.2400,2.349
24.2800,2.371
24.3200,2.248
24.3600,2.287
24.4000,2.314
24.4400,2.264
24.4800,2.215
24.5200,2.255
24.5600,2.194
24.6000,2.223
24.6400,2.249
24.6800,2.164
24.7200,2.269
24.7600,2.298
24.8000,2.226
24.8400,2.197
24.8800,2.294
24.9200,2.252
24.9600,2.248
25.0000,2.189
25.0400,2.134
25.0800,2.246
25.1200,2.229
25.1600,2.177
25.2000,2.147
25.2400,2.177
25.2800,2.211
25.3200,2.212
25.3600,2.207
25.4000,2.250
25.4400,2.202
25.4800,2.160
25.5200,2.154
25.5600,2.072
25.6000,2.229
25.6400,2.155
25.6800,2.199
25.7200,2.156
25.7600,2.205
25.8000,2.176
25.8400,2.115
25.8800,2.112
25.9200,2.125
25.9600,2.157
26.0000,2.136
26.0400,2.068
26.0800,2.109
26.1200,2.142
26.1600,2.059
26.2000,2.111
26.2400,2.131
26.2800,2.108
26.3200,2.131
26.3600,2.152
26.4000,2.145
26.4400,2.096
26.4800,2.055
26.5200,2.062
26.5600,2.145
26.6000,2.105
26.6400,2.004
26.6800,2.038
26.7200,2.085
26.7600,2.139
26.8000,2.027
26.8400,2.046
26.8800,2.019
26.9200,2.072
26.9600,2.050
27.0000,2.084
27.0400,2.003
27.0800,2.027
27.1200,2.016
27.1600,2.082
27.2000,2.117
27.2400,2.041
27.2800,2.031
27.3200,2.011
27.3600,1.976
27.4000,1.996
27.4400,2.058
27.4800,1.968
27.5200,2.055
27.5600,2.075
27.6000,2.017
27.6400,2.009
27.6800,2.026
27.7200,2.001
27.7600,2.003
27.8000,1.996
27.8400,1.938
27.8800,2.060
27.9200,1.968
27.9600,1.976
28.0000,1.940
28.0400,1.982
28.0800,1.962
28.1200,2.031
28.1600,1.942
28.2000,1.888
28.2400,2.004
28.2800,1.989
28.3200,2.033
28.3600,2.021
28.4000,2.006
28.4400,1.926
28.4800,1.962
28.5200,1.963
28.5600,1.895
28.6000,1.942
28.6400,1.935
28.6800,2.012
28.7200,1.844
28.7600,1.958
28.8000,1.865
28.8400,1.828
28.8800,1.880
28.9200,1.933
28.9600,1.963
29.0000,1.971
29.0400,1.900
29.0800,1.869
29.1200,1.928
29.1600,1.898
29.2000,1.973
29.2400,1.964
29.2800,1.933
29.3200,1.921
29.3600,1.974
29.4000,1.932
29.4400,1.800
29.4800,1.809
29.5200,1.860
29.5600,1.922
29.6000,1.874
29.6400,1.917
29.6800,1.877
29.7200,1.891
29.7600,1.724
29.8000,1.841
29.8400,1.768
29.8800,1.852
29.9200,1.848
29.9600,1.844
30.0000,1.800
30.0400,1.862
30.0800,1.865
30.1200,1.790
30.1600,1.823
30.2000,1.807
30.2400,1.873
30.2800,1.859
30.3200,1.828
30.3600,1.739
30.4000,1.857
30.4400,1.773
30.4800,1.850
30.5200,1.846
30.5600,1.779
30.6000,1.823
30.6400,1.755
30.6800,1.754
30.7200,1.802
30.7600,1.817
30.8000,1.699
30.8400,1.706
30.8800,1.796
30.9200,1.740
30.9600,1.716
31.0000,1.785
31.0400,1.773
31.0800,1.755
31.1200,1.792
31.1600,1.730
31.2000,1.857
31.2400,1.739
31.2800,1.752
31.3200,1.774
31.3600,1.776
31.4000,1.716
31.4400,1.723
31.4800,1.730
31.5200,1.683
31.5600,1.757
31.6000,1.700
31.6400,1.683
31.6800,1.779
31.7200,1.755
31.7600,1.706
31.8000,1.701
31.8400,1.718
31.8800,1.709
31.9200,1.600
31.9600,1.735
32.0000,1.621
32.0400,1.667
32.0800,1.752
32.1200,1.676
32.1600,1.642
32.2000,1.668
32.2400,1.766
32.2800,1.692
32.3200,1.656
32.3600,1.649
32.4000,1.615
32.4400,1.669
32.4800,1.620
32.5200,1.708
32.5600,1.697
32.6000,1.703
32.6400,1.675
32.6800,1.690
32.7200,1.849
32.7600,1.835
32.8000,1.858
32.8400,1.851
32.8800,1.846
32.9200,1.801
32.9600,1.831
33.0000,1.997
33.0400,3.495
33.0800,4.622
33.1200,3.306
33.1600,1.894
33.2000,1.637
33.2400,1.665
33.2800,1.689
33.3200,1.651
33.3600,1.627
33.4000,1.623
33.4400,1.631
33.4800,1.652
33.5200,1.582
33.5600,1.693
33.6000,1.696
33.6400,1.557
33.6800,1.571
33.7200,1.637
33.7600,1.618
33.8000,1.618
33.8400,1.656
33.8800,1.561
33.9200,1.578
33.9600,1.510
34.0000,1.628
34.0400,1.548
34.0800,1.588
34.1200,1.598
34.1600,1.543
34.2000,1.549
34.2400,1.521
34.2800,1.559
34.3200,1.597
34.3600,1.582
34.4000,1.511
34.4400,1.523
34.4800,1.559
34.5200,1.566
34.5600,1.577
34.6000,1.569
34.6400,1.521
34.6800,1.550
34.7200,1.582
34.7600,1.537
34.8000,1.547
34.8400,1.526
34.8800,1.469
34.9200,1.536
34.9600,1.537
35.0000,1.580
35.0400,1.432
35.0800,1.537
35.1200,1.506
35.1600,1.558
35.2000,1.485
35.2400,1.546
35.2800,1.560
35.3200,1.473
35.3600,1.496
35.4000,1.551
35.4400,1.451
35.4800,1.487
35.5200,1.518
35.5600,1.473
35.6000,1.537
35.6400,1.535
35.6800,1.575
35.7200,1.549
35.7600,1.562
35.8000,1.452
35.8400,1.560
35.8800,1.543
35.9200,1.570
35.9600,1.566
36.0000,1.623
36.0400,1.579
36.0800,1.590
36.1200,1.585
36.1600,1.504
36.2000,1.645
36.2400,1.580
36.2800,1.524
36.3200,1.483
36.3600,1.606
36.4000,1.615
36.4400,1.542
36.4800,1.544
36.5200,1.524
36.5600,1.525
36.6000,1.543
36.6400,1.619
36.6800,1.606
36.7200,1.565
36.7600,1.606
36.8000,1.561
36.8400,1.578
36.8800,1.582
36.9200,1.660
36.9600,1.638
37.0000,1.640
37.0400,1.676
37.0800,1.716
37.1200,1.655
37.1600,1.757
37.2000,1.680
37.2400,1.736
37.2800,1.823
37.3200,1.780
37.3600,1.834
37.4000,1.858
37.4400,1.914
37.4800,2.026
37.5200,2.121
37.5600,2.171
37.6000,2.213
37.6400,2.348
37.6800,2.607
37.7200,2.752
37.7600,2.982
37.8000,3.269
37.8400,3.789
37.8800,4.386
37.9200,5.147
37.9600,6.355
38.0000,8.330
38.0400,10.772
38.0800,13.809
38.1200,16.019
38.1600,16.427
38.2000,15.173
38.2400,13.189
38.2800,10.624
38.3200,8.498
38.3600,6.664
38.4000,5.305
38.4400,4.376
38.4800,3.818
38.5200,3.412
38.5600,2.956
38.6000,2.774
38.6400,2.630
38.6800,2.421
38.7200,2.299
38.7600,2.196
38.8000,2.053
38.8400,1.968
38.8800,1.895
38.9200,1.894
38.9600,1.802
39.0000,1.693
39.0400,1.776
39.0800,1.632
39.1200,1.687
39.1600,1.657
39.2000,1.564
39.2400,1.600
39.2800,1.540
39.3200,1.540
39.3600,1.507
39.4000,1.577
39.4400,1.444
39.4800,1.431
39.5200,1.506
39.5600,1.453
39.6000,1.389
39.6400,1.389
39.6800,1.404
39.7200,1.415
39.7600,1.376
39.8000,1.404
39.8400,1.351
39.8800,1.295
39.9200,1.287
39.9600,1.339
40.0000,1.330
40.0400,1.315
40.0800,1.355
40.1200,1.320
40.1600,1.275
40.2000,1.323
40.2400,1.321
40.2800,1.270
40.3200,1.327
40.3600,1.282
40.4000,1.239
40.4400,1.310
40.4800,1.285
40.5200,1.236
40.5600,1.256
40.6000,1.284
40.6400,1.213
40.6800,1.217
40.7200,1.233
40.7600,1.333
40.8000,1.246
40.8400,1.305
40.8800,1.282
40.9200,1.244
40.9600,1.136
41.0000,1.207
41.0400,1.255
41.0800,1.208
41.1200,1.200
41.1600,1.269
41.2000,1.241
41.2400,1.185
41.2800,1.248
41.3200,1.190
41.3600,1.221
41.4000,1.220
41.4400,1.214
41.4800,1.185
41.5200,1.221
41.5600,1.212
41.6000,1.140
41.6400,1.221
41.6800,1.197
41.7200,1.215
41.7600,1.177
41.8000,1.262
41.8400,1.183
41.8800,1.160
41.9200,1.190
41.9600,1.146
42.0000,1.205
42.0400,1.191
42.0800,1.177
42.1200,1.251
42.1600,1.216
42.2000,1.200
42.2400,1.197
42.2800,1.169
42.3200,1.181
42.3600,1.196
42.4000,1.189
42.4400,1.213
42.4800,1.199
42.5200,1.227
42.5600,1.175
42.6000,1.188
42.6400,1.195
42.6800,1.178
42.7200,1.226
42.7600,1.230
42.8000,1.258
42.8400,1.241
42.8800,1.221
42.9200,1.272
42.9600,1.249
43.0000,1.237
43.0400,1.242
43.0800,1.251
43.1200,1.241
43.1600,1.195
43.2000,1.248
43.2400,1.286
43.2800,1.341
43.3200,1.250
43.3600,1.284
43.4000,1.301
43.4400,1.301
43.4800,1.362
43.5200,1.422
43.5600,1.462
43.6000,1.489
43.6400,1.501
43.6800,1.466
43.7200,1.562
43.7600,1.504
43.8000,1.685
43.8400,1.725
43.8800,1.845
43.9200,1.914
43.9600,2.042
44.0000,2.152
44.0400,2.248
44.0800,2.546
44.1200,2.749
44.1600,3.019
44.2000,3.235
44.2400,3.686
44.2800,4.123
44.3200,4.261
44.3600,4.158
44.4000,4.057
44.4400,3.865
44.4800,3.652
44.5200,3.176
44.5600,2.877
44.6000,2.661
44.6400,2.396
44.6800,2.187
44.7200,2.021
44.7600,1.950
44.8000,1.766
44.8400,1.709
44.8800,1.608
44.9200,1.485
44.9600,1.361
45.0000,1.351
45.0400,1.308
45.0800,1.240
45.1200,1.266
45.1600,1.242
45.2000,1.208
45.2400,1.231
45.2800,1.147
45.3200,1.172
45.3600,1.102
45.4000,1.119
45.4400,1.090
45.4800,1.088
45.5200,1.058
45.5600,1.054
45.6000,1.049
45.6400,1.051
45.6800,1.001
45.7200,1.035
45.7600,1.026
45.8000,1.014
45.8400,0.993
45.8800,1.026
45.9200,0.988
45.9600,0.992
46.0000,0.981
46.0400,0.980
46.0800,0.958
46.1200,0.958
46.1600,0.962
46.2000,0.950
46.2400,0.965
46.2800,0.973
46.3200,0.963
46.3600,0.934
46.4000,0.922
46.4400,0.881
46.4800,0.942
46.5200,0.971
46.5600,0.922
46.6000,0.916
46.6400,0.940
46.6800,0.867
46.7200,0.923
46.7600,0.892
46.8000,0.949
46.8400,0.910
46.8800,0.855
46.9200,0.887
46.9600,0.863
47.0000,0.915
47.0400,0.878
47.0800,0.932
47.1200,0.852
47.1600,0.824
47.2000,0.870
47.2400,0.886
47.2800,0.873
47.3200,0.908
47.3600,0.886
47.4000,0.923
47.4400,0.856
47.4800,0.897
47.5200,0.852
47.5600,0.882
47.6000,0.863
47.6400,0.811
47.6800,0.894
47.7200,0.905
47.7600,0.804
47.8000,0.854
47.8400,0.839
47.8800,0.835
47.9200,0.856
47.9600,0.829
48.0000,0.787
48.0400,0.861
48.0800,0.816
48.1200,0.867
48.1600,0.888
48.2000,0.852
48.2400,0.831
48.2800,0.813
48.3200,0.818
48.3600,0.814
48.4000,0.852
48.4400,0.844
48.4800,0.873
48.5200,0.838
48.5600,0.833
48.6000,0.854
48.6400,0.858
48.6800,0.849
48.7200,0.821
48.7600,0.778
48.8000,0.807
48.8400,0.839
48.8800,0.817
48.9200,0.832
48.9600,0.782
49.0000,0.802
49.0400,0.842
49.0800,0.785
49.1200,0.831
49.1600,0.812
49.2000,0.784
49.2400,0.799
49.2800,0.753
49.3200,0.807
49.3600,0.799
49.4000,0.813
49.4400,0.807
49.4800,0.788
49.5200,0.773
49.5600,0.761
49.6000,0.834
49.6400,0.802
49.6800,0.759
49.7200,0.777
49.7600,0.779
49.8000,0.808
49.8400,0.787
49.8800,0.821
49.9200,0.789
49.9600,0.740
50.0000,0.797
50.0400,0.809
50.0800,0.798
50.1200,0.793
50.1600,0.784
50.2000,0.753
50.2400,0.738
50.2800,0.777
50.3200,0.750
50.3600,0.762
50.4000,0.753
50.4400,0.739
50.4800,0.748
50.5200,0.735
50.5600,0.776
50.6000,0.736
50.6400,0.743
50.6800,0.777
50.7200,0.768
50.7600,0.779
50.8000,0.781
50.8400,0.719
50.8800,0.733
50.9200,0.739
50.9600,0.747
51.0000,0.732
51.0400,0.751
51.0800,0.762
51.1200,0.795
51.1600,0.787
51.2000,0.772
51.2400,0.750
51.2800,0.714
51.3200,0.752
51.3600,0.723
51.4000,0.723
51.4400,0.720
51.4800,0.756
51.5200,0.748
51.5600,0.689
51.6000,0.682
51.6400,0.726
51.6800,0.762
51.7200,0.762
51.7600,0.747
51.8000,0.720
51.8400,0.708
51.8800,0.727
51.9200,0.749
51.9600,0.704
52.0000,0.691
52.0400,0.728
52.0800,0.685
52.1200,0.727
52.1600,0.742
52.2000,0.748
52.2400,0.734
52.2800,0.688
52.3200,0.696
52.3600,0.714
52.4000,0.701
52.4400,0.697
52.4800,0.699
52.5200,0.719
52.5600,0.718
52.6000,0.734
52.6400,0.720
52.6800,0.706
52.7200,0.687
52.7600,0.656
52.8000,0.655
52.8400,0.690
52.8800,0.704
52.9200,0.656
52.9600,0.716
53.0000,0.682
53.0400,0.716
53.0800,0.721
53.1200,0.654
53.1600,0.698
53.2000,0.678
53.2400,0.689
53.2800,0.682
53.3200,0.683
53.3600,0.723
53.4000,0.693
53.4400,0.653
53.4800,0.703
53.5200,0.683
53.5600,0.631
53.6000,0.690
53.6400,0.669
53.6800,0.669
53.7200,0.692
53.7600,0.712
53.8000,0.669
53.8400,0.664
53.8800,0.686
53.9200,0.702
53.9600,0.697
54.0000,0.639
54.0400,0.674
54.0800,0.622
54.1200,0.635
54.1600,0.651
54.2000,0.648
54.2400,0.579
54.2800,0.678
54.3200,0.620
54.3600,0.635
54.4000,0.685
54.4400,0.647
54.4800,0.658
54.5200,0.648
54.5600,0.678
54.6000,0.679
54.6400,0.637
54.6800,0.636
54.7200,0.659
54.7600,0.664
54.8000,0.647
54.8400,0.672
54.8800,0.642
54.9200,0.647
54.9600,0.630
55.0000,0.646
55.0400,0.646
55.0800,0.638
55.1200,0.651
55.1600,0.625
55.2000,0.618
55.2400,0.666
55.2800,0.691
55.3200,0.622
55.3600,0.599
55.4000,0.639
55.4400,0.636
55.4800,0.644
55.5200,0.665
55.5600,0.609
55.6000,0.668
55.6400,0.614
55.6800,0.664
55.7200,0.668
55.7600,0.642
55.8000,0.670
55.8400,0.633
55.8800,0.631
55.9200,0.620
55.9600,0.589
56.0000,0.645
56.0400,0.612
56.0800,0.617
56.1200,0.616
56.1600,0.659
56.2000,0.601
56.2400,0.606
56.2800,0.612
56.3200,0.620
56.3600,0.593
56.4000,0.614
56.4400,0.665
56.4800,0.594
56.5200,0.616
56.5600,0.651
56.6000,0.644
56.6400,0.553
56.6800,0.626
56.7200,0.609
56.7600,0.596
56.8000,0.604
56.8400,0.638
56.8800,0.602
56.9200,0.630
56.9600,0.618
57.0000,0.641
57.0400,0.649
57.0800,0.619
57.1200,0.614
57.1600,0.589
57.2000,0.610
57.2400,0.621
57.2800,0.629
57.3200,0.610
57.3600,0.565
57.4000,0.667
57.4400,0.650
57.4800,0.604
57.5200,0.646
57.5600,0.588
57.6000,0.589
57.6400,0.613
57.6800,0.600
57.7200,0.598
57.7600,0.602
57.8000,0.575
57.8400,0.606
57.8800,0.569
57.9200,0.625
57.9600,0.567
58.0000,0.577
58.0400,0.563
58.0800,0.605
58.1200,0.593
58.1600,0.596
58.2000,0.579
58.2400,0.581
58.2800,0.596
58.3200,0.639
58.3600,0.596
58.4000,0.567
58.4400,0.588
58.4800,0.589
58.5200,0.574
58.5600,0.567
58.6000,0.579
58.6400,0.559
58.6800,0.591
58.7200,0.620
58.7600,0.581
58.8000,0.587
58.8400,0.588
58.8800,0.608
58.9200,0.552
58.9600,0.584
59.0000,0.541
59.0400,0.571
59.0800,0.538
59.1200,0.586
59.1600,0.589
59.2000,0.598
59.2400,0.586
59.2800,0.542
59.3200,0.619
59.3600,0.574
59.4000,0.611
59.4400,0.593
59.4800,0.572
59.5200,0.577
59.5600,0.578
59.6000,0.539
59.6400,0.581
59.6800,0.571
59.7200,0.569
59.7600,0.553
59.8000,0.591
59.8400,0.592
59.8800,0.587
59.9200,0.582
59.9600,0.613
60.0000,0.625
60.0400,0.548
60.0800,0.576
60.1200,0.570
60.1600,0.560
60.2000,0.552
60.2400,0.606
60.2800,0.592
60.3200,0.572
60.3600,0.542
60.4000,0.571
60.4400,0.505
60.4800,0.546
60.5200,0.550
60.5600,0.555
60.6000,0.562
60.6400,0.522
60.6800,0.589
60.7200,0.597
60.7600,0.560
60.8000,0.515
60.8400,0.521
60.8800,0.580
60.9200,0.512
60.9600,0.507
61.0000,0.528
61.0400,0.563
61.0800,0.559
61.1200,0.560
61.1600,0.538
61.2000,0.522
61.2400,0.526
61.2800,0.549
61.3200,0.593
61.3600,0.517
61.4000,0.572
61.4400,0.548
61.4800,0.544
61.5200,0.559
61.5600,0.549
61.6000,0.586
61.6400,0.617
61.6800,0.645
61.7200,0.626
61.7600,0.578
61.8000,0.566
61.8400,0.551
61.8800,0.540
61.9200,0.507
61.9600,0.529
62.0000,0.551
62.0400,0.540
62.0800,0.538
62.1200,0.545
62.1600,0.592
62.2000,0.545
62.2400,0.567
62.2800,0.560
62.3200,0.555
62.3600,0.552
62.4000,0.578
62.4400,0.548
62.4800,0.587
62.5200,0.581
62.5600,0.514
62.6000,0.562
62.6400,0.606
62.6800,0.551
62.7200,0.598
62.7600,0.571
62.8000,0.543
62.8400,0.544
62.8800,0.552
62.9200,0.537
62.9600,0.588
63.0000,0.599
63.0400,0.547
63.0800,0.536
63.1200,0.602
63.1600,0.609
63.2000,0.580
63.2400,0.577
63.2800,0.611
63.3200,0.588
63.3600,0.602
63.4000,0.562
63.4400,0.614
63.4800,0.630
63.5200,0.635
63.5600,0.647
63.6000,0.603
63.6400,0.657
63.6800,0.622
63.7200,0.688
63.7600,0.674
63.8000,0.733
63.8400,0.704
63.8800,0.735
63.9200,0.730
63.9600,0.708
64.0000,0.809
64.0400,0.856
64.0800,0.876
64.1200,0.934
64.1600,0.946
64.2000,1.077
64.2400,1.216
64.2800,1.335
64.3200,1.442
64.3600,1.720
64.4000,1.946
64.4400,2.076
64.4800,2.323
64.5200,2.347
64.5600,2.185
64.6000,2.055
64.6400,1.969
64.6800,1.796
64.7200,1.604
64.7600,1.461
64.8000,1.297
64.8400,1.203
64.8800,1.092
64.9200,1.019
64.9600,0.906
65.0000,0.894
65.0400,0.868
65.0800,0.826
65.1200,0.810
65.1600,0.808
65.2000,0.776
65.2400,0.792
65.2800,0.731
65.3200,0.711
65.3600,0.715
65.4000,0.699
65.4400,0.685
65.4800,0.679
65.5200,0.665
65.5600,0.697
65.6000,0.675
65.6400,0.683
65.6800,0.687
65.7200,0.684
65.7600,0.660
65.8000,0.696
65.8400,0.689
65.8800,0.683
65.9200,0.735
65.9600,0.702
66.0000,0.683
66.0400,0.745
66.0800,0.677
66.1200,0.736
66.1600,0.686
66.2000,0.677
66.2400,0.757
66.2800,0.694
66.3200,0.731
66.3600,0.723
66.4000,0.719
66.4400,0.770
66.4800,0.778
66.5200,0.772
66.5600,0.787
66.6000,0.772
66.6400,0.823
66.6800,0.767
66.7200,0.794
66.7600,0.808
66.8000,0.825
66.8400,0.787
66.8800,0.821
66.9200,0.823
66.9600,0.831
67.0000,0.859
67.0400,0.893
67.0800,0.864
67.1200,0.895
67.1600,0.929
67.2000,0.929
67.2400,0.965
67.2800,0.983
67.3200,0.969
67.3600,1.009
67.4000,0.997
67.4400,1.017
67.4800,1.054
67.5200,1.080
67.5600,1.052
67.6000,1.104
67.6400,1.087
67.6800,1.140
67.7200,1.137
67.7600,1.191
67.8000,1.156
67.8400,1.219
67.8800,1.222
67.9200,1.352
67.9600,1.315
68.0000,1.411
68.0400,1.444
68.0800,1.413
68.1200,1.484
68.1600,1.475
68.2000,1.495
68.2400,1.530
68.2800,1.624
68.3200,1.703
68.3600,1.710
68.4000,1.949
68.4400,1.946
68.4800,1.982
68.5200,2.130
68.5600,2.190
68.6000,2.303
68.6400,2.493
68.6800,2.874
68.7200,3.490
68.7600,4.466
68.8000,5.512
68.8400,6.028
68.8800,6.134
68.9200,6.564
68.9600,8.389
69.0000,12.461
69.0400,23.333
69.0800,72.716
69.1200,295.776
69.1600,395.110
69.2000,179.352
69.2400,50.526
69.2800,58.202
69.3200,166.653
69.3600,204.746
69.4000,90.105
69.4400,24.351
69.4800,11.808
69.5200,7.897
69.5600,6.070
69.6000,4.914
69.6400,4.374
69.6800,3.782
69.7200,3.455
69.7600,3.061
69.8000,2.813
69.8400,2.756
69.8800,2.474
69.9200,2.349
69.9600,2.305
70.0000,2.112
70.0400,2.081
70.0800,1.987
70.1200,1.871
70.1600,1.831
70.2000,1.796
70.2400,1.734
70.2800,1.672
70.3200,1.639
70.3600,1.570
70.4000,1.518
70.4400,1.476
70.4800,1.405
70.5200,1.408
70.5600,1.390
70.6000,1.347
70.6400,1.297
70.6800,1.196
70.7200,1.211
70.7600,1.235
70.8000,1.188
70.8400,1.124
70.8800,1.070
70.9200,1.062
70.9600,1.013
71.0000,1.050
71.0400,1.030
71.0800,0.944
71.1200,0.962
71.1600,1.014
71.2000,0.924
71.2400,0.850
71.2800,0.832
71.3200,0.926
71.3600,0.885
71.4000,0.834
71.4400,0.833
71.4800,0.880
71.5200,0.804
71.5600,0.804
71.6000,0.756
71.6400,0.760
71.6800,0.765
71.7200,0.753
71.7600,0.737
71.8000,0.704
71.8400,0.651
71.8800,0.670
71.9200,0.664
71.9600,0.641
72.0000,0.617
72.0400,0.636
72.0800,0.654
72.1200,0.574
72.1600,0.627
72.2000,0.619
72.2400,0.572
72.2800,0.601
72.3200,0.610
72.3600,0.604
72.4000,0.537
72.4400,0.567
72.4800,0.549
72.5200,0.579
72.5600,0.545
72.6000,0.507
72.6400,0.506
72.6800,0.515
72.7200,0.546
72.7600,0.513
72.8000,0.510
72.8400,0.482
72.8800,0.471
72.9200,0.469
72.9600,0.519
73.0000,0.522
73.0400,0.498
73.0800,0.471
73.1200,0.465
73.1600,0.473
73.2000,0.449
73.2400,0.465
73.2800,0.462
73.3200,0.476
73.3600,0.415
73.4000,0.454
73.4400,0.459
73.4800,0.473
73.5200,0.413
73.5600,0.448
73.6000,0.430
73.6400,0.452
73.6800,0.470
73.7200,0.443
73.7600,0.419
73.8000,0.449
73.8400,0.435
73.8800,0.439
73.9200,0.409
73.9600,0.447
74.0000,0.408
74.0400,0.416
74.0800,0.442
74.1200,0.422
74.1600,0.391
74.2000,0.459
74.2400,0.419
74.2800,0.404
74.3200,0.419
74.3600,0.437
74.4000,0.407
74.4400,0.416
74.4800,0.428
74.5200,0.415
74.5600,0.415
74.6000,0.407
74.6400,0.394
74.6800,0.401
74.7200,0.377
74.7600,0.404
74.8000,0.403
74.8400,0.423
74.8800,0.416
74.9200,0.398
74.9600,0.413
75.0000,0.403
75.0400,0.368
75.0800,0.388
75.1200,0.412
75.1600,0.393
75.2000,0.395
75.2400,0.350
75.2800,0.373
75.3200,0.391
75.3600,0.365
75.4000,0.395
75.4400,0.394
75.4800,0.373
75.5200,0.373
75.5600,0.360
75.6000,0.380
75.6400,0.379
75.6800,0.381
75.7200,0.381
75.7600,0.380
75.8000,0.398
75.8400,0.391
75.8800,0.398
75.9200,0.396
75.9600,0.383
76.0000,0.398
76.0400,0.412
76.0800,0.371
76.1200,0.382
76.1600,0.421
76.2000,0.406
76.2400,0.391
76.2800,0.379
76.3200,0.385
76.3600,0.393
76.4000,0.398
76.4400,0.400
76.4800,0.428
76.5200,0.419
76.5600,0.433
76.6000,0.433
76.6400,0.470
76.6800,0.426
76.7200,0.452
76.7600,0.470
76.8000,0.496
76.8400,0.504
76.8800,0.511
76.9200,0.563
76.9600,0.609
77.0000,0.592
77.0400,0.743
77.0800,0.722
77.1200,0.792
77.1600,0.884
77.2000,0.928
77.2400,1.082
77.2800,1.233
77.3200,1.380
77.3600,1.576
77.4000,1.771
77.4400,1.762
77.4800,1.773
77.5200,1.763
77.5600,1.611
77.6000,1.556
77.6400,1.456
77.6800,1.314
77.7200,1.270
77.7600,1.113
77.8000,1.028
77.8400,0.897
77.8800,0.812
77.9200,0.740
77.9600,0.678
78.0000,0.627
78.0400,0.589
78.0800,0.558
78.1200,0.561
78.1600,0.503
78.2000,0.486
78.2400,0.472
78.2800,0.476
78.3200,0.448
78.3600,0.430
78.4000,0.388
78.4400,0.391
78.4800,0.411
78.5200,0.399
78.5600,0.369
78.6000,0.381
78.6400,0.370
78.6800,0.370
78.7200,0.343
78.7600,0.375
78.8000,0.385
78.8400,0.378
78.8800,0.363
78.9200,0.349
78.9600,0.345
79.0000,0.366
79.0400,0.346
79.0800,0.321
79.1200,0.343
79.1600,0.340
79.2000,0.338
79.2400,0.349
79.2800,0.338
79.3200,0.322
79.3600,0.300
79.4000,0.331
79.4400,0.306
79.4800,0.324
79.5200,0.316
79.5600,0.333
79.6000,0.312
79.6400,0.310
79.6800,0.295
79.7200,0.327
79.7600,0.334
79.8000,0.334
79.8400,0.327
79.8800,0.285
79.9200,0.291
79.9600,0.276
80.0000,0.328
