theta,intensity
5.0000,4.126
5.0400,4.231
5.0800,4.152
5.1200,4.227
5.1600,4.159
5.2000,4.081
5.2400,4.104
5.2800,4.067
5.3200,4.182
5.3600,4.037
5.4000,4.068
5.4400,4.080
5.4800,4.085
5.5200,4.058
5.5600,4.026
5.6000,3.953
5.6400,4.103
5.6800,4.019
5.7200,4.028
5.7600,4.014
5.8000,3.942
5.8400,3.885
5.8800,3.877
5.9200,3.933
5.9600,3.925
6.0000,3.895
6.0400,3.940
6.0800,3.919
6.1200,3.899
6.1600,3.901
6.2000,3.825
6.2400,3.817
6.2800,3.832
6.3200,3.731
6.3600,3.872
6.4000,3.837
6.4400,3.860
6.4800,3.897
6.5200,3.793
6.5600,3.902
6.6000,3.730
6.6400,3.739
6.6800,3.765
6.7200,3.881
6.7600,3.745
6.8000,3.713
6.8400,3.726
6.8800,3.806
6.9200,3.852
6.9600,3.726
7.0000,3.827
7.0400,3.843
7.0800,3.710
7.1200,3.672
7.1600,3.709
7.2000,3.716
7.2400,3.732
7.2800,3.804
7.3200,3.740
7.3600,3.737
7.4000,3.774
7.4400,3.630
7.4800,3.727
7.5200,3.634
7.5600,3.720
7.6000,3.647
7.6400,3.653
7.6800,3.683
7.7200,3.552
7.7600,3.677
7.8000,3.626
7.8400,3.658
7.8800,3.591
7.9200,3.741
7.9600,3.587
8.0000,3.655
8.0400,3.583
8.0800,3.602
8.1200,3.681
8.1600,3.639
8.2000,3.678
8.2400,3.572
8.2800,3.493
8.3200,3.628
8.3600,3.565
8.4000,3.442
8.4400,3.559
8.4800,3.599
8.5200,3.628
8.5600,3.505
8.6000,3.555
8.6400,3.658
8.6800,3.612
8.7200,3.679
8.7600,3.541
8.8000,3.512
8.8400,3.537
8.8800,3.526
8.9200,3.623
8.9600,3.531
9.0000,3.596
9.0400,3.553
9.0800,3.586
9.1200,3.552
9.1600,3.418
9.2000,3.572
9.2400,3.495
9.2800,3.570
9.3200,3.475
9.3600,3.549
9.4000,3.525
9.4400,3.437
9.4800,3.463
9.5200,3.548
9.5600,3.571
9.6000,3.460
9.6400,3.409
9.6800,3.452
9.7200,3.501
9.7600,3.463
9.8000,3.435
9.8400,3.432
9.8800,3.453
9.9200,3.474
9.9600,3.448
10.0000,3.435
10.0400,3.340
10.0800,3.543
10.1200,3.455
10.1600,3.513
10.2000,3.505
10.2400,3.479
10.2800,3.434
10.3200,3.442
10.3600,3.417
10.4000,3.405
10.4400,3.445
10.4800,3.409
10.5200,3.453
10.5600,3.307
10.6000,3.366
10.6400,3.424
10.6800,3.458
10.7200,3.333
10.7600,3.353
10.8000,3.376
10.8400,3.383
10.8800,3.347
10.9200,3.340
10.9600,3.377
11.0000,3.297
11.0400,3.358
11.0800,3.359
11.1200,3.347
11.1600,3.381
11.2000,3.332
11.2400,3.384
11.2800,3.415
11.3200,3.384
11.3600,3.461
11.4000,3.340
11.4400,3.323
11.4800,3.286
11.5200,3.333
11.5600,3.336
11.6000,3.286
11.6400,3.249
11.6800,3.287
11.7200,3.194
11.7600,3.225
11.8000,3.243
11.8400,3.170
11.8800,3.120
11.9200,3.313
11.9600,3.303
12.0000,3.172
12.0400,3.147
12.0800,3.224
12.1200,3.250
12.1600,3.372
12.2000,3.237
12.2400,3.198
12.2800,3.221
12.3200,3.147
12.3600,3.287
12.4000,3.285
12.4400,3.134
12.4800,3.209
12.5200,3.146
12.5600,3.169
12.6000,3.172
12.6400,3.274
12.6800,3.252
12.7200,3.146
12.7600,3.105
12.8000,3.251
12.8400,3.265
12.8800,3.212
12.9200,3.184
12.9600,3.226
13.0000,3.168
13.0400,3.127
13.0800,3.168
13.1200,3.093
13.1600,3.161
13.2000,3.129
13.2400,3.210
13.2800,3.237
13.3200,3.095
13.3600,3.195
13.4000,3.186
13.4400,3.162
13.4800,3.102
13.5200,3.217
13.5600,3.127
13.6000,3.130
13.6400,3.088
13.6800,3.143
13.7200,3.034
13.7600,3.119
13.8000,3.101
13.8400,3.057
13.8800,3.151
13.9200,3.176
13.9600,3.074
14.0000,3.085
14.0400,3.085
14.0800,3.053
14.1200,3.067
14.1600,3.064
14.2000,3.037
14.2400,3.060
14.2800,3.051
14.3200,3.078
14.3600,2.976
14.4000,3.131
14.4400,3.037
14.4800,2.998
14.5200,3.062
14.5600,2.969
14.6000,3.046
14.6400,2.997
14.6800,3.040
14.7200,3.023
14.7600,3.071
14.8000,3.108
14.8400,2.998
14.8800,2.984
14.9200,2.986
14.9600,3.055
15.0000,3.034
15.0400,2.940
15.0800,2.963
15.1200,3.002
15.1600,2.962
15.2000,3.062
15.2400,2.979
15.2800,2.932
15.3200,3.061
15.3600,2.976
15.4000,2.950
15.4400,2.924
15.4800,2.946
15.5200,2.964
15.5600,2.988
15.6000,2.997
15.6400,2.998
15.6800,2.933
15.7200,2.955
15.7600,2.952
15.8000,2.852
15.8400,3.022
15.8800,2.933
15.9200,2.896
15.9600,2.917
16.0000,2.961
16.0400,2.898
16.0800,2.865
16.1200,2.867
16.1600,2.936
16.2000,2.884
16.2400,2.915
16.2800,2.873
16.3200,2.980
16.3600,2.897
16.4000,2.896
16.4400,2.815
16.4800,2.867
16.5200,2.873
16.5600,2.932
16.6000,2.807
16.6400,2.948
16.6800,2.837
16.7200,2.917
16.7600,2.767
16.8000,2.873
16.8400,2.883
16.8800,2.823
16.9200,2.925
16.9600,2.875
17.0000,2.963
17.0400,2.778
17.0800,2.791
17.1200,2.805
17.1600,2.792
17.2000,2.895
17.2400,2.792
17.2800,2.831
17.3200,2.761
17.3600,2.761
17.4000,2.803
17.4400,2.812
17.4800,2.710
17.5200,2.811
17.5600,2.831
17.6000,2.738
17.6400,2.709
17.6800,2.755
17.7200,2.750
17.7600,2.815
17.8000,2.761
17.8400,2.805
17.8800,2.711
17.9200,2.716
17.9600,2.720
18.0000,2.741
18.0400,2.722
18.0800,2.676
18.1200,2.721
18.1600,2.779
18.2000,2.738
18.2400,2.777
18.2800,2.767
18.3200,2.703
18.3600,2.671
18.4000,2.680
18.4400,2.739
18.4800,2.729
18.5200,2.719
18.5600,2.671
18.6000,2.612
18.6400,2.648
18.6800,2.695
18.7200,2.655
18.7600,2.666
18.8000,2.629
18.8400,2.648
18.8800,2.707
18.9200,2.626
18.9600,2.729
19.0000,2.637
19.0400,2.663
19.0800,2.685
19.1200,2.515
19.1600,2.626
19.2000,2.683
19.2400,2.589
19.2800,2.644
19.3200,2.601
19.3600,2.676
19.4000,2.725
19.4400,2.677
19.4800,2.658
19.5200,2.712
19.5600,2.660
19.6000,2.637
19.6400,2.485
19.6800,2.586
19.7200,2.639
19.7600,2.614
19.8000,2.607
19.8400,2.567
19.8800,2.648
19.9200,2.702
19.9600,2.578
20.0000,2.493
20.0400,2.530
20.0800,2.490
20.1200,2.549
20.1600,2.508
20.2000,2.514
20.2400,2.562
20.2800,2.518
20.3200,2.482
20.3600,2.453
20.4000,2.489
20.4400,2.490
20.4800,2.481
20.5200,2.469
20.5600,2.505
20.6000,2.552
20.6400,2.591
20.6800,2.523
20.7200,2.386
20.7600,2.519
20.8000,2.516
20.8400,2.510
20.8800,2.442
20.9200,2.495
20.9600,2.515
21.0000,2.505
21.0400,2.555
21.0800,2.521
21.1200,2.443
21.1600,2.457
21.2000,2.466
21.2400,2.435
21.2800,2.457
21.3200,2.503
21.3600,2.532
21.4000,2.419
21.4400,2.380
21.4800,2.495
21.5200,2.419
21.5600,2.412
21.6000,2.397
21.6400,2.474
21.6800,2.414
21.7200,2.428
21.7600,2.424
21.8000,2.373
21.8400,2.428
21.8800,2.371
21.9200,2.338
21.9600,2.357
22.0000,2.402
22.0400,2.422
22.0800,2.458
22.1200,2.395
22.1600,2.322
22.2000,2.292
22.2400,2.309
22.2800,2.402
22.3200,2.343
22.3600,2.337
22.4000,2.342
22.4400,2.389
22.4800,2.370
22.5200,2.355
22.5600,2.340
22.6000,2.317
22.6400,2.257
22.6800,2.248
22.7200,2.384
22.7600,2.339
22.8000,2.354
22.8400,2.391
22.8800,2.290
22.9200,2.334
22.9600,2.406
23.0000,2.360
23.0400,2.358
23.0800,2.356
23.1200,2.370
23.1600,2.279
23.2000,2.269
23.2400,2.296
23.2800,2.360
23.3200,2.296
23.3600,2.233
23.4000,2.342
23.4400,2.357
23.4800,2.355
23.5200,2.229
23.5600,2.295
23.6000,2.251
23.6400,2.243
23.6800,2.262
23.7200,2.357
23.7600,2.318
23.8000,2.246
23.8400,2.227
23.8800,2.297
23.9200,2.225
23.9600,2.271
24.0000,2.189
24.0400,2.205
24.0800,2.257
24.1200,2.286
24.1600,2.243
24.2000,2.282
24.2400,2.286
24.2800,2.192
24.3200,2.222
24.3600,2.248
24.4000,2.197
24.4400,2.137
24.4800,2.162
24.5200,2.166
24.5600,2.236
24.6000,2.087
24.6400,2.207
24.6800,2.110
24.7200,2.154
24.7600,2.157
24.8000,2.171
24.8400,2.182
24.8800,2.113
24.9200,2.175
24.9600,2.121
25.0000,2.151
25.0400,2.206
25.0800,2.194
25.1200,2.161
25.1600,2.086
25.2000,2.124
25.2400,2.114
25.2800,2.099
25.3200,2.154
25.3600,2.103
25.4000,2.115
25.4400,2.123
25.4800,2.121
25.5200,2.175
25.5600,2.098
25.6000,2.174
25.6400,2.155
25.6800,2.099
25.7200,2.050
25.7600,2.104
25.8000,2.047
25.8400,2.076
25.8800,2.114
25.9200,2.131
25.9600,2.088
26.0000,2.038
26.0400,2.027
26.0800,2.062
26.1200,2.054
26.1600,2.134
26.2000,2.081
26.2400,2.006
26.2800,1.958
26.3200,2.104
26.3600,2.013
26.4000,2.053
26.4400,1.960
26.4800,2.078
26.5200,2.016
26.5600,2.072
26.6000,1.943
26.6400,2.018
26.6800,2.046
26.7200,2.094
26.7600,1.978
26.8000,2.003
26.8400,2.126
26.8800,2.009
26.9200,2.028
26.9600,1.990
27.0000,1.996
27.0400,2.096
27.0800,1.961
27.1200,1.977
27.1600,1.899
27.2000,2.003
27.2400,1.936
27.2800,1.962
27.3200,2.003
27.3600,1.933
27.4000,1.936
27.4400,2.030
27.4800,1.960
27.5200,1.988
27.5600,1.962
27.6000,1.954
27.6400,1.950
27.6800,1.952
27.7200,1.980
27.7600,1.994
27.8000,2.002
27.8400,1.991
27.8800,1.842
27.9200,1.927
27.9600,1.933
28.0000,1.921
28.0400,1.863
28.0800,1.831
28.1200,1.892
28.1600,1.896
28.2000,1.874
28.2400,1.882
28.2800,1.842
28.3200,1.842
28.3600,1.868
28.4000,1.938
28.4400,1.889
28.4800,1.889
28.5200,1.928
28.5600,1.941
28.6000,1.834
28.6400,1.892
28.6800,1.886
28.7200,1.903
28.7600,1.848
28.8000,1.904
28.8400,1.893
28.8800,1.907
28.9200,1.896
28.9600,1.885
29.0000,1.877
29.0400,1.763
29.0800,1.791
29.1200,1.736
29.1600,1.909
29.2000,1.784
29.2400,1.859
29.2800,1.857
29.3200,1.807
29.3600,1.814
29.4000,1.793
29.4400,1.885
29.4800,1.819
29.5200,1.818
29.5600,1.855
29.6000,1.800
29.6400,1.820
29.6800,1.736
29.7200,1.813
29.7600,1.763
29.8000,1.798
29.8400,1.728
29.8800,1.713
29.9200,1.775
29.9600,1.823
30.0000,1.832
30.0400,1.710
30.0800,1.805
30.1200,1.792
30.1600,1.761
30.2000,1.758
30.2400,1.732
30.2800,1.748
30.3200,1.746
30.3600,1.730
30.4000,1.681
30.4400,1.612
30.4800,1.709
30.5200,1.687
30.5600,1.763
30.6000,1.771
30.6400,1.734
30.6800,1.771
30.7200,1.648
30.7600,1.741
30.8000,1.728
30.8400,1.685
30.8800,1.750
30.9200,1.708
30.9600,1.680
31.0000,1.734
31.0400,1.784
31.0800,1.765
31.1200,1.652
31.1600,1.666
31.2000,1.741
31.2400,1.621
31.2800,1.658
31.3200,1.773
31.3600,1.644
31.4000,1.671
31.4400,1.762
31.4800,1.670
31.5200,1.628
31.5600,1.686
31.6000,1.686
31.6400,1.625
31.6800,1.634
31.7200,1.628
31.7600,1.576
31.8000,1.681
31.8400,1.614
31.8800,1.669
31.9200,1.655
31.9600,1.641
32.0000,1.677
32.0400,1.645
32.0800,1.670
32.1200,1.590
32.1600,1.623
32.2000,1.682
32.2400,1.630
32.2800,1.550
32.3200,1.602
32.3600,1.613
32.4000,1.638
32.4400,1.498
32.4800,1.619
32.5200,1.616
32.5600,1.672
32.6000,1.614
32.6400,1.639
32.6800,1.600
32.7200,1.619
32.7600,1.638
32.8000,1.535
32.8400,1.573
32.8800,1.558
32.9200,1.568
32.9600,1.679
33.0000,1.611
33.0400,1.582
33.0800,1.623
33.1200,1.614
33.1600,1.539
33.2000,1.628
33.2400,1.588
33.2800,1.600
33.3200,1.516
33.3600,1.595
33.4000,1.638
33.4400,1.561
33.4800,1.498
33.5200,1.577
33.5600,1.528
33.6000,1.560
33.6400,1.561
33.6800,1.497
33.7200,1.562
33.7600,1.483
33.8000,1.531
33.8400,1.564
33.8800,1.558
33.9200,1.556
33.9600,1.527
34.0000,1.585
34.0400,1.511
34.0800,1.564
34.1200,1.459
34.1600,1.511
34.2000,1.476
34.2400,1.585
34.2800,1.459
34.3200,1.476
34.3600,1.496
34.4000,1.581
34.4400,1.420
34.4800,1.496
34.5200,1.483
34.5600,1.545
34.6000,1.452
34.6400,1.499
34.6800,1.506
34.7200,1.508
34.7600,1.494
34.8000,1.466
34.8400,1.473
34.8800,1.514
34.9200,1.440
34.9600,1.445
35.0000,1.442
35.0400,1.493
35.0800,1.436
35.1200,1.472
35.1600,1.466
35.2000,1.456
35.2400,1.442
35.2800,1.450
35.3200,1.453
35.3600,1.491
35.4000,1.412
35.4400,1.457
35.4800,1.461
35.5200,1.480
35.5600,1.440
35.6000,1.471
35.6400,1.462
35.6800,1.443
35.7200,1.556
35.7600,1.456
35.8000,1.439
35.8400,1.508
35.8800,1.506
35.9200,1.570
35.9600,1.518
36.0000,1.465
36.0400,1.467
36.0800,1.486
36.1200,1.508
36.1600,1.464
36.2000,1.523
36.2400,1.515
36.2800,1.477
36.3200,1.505
36.3600,1.508
36.4000,1.469
36.4400,1.466
36.4800,1.528
36.5200,1.513
36.5600,1.481
36.6000,1.488
36.6400,1.530
36.6800,1.513
36.7200,1.510
36.7600,1.594
36.8000,1.519
36.8400,1.527
36.8800,1.579
36.9200,1.531
36.9600,1.628
37.0000,1.600
37.0400,1.619
37.0800,1.544
37.1200,1.612
37.1600,1.580
37.2000,1.565
37.2400,1.596
37.2800,1.574
37.3200,1.647
37.3600,1.670
37.4000,1.658
37.4400,1.680
37.4800,1.715
37.5200,1.743
37.5600,1.732
37.6000,1.788
37.6400,1.780
37.6800,1.884
37.7200,1.827
37.7600,1.860
37.8000,1.961
37.8400,2.068
37.8800,2.085
37.9200,2.203
37.9600,2.244
38.0000,2.302
38.0400,2.509
38.0800,2.546
38.1200,2.565
38.1600,2.726
38.2000,2.917
38.2400,3.079
38.2800,3.251
38.3200,3.490
38.3600,3.559
38.4000,3.712
38.4400,3.980
38.4800,4.029
38.5200,4.127
38.5600,4.241
38.6000,4.425
38.6400,4.447
38.6800,4.517
38.7200,4.630
38.7600,4.699
38.8000,4.696
38.8400,4.835
38.8800,4.747
38.9200,4.679
38.9600,4.396
39.0000,4.354
39.0400,4.248
39.0800,4.068
39.1200,3.887
39.1600,3.841
39.2000,3.751
39.2400,3.692
39.2800,3.574
39.3200,3.513
39.3600,3.320
39.4000,3.403
39.4400,3.283
39.4800,3.209
39.5200,3.235
39.5600,3.116
39.6000,3.061
39.6400,2.987
39.6800,2.999
39.7200,2.981
39.7600,2.826
39.8000,2.905
39.8400,2.810
39.8800,2.743
39.9200,2.727
39.9600,2.569
40.0000,2.530
40.0400,2.447
40.0800,2.319
40.1200,2.413
40.1600,2.297
40.2000,2.286
40.2400,2.156
40.2800,2.151
40.3200,2.101
40.3600,2.068
40.4000,1.991
40.4400,1.930
40.4800,1.860
40.5200,1.857
40.5600,1.864
40.6000,1.864
40.6400,1.862
40.6800,1.753
40.7200,1.713
40.7600,1.673
40.8000,1.672
40.8400,1.637
40.8800,1.614
40.9200,1.585
40.9600,1.560
41.0000,1.579
41.0400,1.528
41.0800,1.536
41.1200,1.438
41.1600,1.425
41.2000,1.545
41.2400,1.521
41.2800,1.440
41.3200,1.502
41.3600,1.422
41.4000,1.452
41.4400,1.440
41.4800,1.336
41.5200,1.371
41.5600,1.369
41.6000,1.376
41.6400,1.337
41.6800,1.356
41.7200,1.384
41.7600,1.359
41.8000,1.320
41.8400,1.337
41.8800,1.339
41.9200,1.380
41.9600,1.289
42.0000,1.359
42.0400,1.307
42.0800,1.327
42.1200,1.276
42.1600,1.384
42.2000,1.255
42.2400,1.308
42.2800,1.309
42.3200,1.327
42.3600,1.257
42.4000,1.265
42.4400,1.264
42.4800,1.330
42.5200,1.344
42.5600,1.306
42.6000,1.290
42.6400,1.324
42.6800,1.260
42.7200,1.312
42.7600,1.318
42.8000,1.289
42.8400,1.285
42.8800,1.329
42.9200,1.212
42.9600,1.246
43.0000,1.286
43.0400,1.252
43.0800,1.333
43.1200,1.249
43.1600,1.297
43.2000,1.288
43.2400,1.292
43.2800,1.311
43.3200,1.285
43.3600,1.245
43.4000,1.328
43.4400,1.338
43.4800,1.316
43.5200,1.298
43.5600,1.307
43.6000,1.382
43.6400,1.319
43.6800,1.292
43.7200,1.340
43.7600,1.435
43.8000,1.345
43.8400,1.362
43.8800,1.459
43.9200,1.406
43.9600,1.509
44.0000,1.495
44.0400,1.424
44.0800,1.490
44.1200,1.497
44.1600,1.476
44.2000,1.505
44.2400,1.448
44.2800,1.539
44.3200,1.598
44.3600,1.602
44.4000,1.616
44.4400,1.677
44.4800,1.639
44.5200,1.725
44.5600,1.754
44.6000,1.749
44.6400,1.771
44.6800,1.774
44.7200,1.784
44.7600,1.808
44.8000,1.762
44.8400,1.810
44.8800,1.855
44.9200,1.862
44.9600,1.864
45.0000,1.856
45.0400,1.838
45.0800,1.968
45.1200,1.985
45.1600,1.891
45.2000,1.853
45.2400,1.896
45.2800,1.858
45.3200,1.797
45.3600,1.821
45.4000,1.818
45.4400,1.742
45.4800,1.614
45.5200,1.699
45.5600,1.658
45.6000,1.662
45.6400,1.643
45.6800,1.573
45.7200,1.590
45.7600,1.608
45.8000,1.474
45.8400,1.556
45.8800,1.481
45.9200,1.470
45.9600,1.481
46.0000,1.459
46.0400,1.348
46.0800,1.456
46.1200,1.433
46.1600,1.404
46.2000,1.396
46.2400,1.342
46.2800,1.388
46.3200,1.291
46.3600,1.328
46.4000,1.325
46.4400,1.319
46.4800,1.295
46.5200,1.301
46.5600,1.252
46.6000,1.243
46.6400,1.235
46.6800,1.252
46.7200,1.228
46.7600,1.191
46.8000,1.203
46.8400,1.160
46.8800,1.140
46.9200,1.199
46.9600,1.124
47.0000,1.156
47.0400,1.154
47.0800,1.029
47.1200,1.098
47.1600,1.095
47.2000,1.060
47.2400,1.077
47.2800,1.044
47.3200,1.030
47.3600,1.050
47.4000,1.059
47.4400,1.025
47.4800,0.988
47.5200,1.009
47.5600,0.972
47.6000,0.972
47.6400,0.924
47.6800,0.995
47.7200,0.969
47.7600,0.999
47.8000,0.892
47.8400,0.945
47.8800,0.903
47.9200,0.971
47.9600,0.920
48.0000,0.915
48.0400,0.915
48.0800,0.918
48.1200,0.909
48.1600,0.898
48.2000,0.862
48.2400,0.853
48.2800,0.901
48.3200,0.868
48.3600,0.864
48.4000,0.920
48.4400,0.828
48.4800,0.878
48.5200,0.898
48.5600,0.869
48.6000,0.818
48.6400,0.869
48.6800,0.864
48.7200,0.888
48.7600,0.854
48.8000,0.893
48.8400,0.820
48.8800,0.755
48.9200,0.819
48.9600,0.850
49.0000,0.879
49.0400,0.835
49.0800,0.831
49.1200,0.804
49.1600,0.824
49.2000,0.827
49.2400,0.829
49.2800,0.828
49.3200,0.858
49.3600,0.824
49.4000,0.819
49.4400,0.822
49.4800,0.824
49.5200,0.846
49.5600,0.841
49.6000,0.792
49.6400,0.811
49.6800,0.850
49.7200,0.797
49.7600,0.773
49.8000,0.786
49.8400,0.820
49.8800,0.794
49.9200,0.783
49.9600,0.793
50.0000,0.837
50.0400,0.833
50.0800,0.763
50.1200,0.807
50.1600,0.777
50.2000,0.777
50.2400,0.792
50.2800,0.737
50.3200,0.783
50.3600,0.751
50.4000,0.767
50.4400,0.755
50.4800,0.750
50.5200,0.744
50.5600,0.731
50.6000,0.727
50.6400,0.761
50.6800,0.751
50.7200,0.756
50.7600,0.789
50.8000,0.745
50.8400,0.762
50.8800,0.739
50.9200,0.759
50.9600,0.777
51.0000,0.713
51.0400,0.677
51.0800,0.730
51.1200,0.755
51.1600,0.713
51.2000,0.712
51.2400,0.729
51.2800,0.743
51.3200,0.711
51.3600,0.730
51.4000,0.725
51.4400,0.752
51.4800,0.732
51.5200,0.718
51.5600,0.699
51.6000,0.743
51.6400,0.701
51.6800,0.764
51.7200,0.702
51.7600,0.761
51.8000,0.707
51.8400,0.694
51.8800,0.710
51.9200,0.706
51.9600,0.755
52.0000,0.734
52.0400,0.716
52.0800,0.684
52.1200,0.698
52.1600,0.723
52.2000,0.740
52.2400,0.710
52.2800,0.732
52.3200,0.712
52.3600,0.702
52.4000,0.697
52.4400,0.658
52.4800,0.731
52.5200,0.715
52.5600,0.694
52.6000,0.671
52.6400,0.683
52.6800,0.726
52.7200,0.693
52.7600,0.652
52.8000,0.693
52.8400,0.671
52.8800,0.671
52.9200,0.680
52.9600,0.730
53.0000,0.675
53.0400,0.688
53.0800,0.669
53.1200,0.672
53.1600,0.674
53.2000,0.667
53.2400,0.642
53.2800,0.616
53.3200,0.681
53.3600,0.720
53.4000,0.742
53.4400,0.692
53.4800,0.659
53.5200,0.688
53.5600,0.657
53.6000,0.682
53.6400,0.699
53.6800,0.640
53.7200,0.691
53.7600,0.674
53.8000,0.697
53.8400,0.672
53.8800,0.660
53.9200,0.641
53.9600,0.652
54.0000,0.676
54.0400,0.685
54.0800,0.690
54.1200,0.668
54.1600,0.665
54.2000,0.678
54.2400,0.672
54.2800,0.630
54.3200,0.657
54.3600,0.631
54.4000,0.637
54.4400,0.677
54.4800,0.694
54.5200,0.659
54.5600,0.660
54.6000,0.674
54.6400,0.724
54.6800,0.665
54.7200,0.616
54.7600,0.667
54.8000,0.666
54.8400,0.666
54.8800,0.664
54.9200,0.648
54.9600,0.644
55.0000,0.667
55.0400,0.675
55.0800,0.623
55.1200,0.618
55.1600,0.610
55.2000,0.635
55.2400,0.637
55.2800,0.638
55.3200,0.625
55.3600,0.646
55.4000,0.672
55.4400,0.620
55.4800,0.629
55.5200,0.617
55.5600,0.616
55.6000,0.622
55.6400,0.621
55.6800,0.591
55.7200,0.627
55.7600,0.614
55.8000,0.664
55.8400,0.599
55.8800,0.613
55.9200,0.583
55.9600,0.629
56.0000,0.594
56.0400,0.609
56.0800,0.597
56.1200,0.617
56.1600,0.595
56.2000,0.613
56.2400,0.656
56.2800,0.645
56.3200,0.652
56.3600,0.666
56.4000,0.628
56.4400,0.584
56.4800,0.603
56.5200,0.618
56.5600,0.597
56.6000,0.602
56.6400,0.639
56.6800,0.626
56.7200,0.617
56.7600,0.612
56.8000,0.601
56.8400,0.619
56.8800,0.615
56.9200,0.602
56.9600,0.585
57.0000,0.617
57.0400,0.573
57.0800,0.597
57.1200,0.596
57.1600,0.594
57.2000,0.575
57.2400,0.675
57.2800,0.612
57.3200,0.572
57.3600,0.576
57.4000,0.619
57.4400,0.609
57.4800,0.621
57.5200,0.572
57.5600,0.611
57.6000,0.630
57.6400,0.583
57.6800,0.610
57.7200,0.586
57.7600,0.589
57.8000,0.585
57.8400,0.612
57.8800,0.550
57.9200,0.563
57.9600,0.615
58.0000,0.611
58.0400,0.572
58.0800,0.625
58.1200,0.576
58.1600,0.601
58.2000,0.596
58.2400,0.582
58.2800,0.605
58.3200,0.587
58.3600,0.591
58.4000,0.571
58.4400,0.552
58.4800,0.600
58.5200,0.559
58.5600,0.566
58.6000,0.549
58.6400,0.581
58.6800,0.606
58.7200,0.599
58.7600,0.556
58.8000,0.585
58.8400,0.545
58.8800,0.583
58.9200,0.557
58.9600,0.555
59.0000,0.571
59.0400,0.580
59.0800,0.586
59.1200,0.579
59.1600,0.546
59.2000,0.553
59.2400,0.553
59.2800,0.596
59.3200,0.559
59.3600,0.528
59.4000,0.558
59.4400,0.588
59.4800,0.592
59.5200,0.539
59.5600,0.528
59.6000,0.562
59.6400,0.587
59.6800,0.603
59.7200,0.565
59.7600,0.544
59.8000,0.566
59.8400,0.572
59.8800,0.588
59.9200,0.617
59.9600,0.546
60.0000,0.594
60.0400,0.566
60.0800,0.549
60.1200,0.529
60.1600,0.568
60.2000,0.581
60.2400,0.547
60.2800,0.539
60.3200,0.536
60.3600,0.529
60.4000,0.545
60.4400,0.516
60.4800,0.538
60.5200,0.567
60.5600,0.546
60.6000,0.536
60.6400,0.543
60.6800,0.534
60.7200,0.545
60.7600,0.544
60.8000,0.567
60.8400,0.543
60.8800,0.536
60.9200,0.521
60.9600,0.562
61.0000,0.527
61.0400,0.583
61.0800,0.519
61.1200,0.521
61.1600,0.599
61.2000,0.566
61.2400,0.530
61.2800,0.563
61.3200,0.520
61.3600,0.556
61.4000,0.515
61.4400,0.581
61.4800,0.534
61.5200,0.556
61.5600,0.553
61.6000,0.549
61.6400,0.588
61.6800,0.625
61.7200,0.670
61.7600,0.591
61.8000,0.584
61.8400,0.521
61.8800,0.539
61.9200,0.558
61.9600,0.592
62.0000,0.545
62.0400,0.521
62.0800,0.522
62.1200,0.542
62.1600,0.525
62.2000,0.530
62.2400,0.547
62.2800,0.562
62.3200,0.516
62.3600,0.551
62.4000,0.521
62.4400,0.512
62.4800,0.507
62.5200,0.521
62.5600,0.483
62.6000,0.510
62.6400,0.504
62.6800,0.515
62.7200,0.534
62.7600,0.561
62.8000,0.540
62.8400,0.541
62.8800,0.559
62.9200,0.564
62.9600,0.525
63.0000,0.551
63.0400,0.568
63.0800,0.572
63.1200,0.561
63.1600,0.539
63.2000,0.559
63.2400,0.582
63.2800,0.584
63.3200,0.611
63.3600,0.504
63.4000,0.559
63.4400,0.568
63.4800,0.587
63.5200,0.586
63.5600,0.556
63.6000,0.580
63.6400,0.571
63.6800,0.545
63.7200,0.606
63.7600,0.587
63.8000,0.609
63.8400,0.558
63.8800,0.627
63.9200,0.661
63.9600,0.612
64.0000,0.622
64.0400,0.697
64.0800,0.606
64.1200,0.604
64.1600,0.582
64.2000,0.610
64.2400,0.709
64.2800,0.685
64.3200,0.724
64.3600,0.637
64.4000,0.665
64.4400,0.700
64.4800,0.704
64.5200,0.744
64.5600,0.701
64.6000,0.736
64.6400,0.764
64.6800,0.791
64.7200,0.778
64.7600,0.757
64.8000,0.803
64.8400,0.830
64.8800,0.783
64.9200,0.790
64.9600,0.824
65.0000,0.846
65.0400,0.866
65.0800,0.816
65.1200,0.864
65.1600,0.893
65.2000,0.899
65.2400,0.833
65.2800,0.896
65.3200,0.942
65.3600,0.908
65.4000,1.035
65.4400,0.953
65.4800,0.984
65.5200,1.024
65.5600,1.024
65.6000,0.981
65.6400,1.019
65.6800,1.035
65.7200,1.019
65.7600,1.080
65.8000,1.005
65.8400,1.007
65.8800,1.025
65.9200,1.059
65.9600,1.030
66.0000,0.993
66.0400,0.999
66.0800,1.012
66.1200,0.977
66.1600,1.003
66.2000,0.916
66.2400,0.959
66.2800,0.993
66.3200,0.985
66.3600,0.964
66.4000,0.959
66.4400,0.928
66.4800,0.953
66.5200,0.983
66.5600,0.978
66.6000,0.973
66.6400,0.978
66.6800,0.909
66.7200,0.990
66.7600,0.950
66.8000,1.015
66.8400,0.999
66.8800,1.004
66.9200,1.060
66.9600,1.044
67.0000,0.989
67.0400,1.046
67.0800,1.055
67.1200,1.114
67.1600,1.127
67.2000,1.100
67.2400,1.092
67.2800,1.080
67.3200,1.124
67.3600,1.221
67.4000,1.168
67.4400,1.152
67.4800,1.173
67.5200,1.159
67.5600,1.269
67.6000,1.285
67.6400,1.293
67.6800,1.241
67.7200,1.326
67.7600,1.320
67.8000,1.376
67.8400,1.419
67.8800,1.398
67.9200,1.474
67.9600,1.488
68.0000,1.433
68.0400,1.490
68.0800,1.511
68.1200,1.644
68.1600,1.571
68.2000,1.619
68.2400,1.699
68.2800,1.712
68.3200,1.843
68.3600,1.805
68.4000,1.889
68.4400,1.905
68.4800,2.064
68.5200,2.076
68.5600,2.160
68.6000,2.330
68.6400,2.420
68.6800,2.637
68.7200,2.968
68.7600,3.478
68.8000,4.426
68.8400,5.645
68.8800,6.240
68.9200,6.414
68.9600,6.892
69.0000,8.235
69.0400,11.615
69.0800,19.320
69.1200,45.065
69.1600,210.486
69.2000,427.038
69.2400,275.041
69.2800,72.857
69.3200,45.500
69.3600,128.009
69.4000,222.375
69.4400,136.373
69.4800,36.463
69.5200,14.466
69.5600,9.128
69.6000,6.811
69.6400,5.576
69.6800,4.660
69.7200,4.092
69.7600,3.574
69.8000,3.328
69.8400,3.139
69.8800,2.888
69.9200,2.630
69.9600,2.529
70.0000,2.415
70.0400,2.289
70.0800,2.179
70.1200,2.140
70.1600,1.957
70.2000,1.971
70.2400,1.975
70.2800,1.894
70.3200,1.847
70.3600,1.760
70.4000,1.683
70.4400,1.657
70.4800,1.555
70.5200,1.526
70.5600,1.427
70.6000,1.407
70.6400,1.304
70.6800,1.377
70.7200,1.342
70.7600,1.345
70.8000,1.317
70.8400,1.229
70.8800,1.138
70.9200,1.163
70.9600,1.197
71.0000,1.119
71.0400,1.099
71.0800,1.070
71.1200,1.005
71.1600,1.026
71.2000,0.995
71.2400,1.028
71.2800,0.960
71.3200,0.916
71.3600,0.905
71.4000,0.933
71.4400,0.857
71.4800,0.819
71.5200,0.875
71.5600,0.881
71.6000,0.815
71.6400,0.790
71.6800,0.743
71.7200,0.729
71.7600,0.812
71.8000,0.733
71.8400,0.752
71.8800,0.710
71.9200,0.732
71.9600,0.711
72.0000,0.689
72.0400,0.631
72.0800,0.680
72.1200,0.650
72.1600,0.625
72.2000,0.659
72.2400,0.588
72.2800,0.649
72.3200,0.586
72.3600,0.601
72.4000,0.580
72.4400,0.560
72.4800,0.568
72.5200,0.544
72.5600,0.559
72.6000,0.553
72.6400,0.580
72.6800,0.545
72.7200,0.547
72.7600,0.549
72.8000,0.553
72.8400,0.502
72.8800,0.485
72.9200,0.552
72.9600,0.529
73.0000,0.560
73.0400,0.501
73.0800,0.478
73.1200,0.503
73.1600,0.479
73.2000,0.489
73.2400,0.498
73.2800,0.507
73.3200,0.458
73.3600,0.507
73.4000,0.468
73.4400,0.469
73.4800,0.472
73.5200,0.493
73.5600,0.469
73.6000,0.443
73.6400,0.470
73.6800,0.448
73.7200,0.445
73.7600,0.455
73.8000,0.436
73.8400,0.433
73.8800,0.434
73.9200,0.444
73.9600,0.459
74.0000,0.433
74.0400,0.393
74.0800,0.478
74.1200,0.468
74.1600,0.424
74.2000,0.455
74.2400,0.422
74.2800,0.430
74.3200,0.445
74.3600,0.437
74.4000,0.406
74.4400,0.388
74.4800,0.395
74.5200,0.455
74.5600,0.411
74.6000,0.408
74.6400,0.412
74.6800,0.448
74.7200,0.417
74.7600,0.426
74.8000,0.395
74.8400,0.416
74.8800,0.398
74.9200,0.379
74.9600,0.420
75.0000,0.391
75.0400,0.382
75.0800,0.371
75.1200,0.375
75.1600,0.381
75.2000,0.383
75.2400,0.395
75.2800,0.381
75.3200,0.409
75.3600,0.415
75.4000,0.381
75.4400,0.390
75.4800,0.361
75.5200,0.380
75.5600,0.406
75.6000,0.375
75.6400,0.408
75.6800,0.373
75.7200,0.384
75.7600,0.390
75.8000,0.390
75.8400,0.406
75.8800,0.439
75.9200,0.383
75.9600,0.402
76.0000,0.410
76.0400,0.396
76.0800,0.364
76.1200,0.450
76.1600,0.410
76.2000,0.375
76.2400,0.370
76.2800,0.406
76.3200,0.421
76.3600,0.405
76.4000,0.404
76.4400,0.406
76.4800,0.399
76.5200,0.396
76.5600,0.378
76.6000,0.361
76.6400,0.405
76.6800,0.392
76.7200,0.433
76.7600,0.414
76.8000,0.396
76.8400,0.424
76.8800,0.448
76.9200,0.434
76.9600,0.403
77.0000,0.404
77.0400,0.417
77.0800,0.434
77.1200,0.448
77.1600,0.421
77.2000,0.459
77.2400,0.460
77.2800,0.460
77.3200,0.447
77.3600,0.448
77.4000,0.423
77.4400,0.499
77.4800,0.488
77.5200,0.472
77.5600,0.461
77.6000,0.495
77.6400,0.527
77.6800,0.502
77.7200,0.523
77.7600,0.510
77.8000,0.539
77.8400,0.528
77.8800,0.595
77.9200,0.549
77.9600,0.510
78.0000,0.533
78.0400,0.589
78.0800,0.572
78.1200,0.592
78.1600,0.590
78.2000,0.560
78.2400,0.599
78.2800,0.592
78.3200,0.586
78.3600,0.592
78.4000,0.602
78.4400,0.603
78.4800,0.583
78.5200,0.623
78.5600,0.624
78.6000,0.684
78.6400,0.647
78.6800,0.612
78.7200,0.594
78.7600,0.658
78.8000,0.672
78.8400,0.610
78.8800,0.624
78.9200,0.670
78.9600,0.630
79.0000,0.679
79.0400,0.616
79.0800,0.642
79.1200,0.669
79.1600,0.680
79.2000,0.630
79.2400,0.615
79.2800,0.617
79.3200,0.603
79.3600,0.556
79.4000,0.580
79.4400,0.587
79.4800,0.574
79.5200,0.561
79.5600,0.516
79.6000,0.559
79.6400,0.536
79.6800,0.557
79.7200,0.499
79.7600,0.496
79.8000,0.539
79.8400,0.507
79.8800,0.493
79.9200,0.480
79.9600,0.470
80.0000,0.483
