theta,intensity
5.0000,5.968
5.0400,6.117
5.0800,5.993
5.1200,6.039
5.1600,6.053
5.2000,5.995
5.2400,5.868
5.2800,5.834
5.3200,5.742
5.3600,5.643
5.4000,5.811
5.4400,5.756
5.4800,5.684
5.5200,5.678
5.5600,5.435
5.6000,5.511
5.6400,5.485
5.6800,5.396
5.7200,5.316
5.7600,5.253
5.8000,5.159
5.8400,5.228
5.8800,5.086
5.9200,4.998
5.9600,4.859
6.0000,4.838
6.0400,4.781
6.0800,4.815
6.1200,4.871
6.1600,4.522
6.2000,4.501
6.2400,4.476
6.2800,4.464
6.3200,4.379
6.3600,4.183
6.4000,4.200
6.4400,4.167
6.4800,4.283
6.5200,4.167
6.5600,3.983
6.6000,3.926
6.6400,4.083
6.6800,4.032
6.7200,4.130
6.7600,4.128
6.8000,4.091
6.8400,4.009
6.8800,4.063
6.9200,4.097
6.9600,3.939
7.0000,4.121
7.0400,4.037
7.0800,4.112
7.1200,4.104
7.1600,3.914
7.2000,3.976
7.2400,3.981
7.2800,3.962
7.3200,3.897
7.3600,4.001
7.4000,3.996
7.4400,4.031
7.4800,3.908
7.5200,3.848
7.5600,3.913
7.6000,3.851
7.6400,3.852
7.6800,3.853
7.7200,3.854
7.7600,3.930
7.8000,3.948
7.8400,3.952
7.8800,3.901
7.9200,3.813
7.9600,3.912
8.0000,3.840
8.0400,3.855
8.0800,3.876
8.1200,3.728
8.1600,3.815
8.2000,3.810
8.2400,3.802
8.2800,3.857
8.3200,3.835
8.3600,3.755
8.4000,3.794
8.4400,3.838
8.4800,3.887
8.5200,3.831
8.5600,3.808
8.6000,3.814
8.6400,3.760
8.6800,3.721
8.7200,3.707
8.7600,3.710
8.8000,3.734
8.8400,3.781
8.8800,3.719
8.9200,3.698
8.9600,3.727
9.0000,3.716
9.0400,3.822
9.0800,3.767
9.1200,3.731
9.1600,3.656
9.2000,3.791
9.2400,3.714
9.2800,3.682
9.3200,3.760
9.3600,3.747
9.4000,3.688
9.4400,3.640
9.4800,3.772
9.5200,3.622
9.5600,3.585
9.6000,3.675
9.6400,3.713
9.6800,3.649
9.7200,3.698
9.7600,3.599
9.8000,3.666
9.8400,3.566
9.8800,3.605
9.9200,3.607
9.9600,3.691
10.0000,3.618
10.0400,3.553
10.0800,3.645
10.1200,3.675
10.1600,3.547
10.2000,3.528
10.2400,3.713
10.2800,3.598
10.3200,3.545
10.3600,3.604
10.4000,3.623
10.4400,3.562
10.4800,3.542
10.5200,3.516
10.5600,3.472
10.6000,3.646
10.6400,3.513
10.6800,3.580
10.7200,3.573
10.7600,3.606
10.8000,3.563
10.8400,3.595
10.8800,3.565
10.9200,3.520
10.9600,3.570
11.0000,3.498
11.0400,3.524
11.0800,3.466
11.1200,3.578
11.1600,3.481
11.2000,3.451
11.2400,3.507
11.2800,3.459
11.3200,3.555
11.3600,3.544
11.4000,3.493
11.4400,3.415
11.4800,3.416
11.5200,3.466
11.5600,3.427
11.6000,3.440
11.6400,3.418
11.6800,3.438
11.7200,3.445
11.7600,3.440
11.8000,3.405
11.8400,3.411
11.8800,3.448
11.9200,3.461
11.9600,3.513
12.0000,3.373
12.0400,3.388
12.0800,3.395
12.1200,3.395
12.1600,3.381
12.2000,3.334
12.2400,3.407
12.2800,3.380
12.3200,3.384
12.3600,3.377
12.4000,3.373
12.4400,3.382
12.4800,3.462
12.5200,3.451
12.5600,3.423
12.6000,3.316
12.6400,3.366
12.6800,3.384
12.7200,3.305
12.7600,3.336
12.8000,3.310
12.8400,3.374
12.8800,3.421
12.9200,3.303
12.9600,3.350
13.0000,3.294
13.0400,3.338
13.0800,3.266
13.1200,3.388
13.1600,3.313
13.2000,3.300
13.2400,3.272
13.2800,3.328
13.3200,3.261
13.3600,3.217
13.4000,3.268
13.4400,3.287
13.4800,3.286
13.5200,3.259
13.5600,3.119
13.6000,3.289
13.6400,3.258
13.6800,3.304
13.7200,3.252
13.7600,3.257
13.8000,3.316
13.8400,3.241
13.8800,3.232
13.9200,3.227
13.9600,3.270
14.0000,3.289
14.0400,3.165
14.0800,3.325
14.1200,3.213
14.1600,3.225
14.2000,3.285
14.2400,3.243
14.2800,3.136
14.3200,3.237
14.3600,3.301
14.4000,3.166
14.4400,3.179
14.4800,3.148
14.5200,3.230
14.5600,3.263
14.6000,3.247
14.6400,3.110
14.6800,3.262
14.7200,3.204
14.7600,3.240
14.8000,3.137
14.8400,3.163
14.8800,3.160
14.9200,3.096
14.9600,3.190
15.0000,3.150
15.0400,3.136
15.0800,3.214
15.1200,3.082
15.1600,3.123
15.2000,3.186
15.2400,3.226
15.2800,3.055
15.3200,3.096
15.3600,3.150
15.4000,3.035
15.4400,3.148
15.4800,3.117
15.5200,3.031
15.5600,3.155
15.6000,2.973
15.6400,3.046
15.6800,3.213
15.7200,3.193
15.7600,3.089
15.8000,3.122
15.8400,3.068
15.8800,3.134
15.9200,3.083
15.9600,3.024
16.0000,2.965
16.0400,3.094
16.0800,2.963
16.1200,3.049
16.1600,2.880
16.2000,2.994
16.2400,3.055
16.2800,3.076
16.3200,2.961
16.3600,3.040
16.4000,3.067
16.4400,3.051
16.4800,2.995
16.5200,3.063
16.5600,3.043
16.6000,3.001
16.6400,2.975
16.6800,3.074
16.7200,2.970
16.7600,2.872
16.8000,2.927
16.8400,3.008
16.8800,2.934
16.9200,3.059
16.9600,2.975
17.0000,2.967
17.0400,2.945
17.0800,2.990
17.1200,2.987
17.1600,2.960
17.2000,2.892
17.2400,2.931
17.2800,3.011
17.3200,2.979
17.3600,2.937
17.4000,2.849
17.4400,2.998
17.4800,2.942
17.5200,2.851
17.5600,2.986
17.6000,2.906
17.6400,2.983
17.6800,2.912
17.7200,2.902
17.7600,2.791
17.8000,2.857
17.8400,2.945
17.8800,2.875
17.9200,2.899
17.9600,2.813
18.0000,2.806
18.0400,2.823
18.0800,2.859
18.1200,2.883
18.1600,2.927
18.2000,2.830
18.2400,2.860
18.2800,2.978
18.3200,2.897
18.3600,2.852
18.4000,2.813
18.4400,2.732
18.4800,2.877
18.5200,2.797
18.5600,2.819
18.6000,2.786
18.6400,2.824
18.6800,2.821
18.7200,2.823
18.7600,2.853
18.8000,2.830
18.8400,2.801
18.8800,2.819
18.9200,2.809
18.9600,2.785
19.0000,2.736
19.0400,2.743
19.0800,2.756
19.1200,2.717
19.1600,2.805
19.2000,2.742
19.2400,2.763
19.2800,2.809
19.3200,2.698
19.3600,2.771
19.4000,2.760
19.4400,2.771
19.4800,2.721
19.5200,2.767
19.5600,2.758
19.6000,2.763
19.6400,2.694
19.6800,2.765
19.7200,2.724
19.7600,2.742
19.8000,2.697
19.8400,2.715
19.8800,2.663
19.9200,2.774
19.9600,2.608
20.0000,2.699
20.0400,2.667
20.0800,2.676
20.1200,2.702
20.1600,2.682
20.2000,2.617
20.2400,2.742
20.2800,2.745
20.3200,2.691
20.3600,2.707
20.4000,2.662
20.4400,2.709
20.4800,2.714
20.5200,2.597
20.5600,2.616
20.6000,2.695
20.6400,2.615
20.6800,2.657
20.7200,2.678
20.7600,2.577
20.8000,2.686
20.8400,2.642
20.8800,2.675
20.9200,2.648
20.9600,2.637
21.0000,2.676
21.0400,2.657
21.0800,2.573
21.1200,2.528
21.1600,2.551
21.2000,2.629
21.2400,2.585
21.2800,2.657
21.3200,2.620
21.3600,2.500
21.4000,2.570
21.4400,2.601
21.4800,2.569
21.5200,2.651
21.5600,2.555
21.6000,2.647
21.6400,2.522
21.6800,2.497
21.7200,2.589
21.7600,2.491
21.8000,2.549
21.8400,2.579
21.8800,2.555
21.9200,2.558
21.9600,2.607
22.0000,2.569
22.0400,2.611
22.0800,2.518
22.1200,2.495
22.1600,2.504
22.2000,2.512
22.2400,2.588
22.2800,2.490
22.3200,2.586
22.3600,2.512
22.4000,2.414
22.4400,2.532
22.4800,2.564
22.5200,2.491
22.5600,2.505
22.6000,2.528
22.6400,2.546
22.6800,2.468
22.7200,2.458
22.7600,2.502
22.8000,2.452
22.8400,2.496
22.8800,2.466
22.9200,2.501
22.9600,2.529
23.0000,2.409
23.0400,2.501
23.0800,2.341
23.1200,2.572
23.1600,2.451
23.2000,2.384
23.2400,2.443
23.2800,2.510
23.3200,2.430
23.3600,2.372
23.4000,2.515
23.4400,2.447
23.4800,2.381
23.5200,2.416
23.5600,2.323
23.6000,2.394
23.6400,2.404
23.6800,2.340
23.7200,2.411
23.7600,2.412
23.8000,2.523
23.8400,2.380
23.8800,2.428
23.9200,2.450
23.9600,2.406
24.0000,2.442
24.0400,2.463
24.0800,2.396
24.1200,2.417
24.1600,2.358
24.2000,2.350
24.2400,2.436
24.2800,2.379
24.3200,2.274
24.3600,2.366
24.4000,2.352
24.4400,2.391
24.4800,2.467
24.5200,2.288
24.5600,2.404
24.6000,2.347
24.6400,2.285
24.6800,2.275
24.7200,2.329
24.7600,2.304
24.8000,2.315
24.8400,2.290
24.8800,2.260
24.9200,2.353
24.9600,2.368
25.0000,2.344
25.0400,2.281
25.0800,2.239
25.1200,2.287
25.1600,2.241
25.2000,2.278
25.2400,2.244
25.2800,2.282
25.3200,2.314
25.3600,2.325
25.4000,2.262
25.4400,2.313
25.4800,2.356
25.5200,2.218
25.5600,2.174
25.6000,2.293
25.6400,2.258
25.6800,2.347
25.7200,2.333
25.7600,2.216
25.8000,2.184
25.8400,2.247
25.8800,2.234
25.9200,2.257
25.9600,2.229
26.0000,2.255
26.0400,2.284
26.0800,2.170
26.1200,2.203
26.1600,2.332
26.2000,2.197
26.2400,2.203
26.2800,2.227
26.3200,2.287
26.3600,2.203
26.4000,2.288
26.4400,2.216
26.4800,2.201
26.5200,2.207
26.5600,2.269
26.6000,2.155
26.6400,2.196
26.6800,2.164
26.7200,2.215
26.7600,2.239
26.8000,2.178
26.8400,2.264
26.8800,2.142
26.9200,2.170
26.9600,2.224
27.0000,2.182
27.0400,2.187
27.0800,2.218
27.1200,2.163
27.1600,2.152
27.2000,2.142
27.2400,2.203
27.2800,2.142
27.3200,2.053
27.3600,2.199
27.4000,2.117
27.4400,2.112
27.4800,2.179
27.5200,2.164
27.5600,2.101
27.6000,2.065
27.6400,2.147
27.6800,2.214
27.7200,2.154
27.7600,2.144
27.8000,2.188
27.8400,2.119
27.8800,2.075
27.9200,2.185
27.9600,2.150
28.0000,2.099
28.0400,2.135
28.0800,2.066
28.1200,2.038
28.1600,2.204
28.2000,2.129
28.2400,2.106
28.2800,2.116
28.3200,2.162
28.3600,2.101
28.4000,2.065
28.4400,2.178
28.4800,2.060
28.5200,2.051
28.5600,2.074
28.6000,2.033
28.6400,2.083
28.6800,2.016
28.7200,2.091
28.7600,2.115
28.8000,2.163
28.8400,2.042
28.8800,1.968
28.9200,2.034
28.9600,2.115
29.0000,2.075
29.0400,2.079
29.0800,2.010
29.1200,2.094
29.1600,2.066
29.2000,1.985
29.2400,1.974
29.2800,2.049
29.3200,2.000
29.3600,2.081
29.4000,2.038
29.4400,2.047
29.4800,2.032
29.5200,2.119
29.5600,2.017
29.6000,2.059
29.6400,1.946
29.6800,2.032
29.7200,2.079
29.7600,2.068
29.8000,2.004
29.8400,1.911
29.8800,1.980
29.9200,2.000
29.9600,2.004
30.0000,1.952
30.0400,2.011
30.0800,2.085
30.1200,2.043
30.1600,1.970
30.2000,2.004
30.2400,2.025
30.2800,1.958
30.3200,1.991
30.3600,1.995
30.4000,1.992
30.4400,1.977
30.4800,1.951
30.5200,1.970
30.5600,1.973
30.6000,1.950
30.6400,2.006
30.6800,2.019
30.7200,1.977
30.7600,1.923
30.8000,1.903
30.8400,1.940
30.8800,1.946
30.9200,1.916
30.9600,1.894
31.0000,1.892
31.0400,1.949
31.0800,1.937
31.1200,1.907
31.1600,1.912
31.2000,1.918
31.2400,1.937
31.2800,1.918
31.3200,1.887
31.3600,1.883
31.4000,1.887
31.4400,1.943
31.4800,2.039
31.5200,1.929
31.5600,1.875
31.6000,1.855
31.6400,1.775
31.6800,1.854
31.7200,1.851
31.7600,1.836
31.8000,1.849
31.8400,1.779
31.8800,1.885
31.9200,1.873
31.9600,1.820
32.0000,1.854
32.0400,1.850
32.0800,1.830
32.1200,1.877
32.1600,1.806
32.2000,1.847
32.2400,1.854
32.2800,1.880
32.3200,1.880
32.3600,1.816
32.4000,1.882
32.4400,1.867
32.4800,1.854
32.5200,1.860
32.5600,1.873
32.6000,1.881
32.6400,1.839
32.6800,1.853
32.7200,1.766
32.7600,1.870
32.8000,1.918
32.8400,1.879
32.8800,1.916
32.9200,1.950
32.9600,1.895
33.0000,1.877
33.0400,1.905
33.0800,2.006
33.1200,2.095
33.1600,2.030
33.2000,1.927
33.2400,1.778
33.2800,1.762
33.3200,1.815
33.3600,1.791
33.4000,1.806
33.4400,1.758
33.4800,1.817
33.5200,1.771
33.5600,1.761
33.6000,1.853
33.6400,1.791
33.6800,1.825
33.7200,1.783
33.7600,1.790
33.8000,1.770
33.8400,1.824
33.8800,1.821
33.9200,1.816
33.9600,1.669
34.0000,1.703
34.0400,1.805
34.0800,1.702
34.1200,1.775
34.1600,1.832
34.2000,1.744
34.2400,1.739
34.2800,1.734
34.3200,1.760
34.3600,1.784
34.4000,1.814
34.4400,1.698
34.4800,1.736
34.5200,1.710
34.5600,1.726
34.6000,1.681
34.6400,1.748
34.6800,1.737
34.7200,1.717
34.7600,1.696
34.8000,1.716
34.8400,1.748
34.8800,1.728
34.9200,1.686
34.9600,1.672
35.0000,1.690
35.0400,1.699
35.0800,1.674
35.1200,1.728
35.1600,1.769
35.2000,1.736
35.2400,1.733
35.2800,1.782
35.3200,1.687
35.3600,1.748
35.4000,1.685
35.4400,1.792
35.4800,1.723
35.5200,1.658
35.5600,1.727
35.6000,1.725
35.6400,1.763
35.6800,1.722
35.7200,1.763
35.7600,1.741
35.8000,1.789
35.8400,1.801
35.8800,1.779
35.9200,1.816
35.9600,1.752
36.0000,1.846
36.0400,1.790
36.0800,1.757
36.1200,1.801
36.1600,1.866
36.2000,1.833
36.2400,1.832
36.2800,1.792
36.3200,1.885
36.3600,1.725
36.4000,1.750
36.4400,1.767
36.4800,1.795
36.5200,1.748
36.5600,1.777
36.6000,1.832
36.6400,1.880
36.6800,1.823
36.7200,1.792
36.7600,1.858
36.8000,1.880
36.8400,1.815
36.8800,1.865
36.9200,1.880
36.9600,1.864
37.0000,1.937
37.0400,1.955
37.0800,1.930
37.1200,1.976
37.1600,1.983
37.2000,2.025
37.2400,2.057
37.2800,2.032
37.3200,2.110
37.3600,2.184
37.4000,2.223
37.4400,2.232
37.4800,2.236
37.5200,2.379
37.5600,2.514
37.6000,2.611
37.6400,2.808
37.6800,2.911
37.7200,3.068
37.7600,3.339
37.8000,3.560
37.8400,4.079
37.8800,4.552
37.9200,5.182
37.9600,5.962
38.0000,6.932
38.0400,8.103
38.0800,9.324
38.1200,9.870
38.1600,10.010
38.2000,9.357
38.2400,8.431
38.2800,7.309
38.3200,6.372
38.3600,5.541
38.4000,4.782
38.4400,4.352
38.4800,3.887
38.5200,3.544
38.5600,3.166
38.6000,3.003
38.6400,2.874
38.6800,2.760
38.7200,2.497
38.7600,2.440
38.8000,2.347
38.8400,2.341
38.8800,2.248
38.9200,2.088
38.9600,2.114
39.0000,2.025
39.0400,1.971
39.0800,1.957
39.1200,1.876
39.1600,1.936
39.2000,1.853
39.2400,1.788
39.2800,1.789
39.3200,1.683
39.3600,1.669
39.4000,1.671
39.4400,1.657
39.4800,1.642
39.5200,1.647
39.5600,1.666
39.6000,1.658
39.6400,1.616
39.6800,1.576
39.7200,1.516
39.7600,1.555
39.8000,1.567
39.8400,1.559
39.8800,1.541
39.9200,1.580
39.9600,1.497
40.0000,1.545
40.0400,1.531
40.0800,1.539
40.1200,1.557
40.1600,1.508
40.2000,1.570
40.2400,1.494
40.2800,1.466
40.3200,1.434
40.3600,1.426
40.4000,1.449
40.4400,1.462
40.4800,1.484
40.5200,1.442
40.5600,1.416
40.6000,1.447
40.6400,1.477
40.6800,1.371
40.7200,1.463
40.7600,1.455
40.8000,1.391
40.8400,1.406
40.8800,1.374
40.9200,1.402
40.9600,1.404
41.0000,1.414
41.0400,1.352
41.0800,1.354
41.1200,1.392
41.1600,1.337
41.2000,1.321
41.2400,1.322
41.2800,1.336
41.3200,1.290
41.3600,1.415
41.4000,1.353
41.4400,1.386
41.4800,1.308
41.5200,1.338
41.5600,1.367
41.6000,1.360
41.6400,1.346
41.6800,1.289
41.7200,1.297
41.7600,1.328
41.8000,1.404
41.8400,1.368
41.8800,1.254
41.9200,1.323
41.9600,1.298
42.0000,1.277
42.0400,1.306
42.0800,1.344
42.1200,1.315
42.1600,1.276
42.2000,1.327
42.2400,1.280
42.2800,1.279
42.3200,1.289
42.3600,1.277
42.4000,1.259
42.4400,1.271
42.4800,1.317
42.5200,1.307
42.5600,1.335
42.6000,1.281
42.6400,1.280
42.6800,1.317
42.7200,1.284
42.7600,1.353
42.8000,1.325
42.8400,1.310
42.8800,1.299
42.9200,1.321
42.9600,1.376
43.0000,1.319
43.0400,1.396
43.0800,1.445
43.1200,1.374
43.1600,1.448
43.2000,1.417
43.2400,1.372
43.2800,1.397
43.3200,1.423
43.3600,1.449
43.4000,1.455
43.4400,1.469
43.4800,1.517
43.5200,1.536
43.5600,1.586
43.6000,1.578
43.6400,1.556
43.6800,1.651
43.7200,1.660
43.7600,1.747
43.8000,1.755
43.8400,1.840
43.8800,1.934
43.9200,1.868
43.9600,2.057
44.0000,2.109
44.0400,2.301
44.0800,2.376
44.1200,2.425
44.1600,2.582
44.2000,2.726
44.2400,2.793
44.2800,2.927
44.3200,2.886
44.3600,2.802
44.4000,2.825
44.4400,2.720
44.4800,2.576
44.5200,2.463
44.5600,2.346
44.6000,2.246
44.6400,2.114
44.6800,1.885
44.7200,1.883
44.7600,1.807
44.8000,1.722
44.8400,1.641
44.8800,1.610
44.9200,1.600
44.9600,1.522
45.0000,1.465
45.0400,1.413
45.0800,1.358
45.1200,1.318
45.1600,1.285
45.2000,1.265
45.2400,1.255
45.2800,1.231
45.3200,1.215
45.3600,1.180
45.4000,1.198
45.4400,1.231
45.4800,1.163
45.5200,1.142
45.5600,1.088
45.6000,1.169
45.6400,1.123
45.6800,1.082
45.7200,1.100
45.7600,1.094
45.8000,1.006
45.8400,1.094
45.8800,1.104
45.9200,1.081
45.9600,1.006
46.0000,1.040
46.0400,1.093
46.0800,1.027
46.1200,0.999
46.1600,1.018
46.2000,0.968
46.2400,1.020
46.2800,1.043
46.3200,1.007
46.3600,1.024
46.4000,1.007
46.4400,0.983
46.4800,0.965
46.5200,1.011
46.5600,0.969
46.6000,1.002
46.6400,0.976
46.6800,1.015
46.7200,0.973
46.7600,0.947
46.8000,0.957
46.8400,1.016
46.8800,0.967
46.9200,0.937
46.9600,0.965
47.0000,0.941
47.0400,0.925
47.0800,0.954
47.1200,0.941
47.1600,0.971
47.2000,0.889
47.2400,0.948
47.2800,0.929
47.3200,0.912
47.3600,0.947
47.4000,0.933
47.4400,0.944
47.4800,0.888
47.5200,0.907
47.5600,0.988
47.6000,0.971
47.6400,0.951
47.6800,0.930
47.7200,0.944
47.7600,0.890
47.8000,0.922
47.8400,0.946
47.8800,0.859
47.9200,0.912
47.9600,0.935
48.0000,0.920
48.0400,0.929
48.0800,0.923
48.1200,0.913
48.1600,0.897
48.2000,0.947
48.2400,0.928
48.2800,0.901
48.3200,0.914
48.3600,0.898
48.4000,0.875
48.4400,0.821
48.4800,0.942
48.5200,0.874
48.5600,0.868
48.6000,0.906
48.6400,0.837
48.6800,0.892
48.7200,0.878
48.7600,0.842
48.8000,0.842
48.8400,0.865
48.8800,0.851
48.9200,0.805
48.9600,0.822
49.0000,0.839
49.0400,0.852
49.0800,0.830
49.1200,0.812
49.1600,0.886
49.2000,0.830
49.2400,0.819
49.2800,0.795
49.3200,0.838
49.3600,0.830
49.4000,0.834
49.4400,0.854
49.4800,0.860
49.5200,0.828
49.5600,0.806
49.6000,0.813
49.6400,0.816
49.6800,0.817
49.7200,0.785
49.7600,0.833
49.8000,0.809
49.8400,0.832
49.8800,0.812
49.9200,0.787
49.9600,0.804
50.0000,0.820
50.0400,0.798
50.0800,0.826
50.1200,0.810
50.1600,0.814
50.2000,0.829
50.2400,0.837
50.2800,0.868
50.3200,0.833
50.3600,0.771
50.4000,0.807
50.4400,0.830
50.4800,0.798
50.5200,0.768
50.5600,0.770
50.6000,0.788
50.6400,0.818
50.6800,0.795
50.7200,0.762
50.7600,0.823
50.8000,0.790
50.8400,0.743
50.8800,0.819
50.9200,0.836
50.9600,0.769
51.0000,0.825
51.0400,0.807
51.0800,0.775
51.1200,0.778
51.1600,0.756
51.2000,0.757
51.2400,0.784
51.2800,0.791
51.3200,0.773
51.3600,0.766
51.4000,0.757
51.4400,0.769
51.4800,0.804
51.5200,0.744
51.5600,0.786
51.6000,0.749
51.6400,0.756
51.6800,0.767
51.7200,0.787
51.7600,0.756
51.8000,0.789
51.8400,0.777
51.8800,0.800
51.9200,0.790
51.9600,0.797
52.0000,0.769
52.0400,0.798
52.0800,0.772
52.1200,0.794
52.1600,0.773
52.2000,0.735
52.2400,0.753
52.2800,0.730
52.3200,0.764
52.3600,0.749
52.4000,0.803
52.4400,0.727
52.4800,0.862
52.5200,0.743
52.5600,0.737
52.6000,0.794
52.6400,0.713
52.6800,0.711
52.7200,0.727
52.7600,0.703
52.8000,0.744
52.8400,0.733
52.8800,0.749
52.9200,0.760
52.9600,0.745
53.0000,0.787
53.0400,0.757
53.0800,0.741
53.1200,0.721
53.1600,0.729
53.2000,0.756
53.2400,0.678
53.2800,0.721
53.3200,0.789
53.3600,0.730
53.4000,0.724
53.4400,0.772
53.4800,0.693
53.5200,0.730
53.5600,0.738
53.6000,0.710
53.6400,0.759
53.6800,0.728
53.7200,0.711
53.7600,0.699
53.8000,0.726
53.8400,0.757
53.8800,0.732
53.9200,0.748
53.9600,0.742
54.0000,0.713
54.0400,0.719
54.0800,0.697
54.1200,0.720
54.1600,0.752
54.2000,0.705
54.2400,0.732
54.2800,0.745
54.3200,0.705
54.3600,0.698
54.4000,0.694
54.4400,0.709
54.4800,0.729
54.5200,0.722
54.5600,0.720
54.6000,0.703
54.6400,0.742
54.6800,0.682
54.7200,0.682
54.7600,0.680
54.8000,0.698
54.8400,0.654
54.8800,0.709
54.9200,0.720
54.9600,0.729
55.0000,0.705
55.0400,0.668
55.0800,0.701
55.1200,0.701
55.1600,0.742
55.2000,0.660
55.2400,0.689
55.2800,0.673
55.3200,0.736
55.3600,0.719
55.4000,0.690
55.4400,0.687
55.4800,0.705
55.5200,0.661
55.5600,0.664
55.6000,0.675
55.6400,0.680
55.6800,0.696
55.7200,0.673
55.7600,0.690
55.8000,0.658
55.8400,0.662
55.8800,0.669
55.9200,0.677
55.9600,0.726
56.0000,0.659
56.0400,0.709
56.0800,0.657
56.1200,0.706
56.1600,0.676
56.2000,0.671
56.2400,0.638
56.2800,0.651
56.3200,0.674
56.3600,0.680
56.4000,0.682
56.4400,0.699
56.4800,0.639
56.5200,0.665
56.5600,0.664
56.6000,0.652
56.6400,0.668
56.6800,0.683
56.7200,0.632
56.7600,0.720
56.8000,0.677
56.8400,0.641
56.8800,0.676
56.9200,0.657
56.9600,0.671
57.0000,0.646
57.0400,0.672
57.0800,0.707
57.1200,0.664
57.1600,0.705
57.2000,0.675
57.2400,0.708
57.2800,0.679
57.3200,0.710
57.3600,0.667
57.4000,0.646
57.4400,0.692
57.4800,0.713
57.5200,0.663
57.5600,0.678
57.6000,0.650
57.6400,0.646
57.6800,0.657
57.7200,0.626
57.7600,0.666
57.8000,0.652
57.8400,0.665
57.8800,0.630
57.9200,0.650
57.9600,0.631
58.0000,0.670
58.0400,0.656
58.0800,0.642
58.1200,0.649
58.1600,0.635
58.2000,0.635
58.2400,0.650
58.2800,0.659
58.3200,0.655
58.3600,0.665
58.4000,0.648
58.4400,0.614
58.4800,0.648
58.5200,0.654
58.5600,0.691
58.6000,0.649
58.6400,0.656
58.6800,0.640
58.7200,0.630
58.7600,0.683
58.8000,0.638
58.8400,0.651
58.8800,0.676
58.9200,0.630
58.9600,0.701
59.0000,0.662
59.0400,0.631
59.0800,0.705
59.1200,0.621
59.1600,0.595
59.2000,0.597
59.2400,0.667
59.2800,0.649
59.3200,0.625
59.3600,0.648
59.4000,0.617
59.4400,0.617
59.4800,0.625
59.5200,0.649
59.5600,0.595
59.6000,0.629
59.6400,0.629
59.6800,0.628
59.7200,0.628
59.7600,0.601
59.8000,0.596
59.8400,0.633
59.8800,0.636
59.9200,0.644
59.9600,0.607
60.0000,0.608
60.0400,0.649
60.0800,0.656
60.1200,0.615
60.1600,0.630
60.2000,0.623
60.2400,0.653
60.2800,0.670
60.3200,0.653
60.3600,0.618
60.4000,0.593
60.4400,0.632
60.4800,0.602
60.5200,0.602
60.5600,0.653
60.6000,0.649
60.6400,0.633
60.6800,0.611
60.7200,0.588
60.7600,0.573
60.8000,0.619
60.8400,0.599
60.8800,0.592
60.9200,0.611
60.9600,0.638
61.0000,0.621
61.0400,0.578
61.0800,0.596
61.1200,0.600
61.1600,0.563
61.2000,0.622
61.2400,0.580
61.2800,0.612
61.3200,0.605
61.3600,0.602
61.4000,0.575
61.4400,0.632
61.4800,0.628
61.5200,0.594
61.5600,0.605
61.6000,0.635
61.6400,0.675
61.6800,0.716
61.7200,0.635
61.7600,0.610
61.8000,0.612
61.8400,0.576
61.8800,0.630
61.9200,0.625
61.9600,0.647
62.0000,0.621
62.0400,0.614
62.0800,0.606
62.1200,0.595
62.1600,0.588
62.2000,0.607
62.2400,0.670
62.2800,0.613
62.3200,0.636
62.3600,0.596
62.4000,0.636
62.4400,0.594
62.4800,0.637
62.5200,0.603
62.5600,0.623
62.6000,0.596
62.6400,0.626
62.6800,0.584
62.7200,0.621
62.7600,0.636
62.8000,0.618
62.8400,0.632
62.8800,0.614
62.9200,0.652
62.9600,0.677
63.0000,0.620
63.0400,0.615
63.0800,0.646
63.1200,0.646
63.1600,0.655
63.2000,0.667
63.2400,0.660
63.2800,0.704
63.3200,0.660
63.3600,0.616
63.4000,0.678
63.4400,0.653
63.4800,0.694
63.5200,0.679
63.5600,0.673
63.6000,0.699
63.6400,0.743
63.6800,0.704
63.7200,0.784
63.7600,0.765
63.8000,0.769
63.8400,0.746
63.8800,0.805
63.9200,0.814
63.9600,0.818
64.0000,0.853
64.0400,0.909
64.0800,0.921
64.1200,0.970
64.1600,1.026
64.2000,1.120
64.2400,1.130
64.2800,1.159
64.3200,1.263
64.3600,1.323
64.4000,1.508
64.4400,1.526
64.4800,1.639
64.5200,1.629
64.5600,1.596
64.6000,1.553
64.6400,1.440
64.6800,1.406
64.7200,1.317
64.7600,1.246
64.8000,1.147
64.8400,1.135
64.8800,1.033
64.9200,0.986
64.9600,0.948
65.0000,0.917
65.0400,0.880
65.0800,0.897
65.1200,0.901
65.1600,0.833
65.2000,0.833
65.2400,0.818
65.2800,0.813
65.3200,0.816
65.3600,0.785
65.4000,0.750
65.4400,0.761
65.4800,0.762
65.5200,0.763
65.5600,0.758
65.6000,0.760
65.6400,0.727
65.6800,0.729
65.7200,0.782
65.7600,0.753
65.8000,0.726
65.8400,0.735
65.8800,0.777
65.9200,0.767
65.9600,0.754
66.0000,0.701
66.0400,0.725
66.0800,0.733
66.1200,0.761
66.1600,0.791
66.2000,0.757
66.2400,0.823
66.2800,0.775
66.3200,0.809
66.3600,0.761
66.4000,0.815
66.4400,0.828
66.4800,0.842
66.5200,0.853
66.5600,0.830
66.6000,0.808
66.6400,0.850
66.6800,0.891
66.7200,0.920
66.7600,0.853
66.8000,0.849
66.8400,0.839
66.8800,0.832
66.9200,0.899
66.9600,0.920
67.0000,0.904
67.0400,0.960
67.0800,0.964
67.1200,0.949
67.1600,0.973
67.2000,1.035
67.2400,1.010
67.2800,0.984
67.3200,1.048
67.3600,1.068
67.4000,1.035
67.4400,1.128
67.4800,1.069
67.5200,1.121
67.5600,1.172
67.6000,1.178
67.6400,1.243
67.6800,1.158
67.7200,1.253
67.7600,1.250
67.8000,1.272
67.8400,1.258
67.8800,1.300
67.9200,1.391
67.9600,1.458
68.0000,1.450
68.0400,1.457
68.0800,1.494
68.1200,1.552
68.1600,1.627
68.2000,1.637
68.2400,1.691
68.2800,1.733
68.3200,1.712
68.3600,1.836
68.4000,1.967
68.4400,2.075
68.4800,2.112
68.5200,2.208
68.5600,2.383
68.6000,2.449
68.6400,2.872
68.6800,3.114
68.7200,4.003
68.7600,5.050
68.8000,6.119
68.8400,6.509
68.8800,6.779
68.9200,7.761
68.9600,9.917
69.0000,15.275
69.0400,28.404
69.0800,103.070
69.1200,353.117
69.1600,373.377
69.2000,132.577
69.2400,45.271
69.2800,74.005
69.3200,192.845
69.3600,190.806
69.4000,67.831
69.4400,20.073
69.4800,11.244
69.5200,7.890
69.5600,6.121
69.6000,5.114
69.6400,4.367
69.6800,3.897
69.7200,3.466
69.7600,3.098
69.8000,2.924
69.8400,2.736
69.8800,2.541
69.9200,2.426
69.9600,2.300
70.0000,2.205
70.0400,2.188
70.0800,1.972
70.1200,1.896
70.1600,1.892
70.2000,1.861
70.2400,1.785
70.2800,1.711
70.3200,1.648
70.3600,1.550
70.4000,1.575
70.4400,1.557
70.4800,1.468
70.5200,1.427
70.5600,1.330
70.6000,1.403
70.6400,1.284
70.6800,1.294
70.7200,1.256
70.7600,1.257
70.8000,1.233
70.8400,1.126
70.8800,1.133
70.9200,1.183
70.9600,1.141
71.0000,1.103
71.0400,1.064
71.0800,1.100
71.1200,0.957
71.1600,0.981
71.2000,1.003
71.2400,0.874
71.2800,0.894
71.3200,0.902
71.3600,0.877
71.4000,0.878
71.4400,0.864
71.4800,0.827
71.5200,0.835
71.5600,0.768
71.6000,0.756
71.6400,0.783
71.6800,0.780
71.7200,0.745
71.7600,0.780
71.8000,0.778
71.8400,0.767
71.8800,0.749
71.9200,0.691
71.9600,0.696
72.0000,0.674
72.0400,0.674
72.0800,0.671
72.1200,0.664
72.1600,0.668
72.2000,0.633
72.2400,0.646
72.2800,0.575
72.3200,0.608
72.3600,0.628
72.4000,0.593
72.4400,0.607
72.4800,0.617
72.5200,0.614
72.5600,0.588
72.6000,0.588
72.6400,0.627
72.6800,0.538
72.7200,0.561
72.7600,0.541
72.8000,0.572
72.8400,0.552
72.8800,0.558
72.9200,0.523
72.9600,0.515
73.0000,0.537
73.0400,0.514
73.0800,0.550
73.1200,0.534
73.1600,0.498
73.2000,0.508
73.2400,0.507
73.2800,0.474
73.3200,0.480
73.3600,0.459
73.4000,0.463
73.4400,0.470
73.4800,0.488
73.5200,0.467
73.5600,0.455
73.6000,0.481
73.6400,0.456
73.6800,0.450
73.7200,0.487
73.7600,0.446
73.8000,0.521
73.8400,0.446
73.8800,0.451
73.9200,0.465
73.9600,0.438
74.0000,0.421
74.0400,0.440
74.0800,0.460
74.1200,0.435
74.1600,0.397
74.2000,0.470
74.2400,0.424
74.2800,0.457
74.3200,0.437
74.3600,0.443
74.4000,0.449
74.4400,0.431
74.4800,0.420
74.5200,0.421
74.5600,0.401
74.6000,0.414
74.6400,0.419
74.6800,0.428
74.7200,0.411
74.7600,0.410
74.8000,0.406
74.8400,0.411
74.8800,0.397
74.9200,0.383
74.9600,0.433
75.0000,0.451
75.0400,0.448
75.0800,0.414
75.1200,0.402
75.1600,0.406
75.2000,0.430
75.2400,0.416
75.2800,0.434
75.3200,0.411
75.3600,0.405
75.4000,0.407
75.4400,0.406
75.4800,0.402
75.5200,0.410
75.5600,0.397
75.6000,0.411
75.6400,0.433
75.6800,0.398
75.7200,0.402
75.7600,0.405
75.8000,0.422
75.8400,0.406
75.8800,0.424
75.9200,0.413
75.9600,0.436
76.0000,0.462
76.0400,0.452
76.0800,0.380
76.1200,0.393
76.1600,0.442
76.2000,0.441
76.2400,0.462
76.2800,0.426
76.3200,0.433
76.3600,0.472
76.4000,0.424
76.4400,0.454
76.4800,0.454
76.5200,0.489
76.5600,0.474
76.6000,0.495
76.6400,0.511
76.6800,0.515
76.7200,0.528
76.7600,0.507
76.8000,0.564
76.8400,0.554
76.8800,0.583
76.9200,0.585
76.9600,0.620
77.0000,0.648
77.0400,0.701
77.0800,0.724
77.1200,0.732
77.1600,0.864
77.2000,0.890
77.2400,0.944
77.2800,1.054
77.3200,1.079
77.3600,1.192
77.4000,1.286
77.4400,1.236
77.4800,1.241
77.5200,1.159
77.5600,1.218
77.6000,1.092
77.6400,1.070
77.6800,1.021
77.7200,0.935
77.7600,0.889
77.8000,0.819
77.8400,0.745
77.8800,0.715
77.9200,0.666
77.9600,0.668
78.0000,0.613
78.0400,0.575
78.0800,0.563
78.1200,0.533
78.1600,0.497
78.2000,0.499
78.2400,0.477
78.2800,0.446
78.3200,0.468
78.3600,0.495
78.4000,0.479
78.4400,0.439
78.4800,0.396
78.5200,0.426
78.5600,0.434
78.6000,0.438
78.6400,0.410
78.6800,0.408
78.7200,0.425
78.7600,0.407
78.8000,0.404
78.8400,0.359
78.8800,0.373
78.9200,0.371
78.9600,0.371
79.0000,0.363
79.0400,0.352
79.0800,0.369
79.1200,0.339
79.1600,0.367
79.2000,0.345
79.2400,0.372
79.2800,0.349
79.3200,0.342
79.3600,0.333
79.4000,0.347
79.4400,0.335
79.4800,0.361
79.5200,0.347
79.5600,0.364
79.6000,0.343
79.6400,0.345
79.6800,0.311
79.7200,0.324
79.7600,0.340
79.8000,0.311
79.8400,0.330
79.8800,0.356
79.9200,0.351
79.9600,0.328
80.0000,0.327
