theta,intensity
5.0000,4.331
5.0400,4.199
5.0800,4.126
5.1200,4.210
5.1600,4.265
5.2000,4.333
5.2400,4.277
5.2800,4.194
5.3200,4.302
5.3600,4.187
5.4000,4.192
5.4400,4.041
5.4800,4.078
5.5200,4.291
5.5600,4.098
5.6000,4.226
5.6400,4.142
5.6800,4.091
5.7200,4.052
5.7600,4.147
5.8000,4.129
5.8400,4.122
5.8800,4.056
5.9200,4.072
5.9600,4.051
6.0000,4.052
6.0400,4.106
6.0800,4.011
6.1200,4.015
6.1600,3.940
6.2000,3.936
6.2400,3.967
6.2800,3.921
6.3200,3.972
6.3600,4.016
6.4000,3.881
6.4400,3.950
6.4800,4.068
6.5200,4.052
6.5600,3.946
6.6000,3.856
6.6400,3.925
6.6800,3.991
6.7200,3.853
6.7600,3.993
6.8000,3.966
6.8400,4.004
6.8800,3.870
6.9200,3.864
6.9600,3.955
7.0000,3.911
7.0400,3.848
7.0800,3.952
7.1200,3.967
7.1600,3.857
7.2000,3.830
7.2400,3.864
7.2800,3.823
7.3200,3.762
7.3600,3.765
7.4000,3.882
7.4400,3.871
7.4800,3.793
7.5200,3.842
7.5600,3.770
7.6000,3.823
7.6400,3.866
7.6800,3.838
7.7200,3.801
7.7600,3.860
7.8000,3.780
7.8400,3.838
7.8800,3.768
7.9200,3.876
7.9600,3.614
8.0000,3.720
8.0400,3.718
8.0800,3.798
8.1200,3.787
8.1600,3.752
8.2000,3.927
8.2400,3.755
8.2800,3.678
8.3200,3.820
8.3600,3.735
8.4000,3.745
8.4400,3.733
8.4800,3.705
8.5200,3.790
8.5600,3.647
8.6000,3.719
8.6400,3.722
8.6800,3.692
8.7200,3.715
8.7600,3.692
8.8000,3.745
8.8400,3.709
8.8800,3.755
8.9200,3.785
8.9600,3.655
9.0000,3.716
9.0400,3.619
9.0800,3.775
9.1200,3.540
9.1600,3.615
9.2000,3.580
9.2400,3.765
9.2800,3.636
9.3200,3.592
9.3600,3.666
9.4000,3.630
9.4400,3.599
9.4800,3.655
9.5200,3.640
9.5600,3.663
9.6000,3.553
9.6400,3.626
9.6800,3.557
9.7200,3.642
9.7600,3.607
9.8000,3.566
9.8400,3.621
9.8800,3.606
9.9200,3.551
9.9600,3.577
10.0000,3.669
10.0400,3.597
10.0800,3.454
10.1200,3.579
10.1600,3.656
10.2000,3.569
10.2400,3.616
10.2800,3.476
10.3200,3.504
10.3600,3.616
10.4000,3.568
10.4400,3.499
10.4800,3.436
10.5200,3.574
10.5600,3.500
10.6000,3.540
10.6400,3.452
10.6800,3.480
10.7200,3.494
10.7600,3.511
10.8000,3.541
10.8400,3.554
10.8800,3.516
10.9200,3.407
10.9600,3.407
11.0000,3.421
11.0400,3.472
11.0800,3.489
11.1200,3.439
11.1600,3.407
11.2000,3.453
11.2400,3.384
11.2800,3.491
11.3200,3.485
11.3600,3.493
11.4000,3.462
11.4400,3.378
11.4800,3.438
11.5200,3.383
11.5600,3.412
11.6000,3.470
11.6400,3.348
11.6800,3.482
11.7200,3.417
11.7600,3.404
11.8000,3.419
11.8400,3.428
11.8800,3.338
11.9200,3.355
11.9600,3.442
12.0000,3.465
12.0400,3.369
12.0800,3.325
12.1200,3.294
12.1600,3.383
12.2000,3.333
12.2400,3.477
12.2800,3.367
12.3200,3.394
12.3600,3.367
12.4000,3.288
12.4400,3.331
12.4800,3.335
12.5200,3.296
12.5600,3.387
12.6000,3.405
12.6400,3.325
12.6800,3.407
12.7200,3.290
12.7600,3.338
12.8000,3.255
12.8400,3.334
12.8800,3.178
12.9200,3.268
12.9600,3.342
13.0000,3.370
13.0400,3.301
13.0800,3.267
13.1200,3.184
13.1600,3.354
13.2000,3.262
13.2400,3.301
13.2800,3.265
13.3200,3.242
13.3600,3.239
13.4000,3.329
13.4400,3.304
13.4800,3.198
13.5200,3.199
13.5600,3.212
13.6000,3.173
13.6400,3.180
13.6800,3.280
13.7200,3.172
13.7600,3.383
13.8000,3.279
13.8400,3.213
13.8800,3.265
13.9200,3.119
13.9600,3.103
14.0000,3.160
14.0400,3.203
14.0800,3.130
14.1200,3.164
14.1600,3.282
14.2000,3.191
14.2400,3.184
14.2800,3.241
14.3200,3.244
14.3600,3.266
14.4000,3.151
14.4400,3.086
14.4800,3.227
14.5200,3.256
14.5600,3.165
14.6000,3.205
14.6400,3.196
14.6800,3.145
14.7200,3.095
14.7600,3.101
14.8000,3.130
14.8400,3.211
14.8800,3.110
14.9200,3.086
14.9600,3.111
15.0000,3.034
15.0400,3.080
15.0800,3.046
15.1200,3.147
15.1600,3.059
15.2000,3.051
15.2400,3.135
15.2800,3.071
15.3200,3.138
15.3600,3.099
15.4000,3.146
15.4400,3.035
15.4800,3.136
15.5200,3.060
15.5600,3.061
15.6000,3.067
15.6400,3.022
15.6800,3.060
15.7200,3.048
15.7600,3.042
15.8000,3.140
15.8400,3.025
15.8800,3.005
15.9200,3.077
15.9600,3.044
16.0000,3.013
16.0400,3.040
16.0800,2.925
16.1200,2.995
16.1600,2.973
16.2000,3.063
16.2400,3.061
16.2800,2.996
16.3200,3.082
16.3600,3.063
16.4000,3.005
16.4400,3.057
16.4800,2.932
16.5200,2.976
16.5600,3.070
16.6000,2.943
16.6400,2.927
16.6800,3.068
16.7200,3.012
16.7600,2.933
16.8000,2.952
16.8400,2.998
16.8800,2.972
16.9200,2.853
16.9600,2.974
17.0000,2.930
17.0400,2.918
17.0800,2.870
17.1200,2.901
17.1600,2.880
17.2000,2.915
17.2400,2.947
17.2800,2.965
17.3200,2.929
17.3600,2.928
17.4000,2.969
17.4400,2.912
17.4800,2.995
17.5200,2.921
17.5600,2.826
17.6000,2.927
17.6400,2.864
17.6800,2.935
17.7200,2.906
17.7600,2.800
17.8000,2.876
17.8400,2.899
17.8800,2.829
17.9200,2.882
17.9600,2.836
18.0000,2.913
18.0400,3.002
18.0800,2.825
18.1200,2.764
18.1600,2.871
18.2000,2.883
18.2400,2.875
18.2800,2.788
18.3200,2.846
18.3600,2.847
18.4000,2.918
18.4400,2.922
18.4800,2.712
18.5200,2.763
18.5600,2.804
18.6000,2.841
18.6400,2.768
18.6800,2.780
18.7200,2.807
18.7600,2.791
18.8000,2.779
18.8400,2.824
18.8800,2.824
18.9200,2.746
18.9600,2.724
19.0000,2.803
19.0400,2.747
19.0800,2.770
19.1200,2.736
19.1600,2.726
19.2000,2.643
19.2400,2.757
19.2800,2.759
19.3200,2.836
19.3600,2.783
19.4000,2.769
19.4400,2.683
19.4800,2.708
19.5200,2.675
19.5600,2.711
19.6000,2.657
19.6400,2.714
19.6800,2.751
19.7200,2.699
19.7600,2.702
19.8000,2.757
19.8400,2.661
19.8800,2.699
19.9200,2.737
19.9600,2.674
20.0000,2.626
20.0400,2.657
20.0800,2.607
20.1200,2.528
20.1600,2.676
20.2000,2.629
20.2400,2.600
20.2800,2.730
20.3200,2.658
20.3600,2.513
20.4000,2.629
20.4400,2.629
20.4800,2.563
20.5200,2.596
20.5600,2.613
20.6000,2.619
20.6400,2.598
20.6800,2.575
20.7200,2.621
20.7600,2.604
20.8000,2.559
20.8400,2.688
20.8800,2.523
20.9200,2.666
20.9600,2.641
21.0000,2.580
21.0400,2.535
21.0800,2.509
21.1200,2.598
21.1600,2.592
21.2000,2.537
21.2400,2.543
21.2800,2.691
21.3200,2.618
21.3600,2.631
21.4000,2.572
21.4400,2.576
21.4800,2.634
21.5200,2.583
21.5600,2.622
21.6000,2.613
21.6400,2.580
21.6800,2.585
21.7200,2.596
21.7600,2.571
21.8000,2.593
21.8400,2.568
21.8800,2.585
21.9200,2.537
21.9600,2.546
22.0000,2.479
22.0400,2.541
22.0800,2.474
22.1200,2.559
22.1600,2.498
22.2000,2.397
22.2400,2.381
22.2800,2.516
22.3200,2.483
22.3600,2.435
22.4000,2.452
22.4400,2.552
22.4800,2.474
22.5200,2.559
22.5600,2.434
22.6000,2.512
22.6400,2.390
22.6800,2.432
22.7200,2.392
22.7600,2.413
22.8000,2.415
22.8400,2.397
22.8800,2.442
22.9200,2.342
22.9600,2.409
23.0000,2.413
23.0400,2.489
23.0800,2.406
23.1200,2.404
23.1600,2.329
23.2000,2.390
23.2400,2.353
23.2800,2.344
23.3200,2.308
23.3600,2.379
23.4000,2.368
23.4400,2.372
23.4800,2.402
23.5200,2.327
23.5600,2.391
23.6000,2.424
23.6400,2.300
23.6800,2.289
23.7200,2.296
23.7600,2.246
23.8000,2.401
23.8400,2.395
23.8800,2.386
23.9200,2.365
23.9600,2.292
24.0000,2.217
24.0400,2.288
24.0800,2.282
24.1200,2.277
24.1600,2.281
24.2000,2.327
24.2400,2.288
24.2800,2.343
24.3200,2.305
24.3600,2.236
24.4000,2.244
24.4400,2.269
24.4800,2.362
24.5200,2.308
24.5600,2.327
24.6000,2.237
24.6400,2.163
24.6800,2.264
24.7200,2.289
24.7600,2.319
24.8000,2.241
24.8400,2.185
24.8800,2.213
24.9200,2.193
24.9600,2.202
25.0000,2.192
25.0400,2.338
25.0800,2.195
25.1200,2.237
25.1600,2.290
25.2000,2.243
25.2400,2.246
25.2800,2.195
25.3200,2.131
25.3600,2.211
25.4000,2.190
25.4400,2.145
25.4800,2.175
25.5200,2.239
25.5600,2.173
25.6000,2.244
25.6400,2.188
25.6800,2.195
25.7200,2.244
25.7600,2.182
25.8000,2.203
25.8400,2.142
25.8800,2.152
25.9200,2.248
25.9600,2.161
26.0000,2.203
26.0400,2.162
26.0800,2.194
26.1200,2.149
26.1600,2.193
26.2000,2.191
26.2400,2.222
26.2800,2.141
26.3200,2.201
26.3600,2.176
26.4000,2.181
26.4400,2.095
26.4800,2.117
26.5200,2.136
26.5600,2.127
26.6000,2.104
26.6400,2.081
26.6800,2.127
26.7200,2.042
26.7600,2.116
26.8000,2.116
26.8400,2.091
26.8800,2.060
26.9200,1.997
26.9600,2.105
27.0000,2.062
27.0400,2.102
27.0800,2.052
27.1200,2.044
27.1600,2.079
27.2000,2.005
27.2400,2.065
27.2800,2.030
27.3200,1.993
27.3600,2.064
27.4000,2.058
27.4400,2.054
27.4800,2.009
27.5200,1.955
27.5600,1.999
27.6000,2.049
27.6400,1.992
27.6800,2.016
27.7200,2.049
27.7600,2.070
27.8000,2.032
27.8400,1.948
27.8800,2.043
27.9200,2.018
27.9600,2.039
28.0000,1.941
28.0400,2.000
28.0800,2.002
28.1200,1.990
28.1600,1.954
28.2000,1.923
28.2400,1.973
28.2800,1.952
28.3200,1.971
28.3600,1.999
28.4000,1.927
28.4400,1.972
28.4800,1.956
28.5200,1.994
28.5600,1.932
28.6000,1.959
28.6400,1.966
28.6800,1.917
28.7200,1.943
28.7600,1.907
28.8000,1.898
28.8400,1.975
28.8800,1.912
28.9200,1.957
28.9600,1.928
29.0000,1.929
29.0400,2.022
29.0800,1.859
29.1200,1.929
29.1600,1.874
29.2000,1.919
29.2400,1.865
29.2800,1.938
29.3200,1.932
29.3600,1.863
29.4000,1.885
29.4400,1.931
29.4800,1.880
29.5200,1.914
29.5600,1.954
29.6000,1.972
29.6400,1.903
29.6800,1.921
29.7200,1.956
29.7600,1.945
29.8000,1.934
29.8400,1.969
29.8800,2.008
29.9200,1.876
29.9600,1.964
30.0000,1.939
30.0400,1.883
30.0800,1.958
30.1200,2.021
30.1600,2.035
30.2000,2.040
30.2400,2.026
30.2800,2.081
30.3200,2.109
30.3600,2.160
30.4000,2.175
30.4400,2.228
30.4800,2.309
30.5200,2.301
30.5600,2.451
30.6000,2.468
30.6400,2.461
30.6800,2.434
30.7200,2.451
30.7600,2.456
30.8000,2.436
30.8400,2.381
30.8800,2.230
30.9200,2.293
30.9600,2.240
31.0000,2.108
31.0400,2.084
31.0800,2.096
31.1200,2.104
31.1600,1.986
31.2000,2.024
31.2400,1.952
31.2800,1.836
31.3200,1.876
31.3600,1.864
31.4000,1.827
31.4400,1.801
31.4800,1.850
31.5200,1.791
31.5600,1.737
31.6000,1.780
31.6400,1.819
31.6800,1.797
31.7200,1.866
31.7600,1.786
31.8000,1.788
31.8400,1.754
31.8800,1.721
31.9200,1.714
31.9600,1.784
32.0000,1.714
32.0400,1.658
32.0800,1.738
32.1200,1.646
32.1600,1.711
32.2000,1.611
32.2400,1.711
32.2800,1.662
32.3200,1.742
32.3600,1.715
32.4000,1.687
32.4400,1.727
32.4800,1.661
32.5200,1.725
32.5600,1.661
32.6000,1.723
32.6400,1.717
32.6800,1.690
32.7200,1.709
32.7600,1.647
32.8000,1.643
32.8400,1.763
32.8800,1.674
32.9200,1.696
32.9600,1.683
33.0000,1.636
33.0400,1.716
33.0800,1.659
33.1200,1.657
33.1600,1.613
33.2000,1.605
33.2400,1.641
33.2800,1.627
33.3200,1.611
33.3600,1.600
33.4000,1.589
33.4400,1.621
33.4800,1.675
33.5200,1.674
33.5600,1.616
33.6000,1.617
33.6400,1.573
33.6800,1.584
33.7200,1.600
33.7600,1.603
33.8000,1.635
33.8400,1.543
33.8800,1.659
33.9200,1.537
33.9600,1.541
34.0000,1.570
34.0400,1.583
34.0800,1.594
34.1200,1.538
34.1600,1.556
34.2000,1.557
34.2400,1.623
34.2800,1.599
34.3200,1.610
34.3600,1.575
34.4000,1.563
34.4400,1.614
34.4800,1.556
34.5200,1.624
34.5600,1.590
34.6000,1.596
34.6400,1.578
34.6800,1.657
34.7200,1.639
34.7600,1.641
34.8000,1.640
34.8400,1.659
34.8800,1.705
34.9200,1.788
34.9600,1.796
35.0000,1.911
35.0400,1.899
35.0800,2.072
35.1200,2.030
35.1600,2.090
35.2000,2.235
35.2400,2.356
35.2800,2.518
35.3200,2.781
35.3600,3.260
35.4000,3.691
35.4400,4.196
35.4800,4.514
35.5200,4.914
35.5600,5.057
35.6000,4.958
35.6400,4.895
35.6800,4.656
35.7200,4.269
35.7600,3.859
35.8000,3.432
35.8400,3.044
35.8800,2.792
35.9200,2.563
35.9600,2.344
36.0000,2.194
36.0400,2.049
36.0800,1.882
36.1200,1.848
36.1600,1.830
36.2000,1.823
36.2400,1.760
36.2800,1.648
36.3200,1.643
36.3600,1.625
36.4000,1.670
36.4400,1.576
36.4800,1.556
36.5200,1.550
36.5600,1.547
36.6000,1.533
36.6400,1.514
36.6800,1.550
36.7200,1.528
36.7600,1.529
36.8000,1.507
36.8400,1.499
36.8800,1.472
36.9200,1.531
36.9600,1.513
37.0000,1.487
37.0400,1.549
37.0800,1.532
37.1200,1.525
37.1600,1.548
37.2000,1.517
37.2400,1.532
37.2800,1.587
37.3200,1.589
37.3600,1.570
37.4000,1.607
37.4400,1.610
37.4800,1.702
37.5200,1.912
37.5600,2.197
37.6000,2.477
37.6400,2.714
37.6800,2.977
37.7200,3.049
37.7600,3.066
37.8000,2.885
37.8400,2.713
37.8800,2.517
37.9200,2.265
37.9600,2.111
38.0000,1.956
38.0400,1.840
38.0800,1.818
38.1200,1.763
38.1600,1.707
38.2000,1.650
38.2400,1.626
38.2800,1.520
38.3200,1.489
38.3600,1.497
38.4000,1.511
38.4400,1.481
38.4800,1.515
38.5200,1.373
38.5600,1.473
38.6000,1.468
38.6400,1.463
38.6800,1.422
38.7200,1.382
38.7600,1.371
38.8000,1.402
38.8400,1.448
38.8800,1.397
38.9200,1.393
38.9600,1.427
39.0000,1.322
39.0400,1.460
39.0800,1.411
39.1200,1.329
39.1600,1.462
39.2000,1.488
39.2400,1.463
39.2800,1.386
39.3200,1.363
39.3600,1.396
39.4000,1.438
39.4400,1.470
39.4800,1.401
39.5200,1.456
39.5600,1.439
39.6000,1.481
39.6400,1.469
39.6800,1.464
39.7200,1.517
39.7600,1.504
39.8000,1.587
39.8400,1.610
39.8800,1.668
39.9200,1.724
39.9600,1.847
40.0000,1.964
40.0400,2.092
40.0800,2.246
40.1200,2.483
40.1600,2.717
40.2000,3.226
40.2400,3.864
40.2800,4.609
40.3200,5.626
40.3600,6.245
40.4000,6.854
40.4400,7.226
40.4800,7.477
40.5200,7.474
40.5600,6.906
40.6000,6.203
40.6400,5.509
40.6800,4.661
40.7200,4.003
40.7600,3.437
40.8000,3.015
40.8400,2.647
40.8800,2.300
40.9200,2.028
40.9600,1.903
41.0000,1.889
41.0400,1.732
41.0800,1.682
41.1200,1.574
41.1600,1.441
41.2000,1.470
41.2400,1.418
41.2800,1.394
41.3200,1.359
41.3600,1.354
41.4000,1.327
41.4400,1.328
41.4800,1.325
41.5200,1.367
41.5600,1.250
41.6000,1.247
41.6400,1.285
41.6800,1.224
41.7200,1.191
41.7600,1.217
41.8000,1.315
41.8400,1.266
41.8800,1.221
41.9200,1.141
41.9600,1.188
42.0000,1.205
42.0400,1.272
42.0800,1.202
42.1200,1.233
42.1600,1.203
42.2000,1.140
42.2400,1.089
42.2800,1.141
42.3200,1.172
42.3600,1.168
42.4000,1.115
42.4400,1.226
42.4800,1.122
42.5200,1.136
42.5600,1.130
42.6000,1.127
42.6400,1.150
42.6800,1.145
42.7200,1.091
42.7600,1.110
42.8000,1.087
42.8400,1.157
42.8800,1.131
42.9200,1.094
42.9600,1.138
43.0000,1.078
43.0400,1.118
43.0800,1.103
43.1200,1.064
43.1600,1.077
43.2000,1.084
43.2400,1.131
43.2800,1.075
43.3200,1.072
43.3600,1.105
43.4000,1.047
43.4400,1.088
43.4800,1.054
43.5200,1.044
43.5600,0.986
43.6000,1.017
43.6400,1.058
43.6800,1.061
43.7200,1.072
43.7600,0.995
43.8000,1.070
43.8400,1.040
43.8800,1.017
43.9200,1.022
43.9600,1.024
44.0000,1.063
44.0400,1.021
44.0800,1.007
44.1200,1.020
44.1600,0.997
44.2000,1.019
44.2400,1.019
44.2800,1.005
44.3200,0.992
44.3600,0.973
44.4000,1.022
44.4400,0.997
44.4800,1.012
44.5200,1.077
44.5600,1.024
44.6000,0.998
44.6400,0.969
44.6800,1.011
44.7200,0.934
44.7600,0.983
44.8000,1.012
44.8400,1.006
44.8800,0.938
44.9200,0.961
44.9600,1.015
45.0000,1.011
45.0400,0.960
45.0800,0.995
45.1200,0.946
45.1600,0.969
45.2000,1.015
45.2400,0.985
45.2800,1.011
45.3200,1.038
45.3600,0.994
45.4000,1.036
45.4400,0.958
45.4800,1.012
45.5200,0.998
45.5600,0.995
45.6000,0.977
45.6400,0.988
45.6800,1.006
45.7200,1.009
45.7600,0.998
45.8000,0.997
45.8400,0.983
45.8800,0.954
45.9200,0.971
45.9600,1.004
46.0000,0.968
46.0400,0.971
46.0800,0.982
46.1200,0.934
46.1600,0.979
46.2000,0.963
46.2400,0.979
46.2800,0.949
46.3200,0.959
46.3600,0.868
46.4000,0.988
46.4400,0.937
46.4800,0.897
46.5200,0.907
46.5600,0.957
46.6000,0.929
46.6400,0.909
46.6800,0.926
46.7200,0.908
46.7600,0.945
46.8000,0.936
46.8400,0.960
46.8800,0.933
46.9200,0.895
46.9600,0.926
47.0000,0.865
47.0400,0.876
47.0800,0.872
47.1200,0.879
47.1600,0.898
47.2000,0.912
47.2400,0.868
47.2800,0.902
47.3200,0.895
47.3600,0.872
47.4000,0.820
47.4400,0.909
47.4800,0.840
47.5200,0.878
47.5600,0.889
47.6000,0.892
47.6400,0.878
47.6800,0.897
47.7200,0.898
47.7600,0.878
47.8000,0.875
47.8400,0.903
47.8800,0.899
47.9200,0.836
47.9600,0.837
48.0000,0.898
48.0400,0.878
48.0800,0.873
48.1200,0.852
48.1600,0.877
48.2000,0.868
48.2400,0.883
48.2800,0.825
48.3200,0.858
48.3600,0.845
48.4000,0.871
48.4400,0.840
48.4800,0.836
48.5200,0.863
48.5600,0.871
48.6000,0.808
48.6400,0.842
48.6800,0.809
48.7200,0.851
48.7600,0.847
48.8000,0.845
48.8400,0.843
48.8800,0.814
48.9200,0.791
48.9600,0.869
49.0000,0.839
49.0400,0.816
49.0800,0.846
49.1200,0.847
49.1600,0.881
49.2000,0.821
49.2400,0.884
49.2800,0.781
49.3200,0.840
49.3600,0.836
49.4000,0.816
49.4400,0.806
49.4800,0.796
49.5200,0.869
49.5600,0.822
49.6000,0.825
49.6400,0.807
49.6800,0.785
49.7200,0.820
49.7600,0.815
49.8000,0.841
49.8400,0.802
49.8800,0.801
49.9200,0.832
49.9600,0.839
50.0000,0.804
50.0400,0.786
50.0800,0.825
50.1200,0.849
50.1600,0.825
50.2000,0.779
50.2400,0.801
50.2800,0.818
50.3200,0.811
50.3600,0.806
50.4000,0.832
50.4400,0.876
50.4800,0.861
50.5200,0.883
50.5600,0.840
50.6000,0.878
50.6400,0.875
50.6800,0.867
50.7200,0.848
50.7600,0.868
50.8000,0.883
50.8400,0.909
50.8800,0.856
50.9200,0.865
50.9600,0.934
51.0000,0.962
51.0400,0.984
51.0800,1.026
51.1200,0.978
51.1600,0.959
51.2000,0.953
51.2400,0.964
51.2800,0.986
51.3200,0.965
51.3600,0.928
51.4000,0.893
51.4400,0.869
51.4800,0.879
51.5200,0.876
51.5600,0.851
51.6000,0.815
51.6400,0.830
51.6800,0.851
51.7200,0.813
51.7600,0.870
51.8000,0.840
51.8400,0.826
51.8800,0.796
51.9200,0.783
51.9600,0.788
52.0000,0.774
52.0400,0.750
52.0800,0.802
52.1200,0.772
52.1600,0.793
52.2000,0.791
52.2400,0.801
52.2800,0.816
52.3200,0.809
52.3600,0.786
52.4000,0.813
52.4400,0.852
52.4800,0.891
52.5200,0.898
52.5600,0.939
52.6000,0.984
52.6400,1.085
52.6800,1.099
52.7200,1.134
52.7600,1.216
52.8000,1.260
52.8400,1.231
52.8800,1.213
52.9200,1.314
52.9600,1.194
53.0000,1.173
53.0400,1.103
53.0800,1.020
53.1200,1.038
53.1600,0.954
53.2000,0.916
53.2400,0.891
53.2800,0.823
53.3200,0.784
53.3600,0.749
53.4000,0.817
53.4400,0.766
53.4800,0.769
53.5200,0.764
53.5600,0.768
53.6000,0.779
53.6400,0.732
53.6800,0.723
53.7200,0.762
53.7600,0.734
53.8000,0.728
53.8400,0.780
53.8800,0.740
53.9200,0.717
53.9600,0.699
54.0000,0.723
54.0400,0.686
54.0800,0.694
54.1200,0.706
54.1600,0.698
54.2000,0.745
54.2400,0.705
54.2800,0.710
54.3200,0.689
54.3600,0.665
54.4000,0.710
54.4400,0.696
54.4800,0.695
54.5200,0.693
54.5600,0.707
54.6000,0.708
54.6400,0.669
54.6800,0.682
54.7200,0.712
54.7600,0.672
54.8000,0.681
54.8400,0.639
54.8800,0.703
54.9200,0.732
54.9600,0.728
55.0000,0.705
55.0400,0.684
55.0800,0.655
55.1200,0.640
55.1600,0.646
55.2000,0.681
55.2400,0.723
55.2800,0.671
55.3200,0.620
55.3600,0.681
55.4000,0.690
55.4400,0.704
55.4800,0.704
55.5200,0.650
55.5600,0.679
55.6000,0.682
55.6400,0.654
55.6800,0.669
55.7200,0.699
55.7600,0.640
55.8000,0.667
55.8400,0.654
55.8800,0.679
55.9200,0.731
55.9600,0.649
56.0000,0.701
56.0400,0.675
56.0800,0.643
56.1200,0.683
56.1600,0.683
56.2000,0.669
56.2400,0.662
56.2800,0.684
56.3200,0.669
56.3600,0.646
56.4000,0.648
56.4400,0.641
56.4800,0.706
56.5200,0.636
56.5600,0.619
56.6000,0.671
56.6400,0.694
56.6800,0.648
56.7200,0.634
56.7600,0.616
56.8000,0.639
56.8400,0.614
56.8800,0.613
56.9200,0.658
56.9600,0.578
57.0000,0.648
57.0400,0.596
57.0800,0.628
57.1200,0.632
57.1600,0.607
57.2000,0.621
57.2400,0.616
57.2800,0.633
57.3200,0.592
57.3600,0.626
57.4000,0.605
57.4400,0.662
57.4800,0.625
57.5200,0.658
57.5600,0.625
57.6000,0.640
57.6400,0.618
57.6800,0.597
57.7200,0.636
57.7600,0.632
57.8000,0.593
57.8400,0.629
57.8800,0.629
57.9200,0.592
57.9600,0.614
58.0000,0.650
58.0400,0.604
58.0800,0.627
58.1200,0.624
58.1600,0.615
58.2000,0.616
58.2400,0.623
58.2800,0.612
58.3200,0.621
58.3600,0.634
58.4000,0.602
58.4400,0.617
58.4800,0.615
58.5200,0.610
58.5600,0.567
58.6000,0.615
58.6400,0.601
58.6800,0.635
58.7200,0.578
58.7600,0.604
58.8000,0.642
58.8400,0.610
58.8800,0.619
58.9200,0.629
58.9600,0.582
59.0000,0.647
59.0400,0.586
59.0800,0.592
59.1200,0.590
59.1600,0.662
59.2000,0.597
59.2400,0.597
59.2800,0.621
59.3200,0.608
59.3600,0.608
59.4000,0.594
59.4400,0.620
59.4800,0.605
59.5200,0.606
59.5600,0.643
59.6000,0.634
59.6400,0.612
59.6800,0.625
59.7200,0.618
59.7600,0.676
59.8000,0.608
59.8400,0.614
59.8800,0.606
59.9200,0.662
59.9600,0.592
60.0000,0.540
60.0400,0.589
60.0800,0.629
60.1200,0.611
60.1600,0.629
60.2000,0.634
60.2400,0.632
60.2800,0.630
60.3200,0.614
60.3600,0.629
60.4000,0.634
60.4400,0.640
60.4800,0.653
60.5200,0.636
60.5600,0.645
60.6000,0.634
60.6400,0.646
60.6800,0.716
60.7200,0.662
60.7600,0.658
60.8000,0.670
60.8400,0.659
60.8800,0.702
60.9200,0.669
60.9600,0.660
61.0000,0.677
61.0400,0.651
61.0800,0.684
61.1200,0.675
61.1600,0.612
61.2000,0.633
61.2400,0.610
61.2800,0.622
61.3200,0.633
61.3600,0.588
61.4000,0.612
61.4400,0.614
61.4800,0.607
61.5200,0.570
61.5600,0.588
61.6000,0.568
61.6400,0.569
61.6800,0.587
61.7200,0.598
61.7600,0.669
61.8000,0.655
61.8400,0.639
61.8800,0.584
61.9200,0.580
61.9600,0.584
62.0000,0.575
62.0400,0.596
62.0800,0.604
62.1200,0.594
62.1600,0.581
62.2000,0.560
62.2400,0.584
62.2800,0.594
62.3200,0.594
62.3600,0.567
62.4000,0.567
62.4400,0.633
62.4800,0.597
62.5200,0.553
62.5600,0.584
62.6000,0.594
62.6400,0.580
62.6800,0.588
62.7200,0.624
62.7600,0.578
62.8000,0.588
62.8400,0.613
62.8800,0.628
62.9200,0.634
62.9600,0.659
63.0000,0.674
63.0400,0.688
63.0800,0.697
63.1200,0.704
63.1600,0.726
63.2000,0.691
63.2400,0.705
63.2800,0.694
63.3200,0.763
63.3600,0.773
63.4000,0.771
63.4400,0.844
63.4800,0.837
63.5200,0.840
63.5600,0.951
63.6000,0.959
63.6400,0.962
63.6800,1.077
63.7200,1.082
63.7600,1.113
63.8000,1.171
63.8400,1.193
63.8800,1.206
63.9200,1.209
63.9600,1.233
64.0000,1.140
64.0400,1.120
64.0800,1.067
64.1200,0.999
64.1600,0.978
64.2000,0.909
64.2400,0.798
64.2800,0.808
64.3200,0.775
64.3600,0.800
64.4000,0.729
64.4400,0.696
64.4800,0.683
64.5200,0.689
64.5600,0.683
64.6000,0.665
64.6400,0.666
64.6800,0.663
64.7200,0.684
64.7600,0.614
64.8000,0.654
64.8400,0.598
64.8800,0.650
64.9200,0.605
64.9600,0.621
65.0000,0.633
65.0400,0.620
65.0800,0.642
65.1200,0.651
65.1600,0.656
65.2000,0.658
65.2400,0.655
65.2800,0.646
65.3200,0.622
65.3600,0.620
65.4000,0.617
65.4400,0.639
65.4800,0.630
65.5200,0.630
65.5600,0.676
65.6000,0.678
65.6400,0.672
65.6800,0.706
65.7200,0.642
65.7600,0.625
65.8000,0.734
65.8400,0.641
65.8800,0.698
65.9200,0.676
65.9600,0.714
66.0000,0.678
66.0400,0.729
66.0800,0.673
66.1200,0.701
66.1600,0.701
66.2000,0.705
66.2400,0.770
66.2800,0.752
66.3200,0.782
66.3600,0.781
66.4000,0.757
66.4400,0.783
66.4800,0.751
66.5200,0.808
66.5600,0.853
66.6000,0.850
66.6400,0.808
66.6800,0.863
66.7200,0.840
66.7600,0.879
66.8000,0.869
66.8400,0.877
66.8800,0.935
66.9200,0.959
66.9600,0.944
67.0000,0.966
67.0400,0.991
67.0800,1.005
67.1200,0.999
67.1600,1.036
67.2000,1.004
67.2400,1.036
67.2800,1.049
67.3200,1.092
67.3600,1.128
67.4000,1.146
67.4400,1.161
67.4800,1.198
67.5200,1.188
67.5600,1.275
67.6000,1.264
67.6400,1.319
67.6800,1.346
67.7200,1.388
67.7600,1.372
67.8000,1.372
67.8400,1.416
67.8800,1.428
67.9200,1.522
67.9600,1.556
68.0000,1.571
68.0400,1.650
68.0800,1.630
68.1200,1.605
68.1600,1.735
68.2000,1.753
68.2400,1.879
68.2800,1.908
68.3200,1.852
68.3600,2.072
68.4000,2.149
68.4400,2.228
68.4800,2.332
68.5200,2.415
68.5600,2.496
68.6000,2.616
68.6400,2.786
68.6800,3.022
68.7200,3.275
68.7600,3.620
68.8000,4.567
68.8400,6.043
68.8800,7.616
68.9200,8.300
68.9600,8.329
69.0000,8.825
69.0400,10.877
69.0800,15.872
69.1200,29.585
69.1600,98.022
69.2000,429.306
69.2400,595.724
69.2800,259.139
69.3200,66.075
69.3600,78.436
69.4000,239.172
69.4400,299.892
69.4800,126.477
69.5200,31.334
69.5600,15.131
69.6000,10.486
69.6400,8.200
69.6800,6.668
69.7200,5.817
69.7600,5.134
69.8000,4.778
69.8400,4.312
69.8800,3.983
69.9200,3.761
69.9600,3.451
70.0000,3.185
70.0400,3.223
70.0800,3.050
70.1200,2.830
70.1600,2.702
70.2000,2.627
70.2400,2.462
70.2800,2.373
70.3200,2.306
70.3600,2.160
70.4000,2.121
70.4400,2.000
70.4800,1.941
70.5200,1.855
70.5600,1.811
70.6000,1.676
70.6400,1.602
70.6800,1.585
70.7200,1.587
70.7600,1.533
70.8000,1.405
70.8400,1.406
70.8800,1.378
70.9200,1.348
70.9600,1.304
71.0000,1.297
71.0400,1.251
71.0800,1.282
71.1200,1.177
71.1600,1.151
71.2000,1.101
71.2400,1.087
71.2800,1.071
71.3200,1.066
71.3600,1.024
71.4000,1.059
71.4400,1.015
71.4800,0.987
71.5200,0.964
71.5600,0.942
71.6000,0.937
71.6400,0.919
71.6800,0.864
71.7200,0.852
71.7600,0.843
71.8000,0.786
71.8400,0.789
71.8800,0.798
71.9200,0.775
71.9600,0.778
72.0000,0.709
72.0400,0.762
72.0800,0.758
72.1200,0.727
72.1600,0.730
72.2000,0.689
72.2400,0.701
72.2800,0.653
72.3200,0.616
72.3600,0.631
72.4000,0.640
72.4400,0.628
72.4800,0.619
72.5200,0.613
72.5600,0.587
72.6000,0.627
72.6400,0.596
72.6800,0.597
72.7200,0.567
72.7600,0.604
72.8000,0.589
72.8400,0.573
72.8800,0.541
72.9200,0.555
72.9600,0.567
73.0000,0.571
73.0400,0.523
73.0800,0.532
73.1200,0.545
73.1600,0.524
73.2000,0.541
73.2400,0.522
73.2800,0.507
73.3200,0.487
73.3600,0.476
73.4000,0.522
73.4400,0.509
73.4800,0.482
73.5200,0.478
73.5600,0.522
73.6000,0.516
73.6400,0.500
73.6800,0.486
73.7200,0.518
73.7600,0.479
73.8000,0.489
73.8400,0.505
73.8800,0.491
73.9200,0.502
73.9600,0.522
74.0000,0.489
74.0400,0.495
74.0800,0.498
74.1200,0.478
74.1600,0.457
74.2000,0.462
74.2400,0.482
74.2800,0.502
74.3200,0.444
74.3600,0.464
74.4000,0.462
74.4400,0.470
74.4800,0.463
74.5200,0.451
74.5600,0.463
74.6000,0.446
74.6400,0.469
74.6800,0.481
74.7200,0.468
74.7600,0.497
74.8000,0.487
74.8400,0.499
74.8800,0.549
74.9200,0.532
74.9600,0.514
75.0000,0.475
75.0400,0.512
75.0800,0.513
75.1200,0.495
75.1600,0.550
75.2000,0.504
75.2400,0.558
75.2800,0.528
75.3200,0.513
75.3600,0.485
75.4000,0.497
75.4400,0.514
75.4800,0.512
75.5200,0.479
75.5600,0.477
75.6000,0.484
75.6400,0.483
75.6800,0.456
75.7200,0.478
75.7600,0.447
75.8000,0.458
75.8400,0.494
75.8800,0.466
75.9200,0.491
75.9600,0.494
76.0000,0.500
76.0400,0.496
76.0800,0.511
76.1200,0.535
76.1600,0.561
76.2000,0.536
76.2400,0.628
76.2800,0.595
76.3200,0.622
76.3600,0.608
76.4000,0.625
76.4400,0.706
76.4800,0.687
76.5200,0.721
76.5600,0.708
76.6000,0.724
76.6400,0.738
76.6800,0.706
76.7200,0.738
76.7600,0.678
76.8000,0.707
76.8400,0.723
76.8800,0.651
76.9200,0.675
76.9600,0.609
77.0000,0.608
77.0400,0.571
77.0800,0.525
77.1200,0.553
77.1600,0.500
77.2000,0.515
77.2400,0.476
77.2800,0.505
77.3200,0.459
77.3600,0.446
77.4000,0.477
77.4400,0.462
77.4800,0.465
77.5200,0.448
77.5600,0.508
77.6000,0.485
77.6400,0.469
77.6800,0.520
77.7200,0.524
77.7600,0.556
77.8000,0.589
77.8400,0.635
77.8800,0.609
77.9200,0.668
77.9600,0.602
78.0000,0.660
78.0400,0.663
78.0800,0.706
78.1200,0.759
78.1600,0.788
78.2000,0.753
78.2400,0.737
78.2800,0.730
78.3200,0.731
78.3600,0.684
78.4000,0.624
78.4400,0.690
78.4800,0.636
78.5200,0.623
78.5600,0.626
78.6000,0.583
78.6400,0.567
78.6800,0.530
78.7200,0.512
78.7600,0.473
78.8000,0.510
78.8400,0.450
78.8800,0.401
78.9200,0.434
78.9600,0.467
79.0000,0.381
79.0400,0.368
79.0800,0.385
79.1200,0.360
79.1600,0.349
79.2000,0.369
79.2400,0.398
79.2800,0.356
79.3200,0.358
79.3600,0.335
79.4000,0.357
79.4400,0.332
79.4800,0.347
79.5200,0.310
79.5600,0.349
79.6000,0.313
79.6400,0.341
79.6800,0.346
79.7200,0.340
79.7600,0.351
79.8000,0.337
79.8400,0.344
79.8800,0.320
79.9200,0.343
79.9600,0.329
80.0000,0.326
