theta,intensity
5.0000,6.120
5.0400,6.157
5.0800,6.100
5.1200,5.991
5.1600,6.114
5.2000,6.022
5.2400,5.954
5.2800,5.995
5.3200,5.771
5.3600,5.889
5.4000,5.738
5.4400,5.805
5.4800,5.779
5.5200,5.720
5.5600,5.787
5.6000,5.549
5.6400,5.571
5.6800,5.474
5.7200,5.379
5.7600,5.282
5.8000,5.214
5.8400,5.159
5.8800,5.058
5.9200,4.932
5.9600,4.939
6.0000,4.916
6.0400,4.773
6.0800,4.650
6.1200,4.656
6.1600,4.664
6.2000,4.522
6.2400,4.461
6.2800,4.446
6.3200,4.488
6.3600,4.481
6.4000,4.363
6.4400,4.449
6.4800,4.369
6.5200,4.236
6.5600,4.330
6.6000,4.201
6.6400,4.208
6.6800,4.306
6.7200,4.236
6.7600,4.189
6.8000,4.140
6.8400,4.120
6.8800,4.204
6.9200,4.176
6.9600,4.163
7.0000,4.120
7.0400,4.165
7.0800,4.159
7.1200,4.114
7.1600,4.159
7.2000,4.128
7.2400,4.126
7.2800,4.117
7.3200,4.094
7.3600,3.996
7.4000,4.091
7.4400,4.100
7.4800,4.035
7.5200,4.146
7.5600,4.004
7.6000,4.133
7.6400,4.115
7.6800,4.083
7.7200,4.007
7.7600,3.934
7.8000,4.060
7.8400,4.118
7.8800,3.967
7.9200,3.931
7.9600,3.991
8.0000,3.945
8.0400,3.974
8.0800,3.968
8.1200,3.914
8.1600,4.000
8.2000,3.985
8.2400,3.941
8.2800,3.949
8.3200,3.930
8.3600,4.049
8.4000,4.078
8.4400,3.832
8.4800,3.984
8.5200,3.885
8.5600,3.894
8.6000,3.809
8.6400,3.926
8.6800,3.943
8.7200,3.896
8.7600,3.955
8.8000,3.970
8.8400,3.894
8.8800,3.894
8.9200,3.846
8.9600,3.896
9.0000,3.858
9.0400,3.854
9.0800,3.788
9.1200,3.889
9.1600,3.850
9.2000,3.864
9.2400,3.877
9.2800,3.853
9.3200,3.748
9.3600,3.810
9.4000,3.857
9.4400,3.883
9.4800,3.901
9.5200,3.773
9.5600,3.696
9.6000,3.796
9.6400,3.823
9.6800,3.744
9.7200,3.778
9.7600,3.821
9.8000,3.767
9.8400,3.758
9.8800,3.733
9.9200,3.851
9.9600,3.773
10.0000,3.757
10.0400,3.683
10.0800,3.728
10.1200,3.831
10.1600,3.717
10.2000,3.546
10.2400,3.730
10.2800,3.669
10.3200,3.647
10.3600,3.701
10.4000,3.727
10.4400,3.804
10.4800,3.650
10.5200,3.640
10.5600,3.753
10.6000,3.701
10.6400,3.562
10.6800,3.631
10.7200,3.680
10.7600,3.580
10.8000,3.628
10.8400,3.696
10.8800,3.711
10.9200,3.636
10.9600,3.705
11.0000,3.555
11.0400,3.615
11.0800,3.587
11.1200,3.659
11.1600,3.556
11.2000,3.551
11.2400,3.594
11.2800,3.526
11.3200,3.632
11.3600,3.683
11.4000,3.680
11.4400,3.671
11.4800,3.586
11.5200,3.707
11.5600,3.662
11.6000,3.514
11.6400,3.607
11.6800,3.702
11.7200,3.502
11.7600,3.604
11.8000,3.564
11.8400,3.571
11.8800,3.407
11.9200,3.546
11.9600,3.530
12.0000,3.504
12.0400,3.420
12.0800,3.509
12.1200,3.511
12.1600,3.497
12.2000,3.511
12.2400,3.546
12.2800,3.466
12.3200,3.595
12.3600,3.592
12.4000,3.452
12.4400,3.419
12.4800,3.443
12.5200,3.422
12.5600,3.478
12.6000,3.418
12.6400,3.423
12.6800,3.431
12.7200,3.466
12.7600,3.415
12.8000,3.620
12.8400,3.493
12.8800,3.544
12.9200,3.464
12.9600,3.430
13.0000,3.455
13.0400,3.409
13.0800,3.444
13.1200,3.428
13.1600,3.370
13.2000,3.446
13.2400,3.459
13.2800,3.386
13.3200,3.346
13.3600,3.339
13.4000,3.389
13.4400,3.487
13.4800,3.434
13.5200,3.487
13.5600,3.438
13.6000,3.465
13.6400,3.414
13.6800,3.387
13.7200,3.282
13.7600,3.414
13.8000,3.341
13.8400,3.444
13.8800,3.283
13.9200,3.379
13.9600,3.325
14.0000,3.316
14.0400,3.343
14.0800,3.357
14.1200,3.375
14.1600,3.324
14.2000,3.367
14.2400,3.322
14.2800,3.364
14.3200,3.409
14.3600,3.354
14.4000,3.325
14.4400,3.322
14.4800,3.308
14.5200,3.241
14.5600,3.325
14.6000,3.226
14.6400,3.382
14.6800,3.258
14.7200,3.340
14.7600,3.287
14.8000,3.229
14.8400,3.306
14.8800,3.271
14.9200,3.299
14.9600,3.344
15.0000,3.258
15.0400,3.231
15.0800,3.250
15.1200,3.322
15.1600,3.284
15.2000,3.227
15.2400,3.230
15.2800,3.228
15.3200,3.208
15.3600,3.189
15.4000,3.252
15.4400,3.321
15.4800,3.157
15.5200,3.138
15.5600,3.220
15.6000,3.188
15.6400,3.188
15.6800,3.230
15.7200,3.152
15.7600,3.169
15.8000,3.150
15.8400,3.190
15.8800,3.189
15.9200,3.309
15.9600,3.205
16.0000,3.124
16.0400,3.212
16.0800,3.204
16.1200,3.191
16.1600,3.160
16.2000,3.196
16.2400,3.056
16.2800,3.142
16.3200,3.138
16.3600,3.140
16.4000,3.076
16.4400,3.171
16.4800,3.104
16.5200,3.137
16.5600,3.117
16.6000,3.143
16.6400,3.076
16.6800,3.040
16.7200,3.091
16.7600,3.143
16.8000,3.080
16.8400,3.092
16.8800,3.219
16.9200,3.151
16.9600,3.090
17.0000,3.100
17.0400,3.059
17.0800,3.172
17.1200,3.082
17.1600,3.026
17.2000,3.074
17.2400,3.069
17.2800,2.919
17.3200,3.107
17.3600,2.995
17.4000,3.136
17.4400,3.118
17.4800,3.193
17.5200,3.051
17.5600,2.990
17.6000,3.012
17.6400,3.030
17.6800,2.971
17.7200,2.895
17.7600,2.984
17.8000,2.972
17.8400,2.884
17.8800,2.913
17.9200,2.966
17.9600,2.927
18.0000,3.016
18.0400,3.056
18.0800,2.879
18.1200,3.034
18.1600,3.020
18.2000,2.929
18.2400,3.019
18.2800,2.937
18.3200,2.922
18.3600,2.984
18.4000,2.941
18.4400,2.926
18.4800,2.882
18.5200,2.896
18.5600,2.848
18.6000,2.814
18.6400,2.873
18.6800,2.930
18.7200,2.845
18.7600,2.842
18.8000,2.847
18.8400,3.032
18.8800,2.852
18.9200,2.964
18.9600,2.840
19.0000,2.853
19.0400,2.885
19.0800,2.877
19.1200,2.946
19.1600,2.844
19.2000,2.841
19.2400,2.790
19.2800,2.806
19.3200,2.827
19.3600,2.818
19.4000,2.783
19.4400,2.885
19.4800,2.864
19.5200,2.868
19.5600,2.939
19.6000,2.858
19.6400,2.826
19.6800,2.793
19.7200,2.834
19.7600,2.908
19.8000,2.764
19.8400,2.759
19.8800,2.767
19.9200,2.768
19.9600,2.786
20.0000,2.740
20.0400,2.715
20.0800,2.697
20.1200,2.764
20.1600,2.769
20.2000,2.851
20.2400,2.810
20.2800,2.700
20.3200,2.690
20.3600,2.747
20.4000,2.798
20.4400,2.811
20.4800,2.756
20.5200,2.719
20.5600,2.682
20.6000,2.730
20.6400,2.726
20.6800,2.801
20.7200,2.747
20.7600,2.731
20.8000,2.674
20.8400,2.740
20.8800,2.694
20.9200,2.627
20.9600,2.678
21.0000,2.745
21.0400,2.776
21.0800,2.709
21.1200,2.689
21.1600,2.678
21.2000,2.721
21.2400,2.733
21.2800,2.696
21.3200,2.659
21.3600,2.681
21.4000,2.688
21.4400,2.723
21.4800,2.572
21.5200,2.643
21.5600,2.648
21.6000,2.613
21.6400,2.555
21.6800,2.690
21.7200,2.652
21.7600,2.656
21.8000,2.604
21.8400,2.664
21.8800,2.672
21.9200,2.560
21.9600,2.665
22.0000,2.678
22.0400,2.566
22.0800,2.641
22.1200,2.654
22.1600,2.658
22.2000,2.568
22.2400,2.660
22.2800,2.653
22.3200,2.630
22.3600,2.768
22.4000,2.679
22.4400,2.725
22.4800,2.727
22.5200,2.755
22.5600,2.690
22.6000,2.706
22.6400,2.728
22.6800,2.725
22.7200,2.787
22.7600,2.755
22.8000,2.814
22.8400,2.740
22.8800,2.717
22.9200,2.778
22.9600,2.738
23.0000,2.717
23.0400,2.756
23.0800,2.838
23.1200,2.714
23.1600,2.798
23.2000,2.743
23.2400,2.709
23.2800,2.739
23.3200,2.636
23.3600,2.734
23.4000,2.792
23.4400,2.872
23.4800,2.863
23.5200,2.865
23.5600,2.877
23.6000,2.918
23.6400,2.925
23.6800,3.016
23.7200,2.966
23.7600,2.925
23.8000,2.873
23.8400,2.953
23.8800,3.027
23.9200,2.983
23.9600,3.054
24.0000,2.979
24.0400,2.919
24.0800,2.949
24.1200,2.895
24.1600,2.816
24.2000,2.800
24.2400,2.732
24.2800,2.689
24.3200,2.765
24.3600,2.760
24.4000,2.651
24.4400,2.551
24.4800,2.558
24.5200,2.658
24.5600,2.591
24.6000,2.568
24.6400,2.657
24.6800,2.482
24.7200,2.535
24.7600,2.441
24.8000,2.490
24.8400,2.511
24.8800,2.505
24.9200,2.372
24.9600,2.318
25.0000,2.360
25.0400,2.349
25.0800,2.339
25.1200,2.384
25.1600,2.419
25.2000,2.448
25.2400,2.375
25.2800,2.369
25.3200,2.363
25.3600,2.345
25.4000,2.409
25.4400,2.362
25.4800,2.262
25.5200,2.346
25.5600,2.242
25.6000,2.301
25.6400,2.366
25.6800,2.289
25.7200,2.316
25.7600,2.264
25.8000,2.380
25.8400,2.213
25.8800,2.336
25.9200,2.341
25.9600,2.307
26.0000,2.294
26.0400,2.247
26.0800,2.214
26.1200,2.254
26.1600,2.326
26.2000,2.317
26.2400,2.239
26.2800,2.216
26.3200,2.213
26.3600,2.192
26.4000,2.196
26.4400,2.215
26.4800,2.266
26.5200,2.186
26.5600,2.180
26.6000,2.240
26.6400,2.265
26.6800,2.165
26.7200,2.239
26.7600,2.176
26.8000,2.206
26.8400,2.181
26.8800,2.203
26.9200,2.196
26.9600,2.249
27.0000,2.196
27.0400,2.164
27.0800,2.203
27.1200,2.137
27.1600,2.231
27.2000,2.180
27.2400,2.168
27.2800,2.175
27.3200,2.134
27.3600,2.147
27.4000,2.175
27.4400,2.200
27.4800,2.114
27.5200,2.139
27.5600,2.183
27.6000,2.187
27.6400,2.262
27.6800,2.195
27.7200,2.139
27.7600,2.114
27.8000,2.116
27.8400,2.124
27.8800,2.113
27.9200,2.093
27.9600,2.084
28.0000,2.105
28.0400,2.132
28.0800,2.084
28.1200,2.123
28.1600,2.164
28.2000,2.065
28.2400,2.037
28.2800,2.030
28.3200,2.095
28.3600,2.084
28.4000,2.088
28.4400,2.052
28.4800,2.013
28.5200,2.039
28.5600,2.042
28.6000,2.099
28.6400,2.123
28.6800,1.981
28.7200,2.001
28.7600,2.017
28.8000,2.079
28.8400,2.005
28.8800,2.049
28.9200,2.127
28.9600,2.025
29.0000,1.948
29.0400,1.988
29.0800,2.053
29.1200,1.959
29.1600,2.038
29.2000,2.007
29.2400,2.032
29.2800,1.965
29.3200,2.026
29.3600,2.047
29.4000,1.965
29.4400,2.003
29.4800,1.932
29.5200,1.903
29.5600,1.957
29.6000,1.979
29.6400,1.982
29.6800,1.978
29.7200,2.001
29.7600,1.969
29.8000,2.010
29.8400,1.951
29.8800,2.007
29.9200,1.910
29.9600,1.887
30.0000,1.901
30.0400,1.924
30.0800,1.873
30.1200,1.960
30.1600,1.981
30.2000,1.893
30.2400,1.914
30.2800,1.930
30.3200,1.901
30.3600,1.855
30.4000,1.820
30.4400,1.937
30.4800,1.901
30.5200,1.849
30.5600,1.944
30.6000,1.930
30.6400,1.924
30.6800,1.962
30.7200,1.849
30.7600,1.910
30.8000,1.853
30.8400,1.935
30.8800,1.834
30.9200,1.921
30.9600,1.908
31.0000,1.851
31.0400,1.947
31.0800,1.851
31.1200,1.959
31.1600,1.883
31.2000,1.866
31.2400,1.810
31.2800,1.894
31.3200,1.886
31.3600,1.904
31.4000,1.862
31.4400,1.888
31.4800,1.872
31.5200,1.908
31.5600,1.917
31.6000,1.893
31.6400,1.933
31.6800,1.941
31.7200,2.102
31.7600,2.228
31.8000,2.253
31.8400,2.356
31.8800,2.577
31.9200,2.694
31.9600,2.867
32.0000,2.840
32.0400,2.805
32.0800,2.725
32.1200,2.526
32.1600,2.399
32.2000,2.278
32.2400,2.273
32.2800,2.174
32.3200,2.118
32.3600,2.110
32.4000,2.017
32.4400,1.971
32.4800,1.820
32.5200,1.879
32.5600,1.829
32.6000,1.880
32.6400,1.894
32.6800,1.807
32.7200,1.776
32.7600,1.823
32.8000,1.795
32.8400,1.750
32.8800,1.802
32.9200,1.746
32.9600,1.751
33.0000,1.859
33.0400,1.744
33.0800,1.707
33.1200,1.750
33.1600,1.712
33.2000,1.725
33.2400,1.671
33.2800,1.692
33.3200,1.687
33.3600,1.760
33.4000,1.802
33.4400,1.697
33.4800,1.676
33.5200,1.672
33.5600,1.680
33.6000,1.720
33.6400,1.713
33.6800,1.615
33.7200,1.591
33.7600,1.710
33.8000,1.651
33.8400,1.580
33.8800,1.637
33.9200,1.710
33.9600,1.686
34.0000,1.686
34.0400,1.655
34.0800,1.657
34.1200,1.653
34.1600,1.583
34.2000,1.642
34.2400,1.600
34.2800,1.650
34.3200,1.634
34.3600,1.633
34.4000,1.590
34.4400,1.589
34.4800,1.624
34.5200,1.589
34.5600,1.642
34.6000,1.605
34.6400,1.614
34.6800,1.597
34.7200,1.524
34.7600,1.571
34.8000,1.589
34.8400,1.566
34.8800,1.582
34.9200,1.591
34.9600,1.563
35.0000,1.609
35.0400,1.639
35.0800,1.680
35.1200,1.574
35.1600,1.565
35.2000,1.604
35.2400,1.551
35.2800,1.566
35.3200,1.565
35.3600,1.524
35.4000,1.556
35.4400,1.530
35.4800,1.547
35.5200,1.576
35.5600,1.542
35.6000,1.526
35.6400,1.565
35.6800,1.532
35.7200,1.572
35.7600,1.513
35.8000,1.508
35.8400,1.559
35.8800,1.480
35.9200,1.491
35.9600,1.560
36.0000,1.523
36.0400,1.547
36.0800,1.479
36.1200,1.518
36.1600,1.455
36.2000,1.519
36.2400,1.520
36.2800,1.583
36.3200,1.449
36.3600,1.527
36.4000,1.482
36.4400,1.449
36.4800,1.485
36.5200,1.560
36.5600,1.466
36.6000,1.388
36.6400,1.480
36.6800,1.505
36.7200,1.455
36.7600,1.490
36.8000,1.454
36.8400,1.495
36.8800,1.482
36.9200,1.428
36.9600,1.459
37.0000,1.451
37.0400,1.453
37.0800,1.385
37.1200,1.439
37.1600,1.520
37.2000,1.451
37.2400,1.454
37.2800,1.419
37.3200,1.461
37.3600,1.453
37.4000,1.459
37.4400,1.457
37.4800,1.502
37.5200,1.428
37.5600,1.460
37.6000,1.401
37.6400,1.449
37.6800,1.453
37.7200,1.423
37.7600,1.386
37.8000,1.479
37.8400,1.458
37.8800,1.417
37.9200,1.452
37.9600,1.449
38.0000,1.433
38.0400,1.447
38.0800,1.398
38.1200,1.452
38.1600,1.435
38.2000,1.480
38.2400,1.428
38.2800,1.400
38.3200,1.470
38.3600,1.367
38.4000,1.380
38.4400,1.370
38.4800,1.464
38.5200,1.424
38.5600,1.492
38.6000,1.496
38.6400,1.465
38.6800,1.502
38.7200,1.481
38.7600,1.446
38.8000,1.492
38.8400,1.511
38.8800,1.474
38.9200,1.515
38.9600,1.549
39.0000,1.524
39.0400,1.562
39.0800,1.585
39.1200,1.598
39.1600,1.641
39.2000,1.662
39.2400,1.624
39.2800,1.693
39.3200,1.748
39.3600,1.852
39.4000,1.884
39.4400,2.021
39.4800,2.224
39.5200,2.298
39.5600,2.615
39.6000,3.091
39.6400,3.686
39.6800,4.601
39.7200,5.532
39.7600,6.328
39.8000,6.859
39.8400,7.256
39.8800,7.421
39.9200,7.589
39.9600,7.875
40.0000,8.259
40.0400,8.540
40.0800,8.805
40.1200,8.950
40.1600,9.359
40.2000,8.902
40.2400,8.501
40.2800,7.861
40.3200,7.146
40.3600,6.309
40.4000,5.562
40.4400,5.024
40.4800,4.210
40.5200,3.761
40.5600,3.323
40.6000,2.843
40.6400,2.644
40.6800,2.482
40.7200,2.229
40.7600,2.021
40.8000,1.975
40.8400,1.782
40.8800,1.688
40.9200,1.652
40.9600,1.540
41.0000,1.479
41.0400,1.501
41.0800,1.466
41.1200,1.433
41.1600,1.464
41.2000,1.373
41.2400,1.394
41.2800,1.424
41.3200,1.308
41.3600,1.314
41.4000,1.318
41.4400,1.381
41.4800,1.325
41.5200,1.274
41.5600,1.227
41.6000,1.283
41.6400,1.208
41.6800,1.229
41.7200,1.315
41.7600,1.280
41.8000,1.269
41.8400,1.294
41.8800,1.286
41.9200,1.166
41.9600,1.214
42.0000,1.252
42.0400,1.197
42.0800,1.191
42.1200,1.170
42.1600,1.198
42.2000,1.208
42.2400,1.225
42.2800,1.197
42.3200,1.164
42.3600,1.183
42.4000,1.151
42.4400,1.121
42.4800,1.126
42.5200,1.191
42.5600,1.177
42.6000,1.144
42.6400,1.178
42.6800,1.116
42.7200,1.147
42.7600,1.175
42.8000,1.147
42.8400,1.174
42.8800,1.152
42.9200,1.149
42.9600,1.113
43.0000,1.100
43.0400,1.153
43.0800,1.137
43.1200,1.160
43.1600,1.162
43.2000,1.133
43.2400,1.164
43.2800,1.148
43.3200,1.126
43.3600,1.030
43.4000,1.064
43.4400,1.156
43.4800,1.163
43.5200,1.050
43.5600,1.108
43.6000,1.140
43.6400,1.136
43.6800,1.059
43.7200,1.100
43.7600,1.111
43.8000,1.070
43.8400,1.062
43.8800,1.090
43.9200,1.057
43.9600,1.066
44.0000,1.112
44.0400,1.125
44.0800,1.037
44.1200,1.045
44.1600,1.067
44.2000,1.087
44.2400,1.121
44.2800,1.083
44.3200,1.030
44.3600,1.108
44.4000,1.118
44.4400,1.117
44.4800,1.119
44.5200,1.143
44.5600,1.121
44.6000,1.056
44.6400,1.062
44.6800,1.111
44.7200,1.088
44.7600,1.083
44.8000,1.075
44.8400,1.092
44.8800,1.096
44.9200,1.150
44.9600,1.093
45.0000,1.042
45.0400,1.049
45.0800,1.126
45.1200,1.146
45.1600,1.139
45.2000,1.171
45.2400,1.131
45.2800,1.170
45.3200,1.162
45.3600,1.211
45.4000,1.277
45.4400,1.342
45.4800,1.431
45.5200,1.490
45.5600,1.614
45.6000,1.773
45.6400,1.917
45.6800,2.079
45.7200,2.396
45.7600,2.589
45.8000,2.721
45.8400,3.000
45.8800,3.072
45.9200,3.081
45.9600,3.077
46.0000,3.040
46.0400,2.874
46.0800,2.707
46.1200,2.619
46.1600,2.545
46.2000,2.442
46.2400,2.329
46.2800,2.252
46.3200,2.174
46.3600,2.123
46.4000,1.990
46.4400,1.883
46.4800,1.772
46.5200,1.657
46.5600,1.636
46.6000,1.594
46.6400,1.514
46.6800,1.387
46.7200,1.423
46.7600,1.334
46.8000,1.282
46.8400,1.283
46.8800,1.230
46.9200,1.254
46.9600,1.176
47.0000,1.185
47.0400,1.197
47.0800,1.201
47.1200,1.161
47.1600,1.135
47.2000,1.168
47.2400,1.125
47.2800,1.105
47.3200,1.079
47.3600,1.092
47.4000,1.092
47.4400,1.080
47.4800,1.111
47.5200,1.067
47.5600,1.085
47.6000,1.034
47.6400,1.030
47.6800,1.131
47.7200,1.105
47.7600,1.108
47.8000,1.042
47.8400,1.045
47.8800,1.048
47.9200,1.038
47.9600,1.079
48.0000,1.077
48.0400,1.119
48.0800,1.124
48.1200,1.112
48.1600,1.121
48.2000,1.127
48.2400,1.116
48.2800,1.175
48.3200,1.185
48.3600,1.173
48.4000,1.096
48.4400,1.172
48.4800,1.128
48.5200,1.149
48.5600,1.145
48.6000,1.184
48.6400,1.151
48.6800,1.149
48.7200,1.147
48.7600,1.128
48.8000,1.086
48.8400,1.156
48.8800,1.165
48.9200,1.131
48.9600,1.059
49.0000,1.110
49.0400,1.089
49.0800,1.034
49.1200,1.034
49.1600,1.064
49.2000,0.963
49.2400,1.012
49.2800,0.986
49.3200,0.974
49.3600,0.998
49.4000,0.975
49.4400,0.972
49.4800,0.963
49.5200,0.927
49.5600,0.925
49.6000,0.973
49.6400,0.922
49.6800,0.893
49.7200,0.881
49.7600,0.913
49.8000,0.873
49.8400,0.894
49.8800,0.893
49.9200,0.823
49.9600,0.888
50.0000,0.866
50.0400,0.841
50.0800,0.860
50.1200,0.829
50.1600,0.850
50.2000,0.827
50.2400,0.829
50.2800,0.829
50.3200,0.845
50.3600,0.835
50.4000,0.815
50.4400,0.750
50.4800,0.836
50.5200,0.806
50.5600,0.816
50.6000,0.798
50.6400,0.855
50.6800,0.811
50.7200,0.809
50.7600,0.835
50.8000,0.773
50.8400,0.746
50.8800,0.805
50.9200,0.821
50.9600,0.805
51.0000,0.799
51.0400,0.785
51.0800,0.783
51.1200,0.775
51.1600,0.787
51.2000,0.837
51.2400,0.777
51.2800,0.818
51.3200,0.783
51.3600,0.803
51.4000,0.754
51.4400,0.783
51.4800,0.795
51.5200,0.843
51.5600,0.791
51.6000,0.772
51.6400,0.793
51.6800,0.797
51.7200,0.834
51.7600,0.795
51.8000,0.873
51.8400,0.845
51.8800,0.850
51.9200,0.916
51.9600,0.850
52.0000,0.906
52.0400,0.914
52.0800,0.959
52.1200,0.980
52.1600,0.995
52.2000,0.997
52.2400,0.979
52.2800,0.971
52.3200,0.989
52.3600,1.004
52.4000,1.024
52.4400,0.989
52.4800,0.935
52.5200,0.887
52.5600,0.870
52.6000,0.913
52.6400,0.883
52.6800,0.786
52.7200,0.814
52.7600,0.790
52.8000,0.800
52.8400,0.819
52.8800,0.801
52.9200,0.742
52.9600,0.792
53.0000,0.770
53.0400,0.732
53.0800,0.749
53.1200,0.809
53.1600,0.764
53.2000,0.741
53.2400,0.730
53.2800,0.739
53.3200,0.748
53.3600,0.753
53.4000,0.734
53.4400,0.741
53.4800,0.711
53.5200,0.788
53.5600,0.693
53.6000,0.768
53.6400,0.710
53.6800,0.674
53.7200,0.685
53.7600,0.751
53.8000,0.716
53.8400,0.714
53.8800,0.717
53.9200,0.675
53.9600,0.686
54.0000,0.689
54.0400,0.715
54.0800,0.706
54.1200,0.743
54.1600,0.749
54.2000,0.707
54.2400,0.666
54.2800,0.667
54.3200,0.784
54.3600,0.713
54.4000,0.662
54.4400,0.715
54.4800,0.680
54.5200,0.651
54.5600,0.699
54.6000,0.694
54.6400,0.645
54.6800,0.688
54.7200,0.683
54.7600,0.698
54.8000,0.752
54.8400,0.695
54.8800,0.694
54.9200,0.693
54.9600,0.696
55.0000,0.665
55.0400,0.709
55.0800,0.676
55.1200,0.682
55.1600,0.737
55.2000,0.693
55.2400,0.665
55.2800,0.677
55.3200,0.685
55.3600,0.656
55.4000,0.660
55.4400,0.661
55.4800,0.672
55.5200,0.681
55.5600,0.683
55.6000,0.729
55.6400,0.634
55.6800,0.661
55.7200,0.663
55.7600,0.619
55.8000,0.671
55.8400,0.679
55.8800,0.706
55.9200,0.659
55.9600,0.633
56.0000,0.656
56.0400,0.649
56.0800,0.642
56.1200,0.698
56.1600,0.656
56.2000,0.706
56.2400,0.676
56.2800,0.671
56.3200,0.666
56.3600,0.638
56.4000,0.663
56.4400,0.677
56.4800,0.647
56.5200,0.663
56.5600,0.642
56.6000,0.685
56.6400,0.659
56.6800,0.639
56.7200,0.667
56.7600,0.691
56.8000,0.631
56.8400,0.666
56.8800,0.656
56.9200,0.692
56.9600,0.644
57.0000,0.631
57.0400,0.646
57.0800,0.624
57.1200,0.670
57.1600,0.655
57.2000,0.712
57.2400,0.664
57.2800,0.663
57.3200,0.644
57.3600,0.661
57.4000,0.649
57.4400,0.651
57.4800,0.706
57.5200,0.738
57.5600,0.656
57.6000,0.655
57.6400,0.688
57.6800,0.649
57.7200,0.664
57.7600,0.663
57.8000,0.726
57.8400,0.653
57.8800,0.666
57.9200,0.635
57.9600,0.647
58.0000,0.680
58.0400,0.610
58.0800,0.666
58.1200,0.667
58.1600,0.654
58.2000,0.677
58.2400,0.695
58.2800,0.665
58.3200,0.645
58.3600,0.632
58.4000,0.660
58.4400,0.665
58.4800,0.641
58.5200,0.645
58.5600,0.652
58.6000,0.603
58.6400,0.600
58.6800,0.646
58.7200,0.667
58.7600,0.665
58.8000,0.643
58.8400,0.671
58.8800,0.691
58.9200,0.684
58.9600,0.663
59.0000,0.654
59.0400,0.681
59.0800,0.667
59.1200,0.652
59.1600,0.665
59.2000,0.713
59.2400,0.691
59.2800,0.656
59.3200,0.625
59.3600,0.665
59.4000,0.690
59.4400,0.632
59.4800,0.677
59.5200,0.688
59.5600,0.714
59.6000,0.693
59.6400,0.642
59.6800,0.643
59.7200,0.658
59.7600,0.662
59.8000,0.665
59.8400,0.660
59.8800,0.638
59.9200,0.651
59.9600,0.659
60.0000,0.621
60.0400,0.629
60.0800,0.637
60.1200,0.629
60.1600,0.606
60.2000,0.634
60.2400,0.644
60.2800,0.623
60.3200,0.599
60.3600,0.631
60.4000,0.618
60.4400,0.596
60.4800,0.591
60.5200,0.610
60.5600,0.569
60.6000,0.567
60.6400,0.620
60.6800,0.587
60.7200,0.580
60.7600,0.594
60.8000,0.640
60.8400,0.588
60.8800,0.591
60.9200,0.574
60.9600,0.577
61.0000,0.569
61.0400,0.597
61.0800,0.576
61.1200,0.572
61.1600,0.601
61.2000,0.526
61.2400,0.584
61.2800,0.577
61.3200,0.557
61.3600,0.564
61.4000,0.595
61.4400,0.520
61.4800,0.603
61.5200,0.551
61.5600,0.600
61.6000,0.578
61.6400,0.664
61.6800,0.675
61.7200,0.620
61.7600,0.574
61.8000,0.591
61.8400,0.575
61.8800,0.623
61.9200,0.561
61.9600,0.585
62.0000,0.572
62.0400,0.561
62.0800,0.572
62.1200,0.561
62.1600,0.551
62.2000,0.548
62.2400,0.555
62.2800,0.534
62.3200,0.602
62.3600,0.614
62.4000,0.555
62.4400,0.548
62.4800,0.535
62.5200,0.607
62.5600,0.598
62.6000,0.568
62.6400,0.571
62.6800,0.576
62.7200,0.553
62.7600,0.590
62.8000,0.579
62.8400,0.518
62.8800,0.523
62.9200,0.535
62.9600,0.559
63.0000,0.587
63.0400,0.536
63.0800,0.577
63.1200,0.553
63.1600,0.574
63.2000,0.584
63.2400,0.543
63.2800,0.576
63.3200,0.542
63.3600,0.596
63.4000,0.559
63.4400,0.541
63.4800,0.555
63.5200,0.557
63.5600,0.548
63.6000,0.598
63.6400,0.542
63.6800,0.522
63.7200,0.565
63.7600,0.555
63.8000,0.564
63.8400,0.608
63.8800,0.565
63.9200,0.618
63.9600,0.573
64.0000,0.552
64.0400,0.579
64.0800,0.592
64.1200,0.598
64.1600,0.568
64.2000,0.550
64.2400,0.607
64.2800,0.545
64.3200,0.554
64.3600,0.569
64.4000,0.553
64.4400,0.577
64.4800,0.613
64.5200,0.600
64.5600,0.623
64.6000,0.540
64.6400,0.588
64.6800,0.564
64.7200,0.639
64.7600,0.618
64.8000,0.625
64.8400,0.638
64.8800,0.606
64.9200,0.637
64.9600,0.632
65.0000,0.623
65.0400,0.627
65.0800,0.640
65.1200,0.649
65.1600,0.655
65.2000,0.634
65.2400,0.645
65.2800,0.655
65.3200,0.681
65.3600,0.618
65.4000,0.630
65.4400,0.643
65.4800,0.695
65.5200,0.667
65.5600,0.656
65.6000,0.681
65.6400,0.729
65.6800,0.707
65.7200,0.677
65.7600,0.707
65.8000,0.749
65.8400,0.721
65.8800,0.762
65.9200,0.759
65.9600,0.718
66.0000,0.754
66.0400,0.760
66.0800,0.763
66.1200,0.731
66.1600,0.774
66.2000,0.761
66.2400,0.854
66.2800,0.786
66.3200,0.875
66.3600,0.897
66.4000,0.881
66.4400,0.930
66.4800,0.903
66.5200,0.977
66.5600,1.029
66.6000,1.008
66.6400,1.096
66.6800,1.135
66.7200,1.189
66.7600,1.242
66.8000,1.240
66.8400,1.321
66.8800,1.313
66.9200,1.292
66.9600,1.398
67.0000,1.419
67.0400,1.377
67.0800,1.386
67.1200,1.433
67.1600,1.464
67.2000,1.355
67.2400,1.480
67.2800,1.465
67.3200,1.568
67.3600,1.618
67.4000,1.687
67.4400,1.574
67.4800,1.679
67.5200,1.727
67.5600,1.775
67.6000,1.637
67.6400,1.769
67.6800,1.777
67.7200,1.741
67.7600,1.809
67.8000,1.768
67.8400,1.778
67.8800,1.748
67.9200,1.761
67.9600,1.873
68.0000,1.788
68.0400,1.819
68.0800,1.825
68.1200,1.887
68.1600,1.992
68.2000,2.016
68.2400,2.041
68.2800,2.213
68.3200,2.129
68.3600,2.245
68.4000,2.419
68.4400,2.498
68.4800,2.526
68.5200,2.708
68.5600,2.843
68.6000,3.062
68.6400,3.224
68.6800,3.739
68.7200,4.498
68.7600,5.696
68.8000,6.759
68.8400,7.226
68.8800,7.256
68.9200,7.990
68.9600,9.886
69.0000,14.827
69.0400,28.826
69.0800,108.706
69.1200,390.122
69.1600,440.917
69.2000,162.074
69.2400,49.684
69.2800,77.282
69.3200,209.591
69.3600,219.644
69.4000,79.562
69.4400,22.465
69.4800,11.666
69.5200,8.169
69.5600,6.547
69.6000,5.422
69.6400,4.663
69.6800,4.238
69.7200,3.789
69.7600,3.506
69.8000,3.222
69.8400,3.068
69.8800,2.812
69.9200,2.624
69.9600,2.544
70.0000,2.374
70.0400,2.222
70.0800,2.263
70.1200,2.149
70.1600,2.045
70.2000,1.964
70.2400,1.931
70.2800,1.925
70.3200,1.818
70.3600,1.735
70.4000,1.740
70.4400,1.684
70.4800,1.637
70.5200,1.582
70.5600,1.476
70.6000,1.472
70.6400,1.306
70.6800,1.402
70.7200,1.383
70.7600,1.331
70.8000,1.306
70.8400,1.241
70.8800,1.140
70.9200,1.155
70.9600,1.226
71.0000,1.140
71.0400,1.090
71.0800,1.104
71.1200,1.052
71.1600,1.031
71.2000,1.000
71.2400,0.973
71.2800,0.998
71.3200,0.942
71.3600,0.956
71.4000,0.943
71.4400,0.878
71.4800,0.940
71.5200,0.855
71.5600,0.905
71.6000,0.880
71.6400,0.880
71.6800,0.878
71.7200,0.792
71.7600,0.857
71.8000,0.855
71.8400,0.834
71.8800,0.797
71.9200,0.746
71.9600,0.796
72.0000,0.798
72.0400,0.739
72.0800,0.795
72.1200,0.773
72.1600,0.729
72.2000,0.741
72.2400,0.692
72.2800,0.737
72.3200,0.619
72.3600,0.684
72.4000,0.651
72.4400,0.640
72.4800,0.631
72.5200,0.662
72.5600,0.674
72.6000,0.581
72.6400,0.585
72.6800,0.589
72.7200,0.558
72.7600,0.572
72.8000,0.600
72.8400,0.573
72.8800,0.565
72.9200,0.525
72.9600,0.568
73.0000,0.543
73.0400,0.521
73.0800,0.536
73.1200,0.538
73.1600,0.530
73.2000,0.527
73.2400,0.511
73.2800,0.528
73.3200,0.512
73.3600,0.488
73.4000,0.508
73.4400,0.456
73.4800,0.515
73.5200,0.485
73.5600,0.470
73.6000,0.469
73.6400,0.473
73.6800,0.485
73.7200,0.477
73.7600,0.499
73.8000,0.440
73.8400,0.453
73.8800,0.446
73.9200,0.466
73.9600,0.433
74.0000,0.452
74.0400,0.442
74.0800,0.444
74.1200,0.433
74.1600,0.459
74.2000,0.458
74.2400,0.462
74.2800,0.434
74.3200,0.471
74.3600,0.413
74.4000,0.460
74.4400,0.448
74.4800,0.423
74.5200,0.395
74.5600,0.397
74.6000,0.401
74.6400,0.438
74.6800,0.470
74.7200,0.425
74.7600,0.410
74.8000,0.402
74.8400,0.384
74.8800,0.381
74.9200,0.410
74.9600,0.405
75.0000,0.421
75.0400,0.416
75.0800,0.434
75.1200,0.448
75.1600,0.391
75.2000,0.411
75.2400,0.414
75.2800,0.410
75.3200,0.413
75.3600,0.424
75.4000,0.403
75.4400,0.424
75.4800,0.445
75.5200,0.395
75.5600,0.398
75.6000,0.398
75.6400,0.407
75.6800,0.417
75.7200,0.399
75.7600,0.401
75.8000,0.412
75.8400,0.419
75.8800,0.412
75.9200,0.438
75.9600,0.425
76.0000,0.394
76.0400,0.384
76.0800,0.427
76.1200,0.413
76.1600,0.429
76.2000,0.418
76.2400,0.420
76.2800,0.419
76.3200,0.372
76.3600,0.423
76.4000,0.396
76.4400,0.425
76.4800,0.357
76.5200,0.391
76.5600,0.410
76.6000,0.348
76.6400,0.394
76.6800,0.395
76.7200,0.373
76.7600,0.370
76.8000,0.398
76.8400,0.354
76.8800,0.365
76.9200,0.343
76.9600,0.351
77.0000,0.392
77.0400,0.407
77.0800,0.337
77.1200,0.369
77.1600,0.376
77.2000,0.354
77.2400,0.357
77.2800,0.341
77.3200,0.336
77.3600,0.372
77.4000,0.378
77.4400,0.331
77.4800,0.373
77.5200,0.337
77.5600,0.357
77.6000,0.352
77.6400,0.354
77.6800,0.339
77.7200,0.332
77.7600,0.344
77.8000,0.331
77.8400,0.334
77.8800,0.353
77.9200,0.334
77.9600,0.319
78.0000,0.306
78.0400,0.342
78.0800,0.375
78.1200,0.357
78.1600,0.366
78.2000,0.341
78.2400,0.369
78.2800,0.346
78.3200,0.331
78.3600,0.347
78.4000,0.346
78.4400,0.340
78.4800,0.345
78.5200,0.321
78.5600,0.322
78.6000,0.363
78.6400,0.335
78.6800,0.354
78.7200,0.304
78.7600,0.321
78.8000,0.325
78.8400,0.339
78.8800,0.328
78.9200,0.357
78.9600,0.335
79.0000,0.340
79.0400,0.333
79.0800,0.376
79.1200,0.345
79.1600,0.364
79.2000,0.366
79.2400,0.348
79.2800,0.352
79.3200,0.366
79.3600,0.343
79.4000,0.334
79.4400,0.317
79.4800,0.303
79.5200,0.344
79.5600,0.331
79.6000,0.313
79.6400,0.334
79.6800,0.335
79.7200,0.365
79.7600,0.372
79.8000,0.345
79.8400,0.319
79.8800,0.323
79.9200,0.356
79.9600,0.334
80.0000,0.347
