theta,intensity
5.0000,5.930
5.0400,6.038
5.0800,6.045
5.1200,6.029
5.1600,5.879
5.2000,5.801
5.2400,5.894
5.2800,5.797
5.3200,5.775
5.3600,5.853
5.4000,5.720
5.4400,5.732
5.4800,5.683
5.5200,5.609
5.5600,5.662
5.6000,5.692
5.6400,5.664
5.6800,5.527
5.7200,5.551
5.7600,5.510
5.8000,5.465
5.8400,5.483
5.8800,5.409
5.9200,5.277
5.9600,5.158
6.0000,5.244
6.0400,5.156
6.0800,4.932
6.1200,4.817
6.1600,4.813
6.2000,4.802
6.2400,4.769
6.2800,4.610
6.3200,4.616
6.3600,4.593
6.4000,4.551
6.4400,4.545
6.4800,4.524
6.5200,4.362
6.5600,4.447
6.6000,4.316
6.6400,4.464
6.6800,4.375
6.7200,4.305
6.7600,4.270
6.8000,4.195
6.8400,4.160
6.8800,4.269
6.9200,4.205
6.9600,4.102
7.0000,4.143
7.0400,4.125
7.0800,4.141
7.1200,4.220
7.1600,4.043
7.2000,4.054
7.2400,4.068
7.2800,4.112
7.3200,4.034
7.3600,3.973
7.4000,4.003
7.4400,3.958
7.4800,3.995
7.5200,3.867
7.5600,4.000
7.6000,3.993
7.6400,3.920
7.6800,3.879
7.7200,3.977
7.7600,3.832
7.8000,3.860
7.8400,3.941
7.8800,3.853
7.9200,3.943
7.9600,3.822
8.0000,3.841
8.0400,3.764
8.0800,3.843
8.1200,3.798
8.1600,3.800
8.2000,3.781
8.2400,3.660
8.2800,3.790
8.3200,3.774
8.3600,3.803
8.4000,3.708
8.4400,3.775
8.4800,3.707
8.5200,3.672
8.5600,3.581
8.6000,3.767
8.6400,3.697
8.6800,3.715
8.7200,3.657
8.7600,3.598
8.8000,3.678
8.8400,3.521
8.8800,3.610
8.9200,3.602
8.9600,3.599
9.0000,3.647
9.0400,3.717
9.0800,3.533
9.1200,3.656
9.1600,3.565
9.2000,3.582
9.2400,3.637
9.2800,3.540
9.3200,3.525
9.3600,3.563
9.4000,3.475
9.4400,3.631
9.4800,3.507
9.5200,3.594
9.5600,3.528
9.6000,3.533
9.6400,3.559
9.6800,3.546
9.7200,3.522
9.7600,3.471
9.8000,3.514
9.8400,3.542
9.8800,3.489
9.9200,3.481
9.9600,3.492
10.0000,3.506
10.0400,3.483
10.0800,3.499
10.1200,3.439
10.1600,3.490
10.2000,3.510
10.2400,3.531
10.2800,3.511
10.3200,3.452
10.3600,3.455
10.4000,3.438
10.4400,3.429
10.4800,3.445
10.5200,3.443
10.5600,3.406
10.6000,3.388
10.6400,3.462
10.6800,3.479
10.7200,3.394
10.7600,3.481
10.8000,3.443
10.8400,3.422
10.8800,3.409
10.9200,3.432
10.9600,3.478
11.0000,3.431
11.0400,3.348
11.0800,3.266
11.1200,3.451
11.1600,3.295
11.2000,3.241
11.2400,3.383
11.2800,3.370
11.3200,3.390
11.3600,3.349
11.4000,3.280
11.4400,3.345
11.4800,3.473
11.5200,3.455
11.5600,3.321
11.6000,3.327
11.6400,3.365
11.6800,3.368
11.7200,3.342
11.7600,3.363
11.8000,3.372
11.8400,3.349
11.8800,3.410
11.9200,3.378
11.9600,3.299
12.0000,3.295
12.0400,3.343
12.0800,3.373
12.1200,3.293
12.1600,3.383
12.2000,3.265
12.2400,3.310
12.2800,3.342
12.3200,3.333
12.3600,3.256
12.4000,3.238
12.4400,3.341
12.4800,3.216
12.5200,3.272
12.5600,3.247
12.6000,3.236
12.6400,3.250
12.6800,3.230
12.7200,3.217
12.7600,3.263
12.8000,3.274
12.8400,3.283
12.8800,3.195
12.9200,3.255
12.9600,3.252
13.0000,3.248
13.0400,3.147
13.0800,3.177
13.1200,3.225
13.1600,3.180
13.2000,3.169
13.2400,3.242
13.2800,3.147
13.3200,3.195
13.3600,3.290
13.4000,3.283
13.4400,3.138
13.4800,3.200
13.5200,3.126
13.5600,3.198
13.6000,3.190
13.6400,3.169
13.6800,3.240
13.7200,3.124
13.7600,2.983
13.8000,3.091
13.8400,3.143
13.8800,3.130
13.9200,3.171
13.9600,3.041
14.0000,3.168
14.0400,3.055
14.0800,3.194
14.1200,3.129
14.1600,3.172
14.2000,3.133
14.2400,3.060
14.2800,3.065
14.3200,3.099
14.3600,3.078
14.4000,3.145
14.4400,3.049
14.4800,3.204
14.5200,3.116
14.5600,3.062
14.6000,3.088
14.6400,3.139
14.6800,3.112
14.7200,3.006
14.7600,2.998
14.8000,3.038
14.8400,3.019
14.8800,3.060
14.9200,3.007
14.9600,3.046
15.0000,3.094
15.0400,3.121
15.0800,3.051
15.1200,3.097
15.1600,3.089
15.2000,3.019
15.2400,3.076
15.2800,3.038
15.3200,2.971
15.3600,2.997
15.4000,3.088
15.4400,3.034
15.4800,2.918
15.5200,3.001
15.5600,3.029
15.6000,3.047
15.6400,2.955
15.6800,3.009
15.7200,3.032
15.7600,2.927
15.8000,2.901
15.8400,2.988
15.8800,2.929
15.9200,3.013
15.9600,2.964
16.0000,2.979
16.0400,2.981
16.0800,2.943
16.1200,2.936
16.1600,2.970
16.2000,2.930
16.2400,2.951
16.2800,2.843
16.3200,2.987
16.3600,2.912
16.4000,2.905
16.4400,2.927
16.4800,2.903
16.5200,2.970
16.5600,2.883
16.6000,2.955
16.6400,2.984
16.6800,2.923
16.7200,2.901
16.7600,2.936
16.8000,2.902
16.8400,2.919
16.8800,2.936
16.9200,2.929
16.9600,2.818
17.0000,2.918
17.0400,2.873
17.0800,2.837
17.1200,2.838
17.1600,2.882
17.2000,2.833
17.2400,2.837
17.2800,2.776
17.3200,2.843
17.3600,2.857
17.4000,2.922
17.4400,2.869
17.4800,2.796
17.5200,2.865
17.5600,2.877
17.6000,2.764
17.6400,2.831
17.6800,2.890
17.7200,2.783
17.7600,2.737
17.8000,2.790
17.8400,2.793
17.8800,2.818
17.9200,2.820
17.9600,2.825
18.0000,2.872
18.0400,2.802
18.0800,2.796
18.1200,2.787
18.1600,2.721
18.2000,2.693
18.2400,2.757
18.2800,2.742
18.3200,2.725
18.3600,2.743
18.4000,2.717
18.4400,2.735
18.4800,2.784
18.5200,2.725
18.5600,2.788
18.6000,2.809
18.6400,2.729
18.6800,2.769
18.7200,2.675
18.7600,2.732
18.8000,2.743
18.8400,2.747
18.8800,2.719
18.9200,2.695
18.9600,2.736
19.0000,2.736
19.0400,2.732
19.0800,2.674
19.1200,2.688
19.1600,2.702
19.2000,2.755
19.2400,2.700
19.2800,2.716
19.3200,2.697
19.3600,2.641
19.4000,2.688
19.4400,2.713
19.4800,2.656
19.5200,2.630
19.5600,2.661
19.6000,2.623
19.6400,2.642
19.6800,2.695
19.7200,2.630
19.7600,2.632
19.8000,2.632
19.8400,2.635
19.8800,2.641
19.9200,2.577
19.9600,2.593
20.0000,2.663
20.0400,2.575
20.0800,2.556
20.1200,2.673
20.1600,2.731
20.2000,2.592
20.2400,2.669
20.2800,2.575
20.3200,2.675
20.3600,2.681
20.4000,2.549
20.4400,2.616
20.4800,2.540
20.5200,2.564
20.5600,2.574
20.6000,2.498
20.6400,2.588
20.6800,2.547
20.7200,2.595
20.7600,2.551
20.8000,2.560
20.8400,2.594
20.8800,2.524
20.9200,2.573
20.9600,2.480
21.0000,2.510
21.0400,2.555
21.0800,2.589
21.1200,2.492
21.1600,2.474
21.2000,2.526
21.2400,2.374
21.2800,2.494
21.3200,2.461
21.3600,2.395
21.4000,2.438
21.4400,2.424
21.4800,2.473
21.5200,2.526
21.5600,2.528
21.6000,2.434
21.6400,2.420
21.6800,2.490
21.7200,2.536
21.7600,2.434
21.8000,2.432
21.8400,2.484
21.8800,2.493
21.9200,2.441
21.9600,2.396
22.0000,2.490
22.0400,2.534
22.0800,2.497
22.1200,2.454
22.1600,2.418
22.2000,2.400
22.2400,2.444
22.2800,2.453
22.3200,2.447
22.3600,2.386
22.4000,2.330
22.4400,2.298
22.4800,2.461
22.5200,2.286
22.5600,2.348
22.6000,2.355
22.6400,2.476
22.6800,2.433
22.7200,2.335
22.7600,2.313
22.8000,2.374
22.8400,2.425
22.8800,2.405
22.9200,2.355
22.9600,2.415
23.0000,2.442
23.0400,2.305
23.0800,2.371
23.1200,2.443
23.1600,2.379
23.2000,2.324
23.2400,2.398
23.2800,2.328
23.3200,2.257
23.3600,2.260
23.4000,2.337
23.4400,2.333
23.4800,2.333
23.5200,2.277
23.5600,2.279
23.6000,2.276
23.6400,2.337
23.6800,2.395
23.7200,2.330
23.7600,2.281
23.8000,2.250
23.8400,2.284
23.8800,2.305
23.9200,2.350
23.9600,2.268
24.0000,2.197
24.0400,2.256
24.0800,2.255
24.1200,2.322
24.1600,2.247
24.2000,2.316
24.2400,2.222
24.2800,2.295
24.3200,2.219
24.3600,2.281
24.4000,2.271
24.4400,2.145
24.4800,2.252
24.5200,2.249
24.5600,2.314
24.6000,2.274
24.6400,2.152
24.6800,2.257
24.7200,2.237
24.7600,2.175
24.8000,2.209
24.8400,2.225
24.8800,2.191
24.9200,2.181
24.9600,2.134
25.0000,2.120
25.0400,2.288
25.0800,2.276
25.1200,2.160
25.1600,2.143
25.2000,2.123
25.2400,2.159
25.2800,2.239
25.3200,2.111
25.3600,2.111
25.4000,2.166
25.4400,2.211
25.4800,2.207
25.5200,2.102
25.5600,2.203
25.6000,2.110
25.6400,2.100
25.6800,2.182
25.7200,2.155
25.7600,2.117
25.8000,2.124
25.8400,2.101
25.8800,2.072
25.9200,2.137
25.9600,2.123
26.0000,2.067
26.0400,2.091
26.0800,2.096
26.1200,2.044
26.1600,2.150
26.2000,2.141
26.2400,2.082
26.2800,2.118
26.3200,2.123
26.3600,2.117
26.4000,1.991
26.4400,1.970
26.4800,2.069
26.5200,2.029
26.5600,2.082
26.6000,2.122
26.6400,2.030
26.6800,2.135
26.7200,2.044
26.7600,2.030
26.8000,2.059
26.8400,1.959
26.8800,2.036
26.9200,1.974
26.9600,2.078
27.0000,2.047
27.0400,2.095
27.0800,1.992
27.1200,2.014
27.1600,1.952
27.2000,2.078
27.2400,2.029
27.2800,2.025
27.3200,1.977
27.3600,2.002
27.4000,2.026
27.4400,2.011
27.4800,1.973
27.5200,2.025
27.5600,2.041
27.6000,1.970
27.6400,2.011
27.6800,2.056
27.7200,2.023
27.7600,1.925
27.8000,1.956
27.8400,2.001
27.8800,2.040
27.9200,1.991
27.9600,1.981
28.0000,1.962
28.0400,1.967
28.0800,1.928
28.1200,1.958
28.1600,1.936
28.2000,1.900
28.2400,1.855
28.2800,1.929
28.3200,1.920
28.3600,1.859
28.4000,1.962
28.4400,1.936
28.4800,1.965
28.5200,1.909
28.5600,1.910
28.6000,1.860
28.6400,1.947
28.6800,1.825
28.7200,1.913
28.7600,1.885
28.8000,1.857
28.8400,1.808
28.8800,1.883
28.9200,1.895
28.9600,1.831
29.0000,1.781
29.0400,1.872
29.0800,1.883
29.1200,1.850
29.1600,1.939
29.2000,1.871
29.2400,1.901
29.2800,1.886
29.3200,1.918
29.3600,1.792
29.4000,1.806
29.4400,1.880
29.4800,1.791
29.5200,1.802
29.5600,1.804
29.6000,1.850
29.6400,1.825
29.6800,1.795
29.7200,1.810
29.7600,1.789
29.8000,1.835
29.8400,1.812
29.8800,1.768
29.9200,1.746
29.9600,1.807
30.0000,1.671
30.0400,1.765
30.0800,1.794
30.1200,1.750
30.1600,1.795
30.2000,1.839
30.2400,1.744
30.2800,1.795
30.3200,1.802
30.3600,1.672
30.4000,1.782
30.4400,1.746
30.4800,1.747
30.5200,1.856
30.5600,1.724
30.6000,1.794
30.6400,1.719
30.6800,1.699
30.7200,1.749
30.7600,1.722
30.8000,1.757
30.8400,1.684
30.8800,1.758
30.9200,1.731
30.9600,1.712
31.0000,1.686
31.0400,1.709
31.0800,1.711
31.1200,1.799
31.1600,1.644
31.2000,1.739
31.2400,1.706
31.2800,1.717
31.3200,1.682
31.3600,1.666
31.4000,1.682
31.4400,1.692
31.4800,1.611
31.5200,1.692
31.5600,1.598
31.6000,1.737
31.6400,1.667
31.6800,1.690
31.7200,1.678
31.7600,1.719
31.8000,1.715
31.8400,1.643
31.8800,1.654
31.9200,1.631
31.9600,1.673
32.0000,1.738
32.0400,1.659
32.0800,1.601
32.1200,1.674
32.1600,1.636
32.2000,1.660
32.2400,1.639
32.2800,1.634
32.3200,1.558
32.3600,1.629
32.4000,1.612
32.4400,1.651
32.4800,1.690
32.5200,1.604
32.5600,1.539
32.6000,1.566
32.6400,1.601
32.6800,1.607
32.7200,1.552
32.7600,1.627
32.8000,1.547
32.8400,1.567
32.8800,1.589
32.9200,1.596
32.9600,1.617
33.0000,1.605
33.0400,1.633
33.0800,1.558
33.1200,1.620
33.1600,1.567
33.2000,1.577
33.2400,1.523
33.2800,1.554
33.3200,1.617
33.3600,1.529
33.4000,1.703
33.4400,1.555
33.4800,1.602
33.5200,1.499
33.5600,1.631
33.6000,1.595
33.6400,1.596
33.6800,1.559
33.7200,1.601
33.7600,1.528
33.8000,1.536
33.8400,1.554
33.8800,1.562
33.9200,1.500
33.9600,1.481
34.0000,1.599
34.0400,1.577
34.0800,1.530
34.1200,1.569
34.1600,1.505
34.2000,1.509
34.2400,1.468
34.2800,1.513
34.3200,1.498
34.3600,1.494
34.4000,1.563
34.4400,1.499
34.4800,1.512
34.5200,1.488
34.5600,1.486
34.6000,1.501
34.6400,1.529
34.6800,1.515
34.7200,1.508
34.7600,1.419
34.8000,1.444
34.8400,1.548
34.8800,1.538
34.9200,1.502
34.9600,1.497
35.0000,1.447
35.0400,1.541
35.0800,1.548
35.1200,1.541
35.1600,1.491
35.2000,1.518
35.2400,1.492
35.2800,1.568
35.3200,1.540
35.3600,1.471
35.4000,1.472
35.4400,1.510
35.4800,1.503
35.5200,1.510
35.5600,1.524
35.6000,1.487
35.6400,1.474
35.6800,1.521
35.7200,1.474
35.7600,1.522
35.8000,1.490
35.8400,1.456
35.8800,1.463
35.9200,1.498
35.9600,1.418
36.0000,1.447
36.0400,1.481
36.0800,1.474
36.1200,1.517
36.1600,1.496
36.2000,1.497
36.2400,1.466
36.2800,1.452
36.3200,1.464
36.3600,1.510
36.4000,1.558
36.4400,1.517
36.4800,1.506
36.5200,1.595
36.5600,1.542
36.6000,1.572
36.6400,1.583
36.6800,1.514
36.7200,1.539
36.7600,1.579
36.8000,1.589
36.8400,1.605
36.8800,1.619
36.9200,1.611
36.9600,1.666
37.0000,1.595
37.0400,1.656
37.0800,1.598
37.1200,1.715
37.1600,1.587
37.2000,1.707
37.2400,1.726
37.2800,1.677
37.3200,1.730
37.3600,1.749
37.4000,1.768
37.4400,1.833
37.4800,1.824
37.5200,1.867
37.5600,1.891
37.6000,1.888
37.6400,1.972
37.6800,2.057
37.7200,2.128
37.7600,2.179
37.8000,2.169
37.8400,2.303
37.8800,2.440
37.9200,2.554
37.9600,2.741
38.0000,2.908
38.0400,3.107
38.0800,3.386
38.1200,3.670
38.1600,4.008
38.2000,4.450
38.2400,4.990
38.2800,5.520
38.3200,6.084
38.3600,6.808
38.4000,7.456
38.4400,8.250
38.4800,8.895
38.5200,9.751
38.5600,10.623
38.6000,11.486
38.6400,11.991
38.6800,11.915
38.7200,11.387
38.7600,10.298
38.8000,9.289
38.8400,8.086
38.8800,7.107
38.9200,6.229
38.9600,5.590
39.0000,5.084
39.0400,4.516
39.0800,4.316
39.1200,3.867
39.1600,3.628
39.2000,3.479
39.2400,3.299
39.2800,3.250
39.3200,3.052
39.3600,2.838
39.4000,2.864
39.4400,2.703
39.4800,2.656
39.5200,2.616
39.5600,2.540
39.6000,2.407
39.6400,2.349
39.6800,2.387
39.7200,2.266
39.7600,2.220
39.8000,2.216
39.8400,2.209
39.8800,2.107
39.9200,2.157
39.9600,2.135
40.0000,2.044
40.0400,2.004
40.0800,1.957
40.1200,1.890
40.1600,1.810
40.2000,1.840
40.2400,1.792
40.2800,1.781
40.3200,1.800
40.3600,1.707
40.4000,1.655
40.4400,1.617
40.4800,1.600
40.5200,1.587
40.5600,1.650
40.6000,1.523
40.6400,1.543
40.6800,1.525
40.7200,1.493
40.7600,1.470
40.8000,1.436
40.8400,1.441
40.8800,1.427
40.9200,1.496
40.9600,1.426
41.0000,1.320
41.0400,1.354
41.0800,1.377
41.1200,1.423
41.1600,1.427
41.2000,1.373
41.2400,1.378
41.2800,1.356
41.3200,1.344
41.3600,1.362
41.4000,1.375
41.4400,1.299
41.4800,1.338
41.5200,1.281
41.5600,1.340
41.6000,1.315
41.6400,1.302
41.6800,1.297
41.7200,1.283
41.7600,1.299
41.8000,1.319
41.8400,1.280
41.8800,1.327
41.9200,1.245
41.9600,1.291
42.0000,1.285
42.0400,1.299
42.0800,1.207
42.1200,1.297
42.1600,1.260
42.2000,1.243
42.2400,1.266
42.2800,1.286
42.3200,1.276
42.3600,1.243
42.4000,1.232
42.4400,1.273
42.4800,1.219
42.5200,1.238
42.5600,1.251
42.6000,1.240
42.6400,1.238
42.6800,1.316
42.7200,1.257
42.7600,1.275
42.8000,1.240
42.8400,1.259
42.8800,1.301
42.9200,1.292
42.9600,1.243
43.0000,1.325
43.0400,1.290
43.0800,1.262
43.1200,1.270
43.1600,1.315
43.2000,1.329
43.2400,1.285
43.2800,1.349
43.3200,1.342
43.3600,1.291
43.4000,1.293
43.4400,1.258
43.4800,1.319
43.5200,1.358
43.5600,1.353
43.6000,1.373
43.6400,1.419
43.6800,1.356
43.7200,1.427
43.7600,1.410
43.8000,1.455
43.8400,1.425
43.8800,1.489
43.9200,1.596
43.9600,1.538
44.0000,1.631
44.0400,1.641
44.0800,1.613
44.1200,1.750
44.1600,1.785
44.2000,1.785
44.2400,1.901
44.2800,1.958
44.3200,2.013
44.3600,2.114
44.4000,2.206
44.4400,2.247
44.4800,2.393
44.5200,2.388
44.5600,2.583
44.6000,2.654
44.6400,2.799
44.6800,2.886
44.7200,3.066
44.7600,3.141
44.8000,3.228
44.8400,3.331
44.8800,3.413
44.9200,3.564
44.9600,3.685
45.0000,3.652
45.0400,3.553
45.0800,3.413
45.1200,3.188
45.1600,3.010
45.2000,2.833
45.2400,2.590
45.2800,2.530
45.3200,2.381
45.3600,2.254
45.4000,2.087
45.4400,1.946
45.4800,1.975
45.5200,1.822
45.5600,1.774
45.6000,1.653
45.6400,1.633
45.6800,1.585
45.7200,1.566
45.7600,1.457
45.8000,1.442
45.8400,1.450
45.8800,1.389
45.9200,1.452
45.9600,1.375
46.0000,1.312
46.0400,1.334
46.0800,1.329
46.1200,1.305
46.1600,1.226
46.2000,1.258
46.2400,1.286
46.2800,1.236
46.3200,1.230
46.3600,1.235
46.4000,1.169
46.4400,1.185
46.4800,1.167
46.5200,1.210
46.5600,1.179
46.6000,1.147
46.6400,1.134
46.6800,1.073
46.7200,1.079
46.7600,1.069
46.8000,1.086
46.8400,1.039
46.8800,1.060
46.9200,1.031
46.9600,1.046
47.0000,0.972
47.0400,0.975
47.0800,1.065
47.1200,0.976
47.1600,0.966
47.2000,1.016
47.2400,0.986
47.2800,0.951
47.3200,0.996
47.3600,0.984
47.4000,0.964
47.4400,0.989
47.4800,0.944
47.5200,0.938
47.5600,0.920
47.6000,0.919
47.6400,0.932
47.6800,0.932
47.7200,0.890
47.7600,0.916
47.8000,0.945
47.8400,0.931
47.8800,0.877
47.9200,0.920
47.9600,0.882
48.0000,0.909
48.0400,0.877
48.0800,0.868
48.1200,0.878
48.1600,0.890
48.2000,0.866
48.2400,0.935
48.2800,0.904
48.3200,0.871
48.3600,0.873
48.4000,0.865
48.4400,0.856
48.4800,0.868
48.5200,0.832
48.5600,0.842
48.6000,0.867
48.6400,0.852
48.6800,0.840
48.7200,0.860
48.7600,0.880
48.8000,0.827
48.8400,0.855
48.8800,0.891
48.9200,0.803
48.9600,0.828
49.0000,0.793
49.0400,0.777
49.0800,0.776
49.1200,0.807
49.1600,0.779
49.2000,0.854
49.2400,0.783
49.2800,0.798
49.3200,0.766
49.3600,0.791
49.4000,0.885
49.4400,0.760
49.4800,0.803
49.5200,0.839
49.5600,0.795
49.6000,0.774
49.6400,0.813
49.6800,0.815
49.7200,0.828
49.7600,0.816
49.8000,0.765
49.8400,0.779
49.8800,0.806
49.9200,0.791
49.9600,0.819
50.0000,0.771
50.0400,0.829
50.0800,0.759
50.1200,0.779
50.1600,0.789
50.2000,0.811
50.2400,0.783
50.2800,0.804
50.3200,0.737
50.3600,0.711
50.4000,0.748
50.4400,0.778
50.4800,0.782
50.5200,0.756
50.5600,0.790
50.6000,0.766
50.6400,0.748
50.6800,0.737
50.7200,0.732
50.7600,0.753
50.8000,0.766
50.8400,0.743
50.8800,0.743
50.9200,0.758
50.9600,0.751
51.0000,0.764
51.0400,0.760
51.0800,0.775
51.1200,0.737
51.1600,0.745
51.2000,0.731
51.2400,0.751
51.2800,0.724
51.3200,0.757
51.3600,0.778
51.4000,0.724
51.4400,0.712
51.4800,0.770
51.5200,0.715
51.5600,0.770
51.6000,0.753
51.6400,0.758
51.6800,0.698
51.7200,0.762
51.7600,0.777
51.8000,0.759
51.8400,0.667
51.8800,0.716
51.9200,0.744
51.9600,0.753
52.0000,0.751
52.0400,0.731
52.0800,0.706
52.1200,0.724
52.1600,0.717
52.2000,0.737
52.2400,0.734
52.2800,0.741
52.3200,0.726
52.3600,0.737
52.4000,0.729
52.4400,0.730
52.4800,0.696
52.5200,0.686
52.5600,0.720
52.6000,0.704
52.6400,0.704
52.6800,0.688
52.7200,0.725
52.7600,0.752
52.8000,0.660
52.8400,0.657
52.8800,0.709
52.9200,0.716
52.9600,0.718
53.0000,0.643
53.0400,0.731
53.0800,0.701
53.1200,0.694
53.1600,0.690
53.2000,0.681
53.2400,0.669
53.2800,0.724
53.3200,0.718
53.3600,0.698
53.4000,0.685
53.4400,0.631
53.4800,0.673
53.5200,0.701
53.5600,0.639
53.6000,0.673
53.6400,0.697
53.6800,0.660
53.7200,0.673
53.7600,0.699
53.8000,0.683
53.8400,0.664
53.8800,0.662
53.9200,0.681
53.9600,0.674
54.0000,0.666
54.0400,0.658
54.0800,0.650
54.1200,0.673
54.1600,0.651
54.2000,0.659
54.2400,0.695
54.2800,0.671
54.3200,0.674
54.3600,0.690
54.4000,0.661
54.4400,0.673
54.4800,0.713
54.5200,0.655
54.5600,0.665
54.6000,0.618
54.6400,0.653
54.6800,0.640
54.7200,0.645
54.7600,0.638
54.8000,0.625
54.8400,0.653
54.8800,0.690
54.9200,0.714
54.9600,0.673
55.0000,0.647
55.0400,0.612
55.0800,0.648
55.1200,0.647
55.1600,0.652
55.2000,0.637
55.2400,0.647
55.2800,0.652
55.3200,0.672
55.3600,0.671
55.4000,0.646
55.4400,0.617
55.4800,0.628
55.5200,0.635
55.5600,0.659
55.6000,0.668
55.6400,0.643
55.6800,0.621
55.7200,0.618
55.7600,0.599
55.8000,0.590
55.8400,0.643
55.8800,0.616
55.9200,0.614
55.9600,0.588
56.0000,0.621
56.0400,0.649
56.0800,0.673
56.1200,0.650
56.1600,0.649
56.2000,0.617
56.2400,0.632
56.2800,0.606
56.3200,0.601
56.3600,0.623
56.4000,0.607
56.4400,0.598
56.4800,0.644
56.5200,0.609
56.5600,0.623
56.6000,0.624
56.6400,0.601
56.6800,0.608
56.7200,0.596
56.7600,0.614
56.8000,0.615
56.8400,0.620
56.8800,0.585
56.9200,0.653
56.9600,0.619
57.0000,0.599
57.0400,0.556
57.0800,0.582
57.1200,0.618
57.1600,0.644
57.2000,0.618
57.2400,0.597
57.2800,0.616
57.3200,0.627
57.3600,0.665
57.4000,0.545
57.4400,0.571
57.4800,0.577
57.5200,0.611
57.5600,0.562
57.6000,0.585
57.6400,0.589
57.6800,0.613
57.7200,0.569
57.7600,0.641
57.8000,0.604
57.8400,0.627
57.8800,0.608
57.9200,0.609
57.9600,0.612
58.0000,0.579
58.0400,0.577
58.0800,0.567
58.1200,0.569
58.1600,0.608
58.2000,0.598
58.2400,0.590
58.2800,0.586
58.3200,0.578
58.3600,0.585
58.4000,0.563
58.4400,0.578
58.4800,0.631
58.5200,0.570
58.5600,0.587
58.6000,0.549
58.6400,0.570
58.6800,0.562
58.7200,0.612
58.7600,0.561
58.8000,0.544
58.8400,0.557
58.8800,0.554
58.9200,0.571
58.9600,0.560
59.0000,0.590
59.0400,0.567
59.0800,0.604
59.1200,0.602
59.1600,0.605
59.2000,0.579
59.2400,0.609
59.2800,0.564
59.3200,0.571
59.3600,0.576
59.4000,0.544
59.4400,0.564
59.4800,0.588
59.5200,0.528
59.5600,0.543
59.6000,0.593
59.6400,0.599
59.6800,0.565
59.7200,0.537
59.7600,0.536
59.8000,0.548
59.8400,0.575
59.8800,0.580
59.9200,0.598
59.9600,0.562
60.0000,0.570
60.0400,0.548
60.0800,0.570
60.1200,0.581
60.1600,0.551
60.2000,0.589
60.2400,0.594
60.2800,0.515
60.3200,0.509
60.3600,0.527
60.4000,0.579
60.4400,0.530
60.4800,0.576
60.5200,0.568
60.5600,0.561
60.6000,0.572
60.6400,0.539
60.6800,0.538
60.7200,0.529
60.7600,0.568
60.8000,0.566
60.8400,0.559
60.8800,0.548
60.9200,0.565
60.9600,0.578
61.0000,0.548
61.0400,0.539
61.0800,0.560
61.1200,0.559
61.1600,0.556
61.2000,0.492
61.2400,0.545
61.2800,0.555
61.3200,0.576
61.3600,0.570
61.4000,0.544
61.4400,0.579
61.4800,0.529
61.5200,0.534
61.5600,0.539
61.6000,0.617
61.6400,0.573
61.6800,0.673
61.7200,0.658
61.7600,0.551
61.8000,0.577
61.8400,0.566
61.8800,0.530
61.9200,0.566
61.9600,0.538
62.0000,0.552
62.0400,0.593
62.0800,0.524
62.1200,0.544
62.1600,0.564
62.2000,0.550
62.2400,0.529
62.2800,0.525
62.3200,0.547
62.3600,0.539
62.4000,0.540
62.4400,0.544
62.4800,0.545
62.5200,0.563
62.5600,0.523
62.6000,0.563
62.6400,0.577
62.6800,0.558
62.7200,0.581
62.7600,0.518
62.8000,0.570
62.8400,0.553
62.8800,0.552
62.9200,0.592
62.9600,0.543
63.0000,0.544
63.0400,0.605
63.0800,0.554
63.1200,0.552
63.1600,0.558
63.2000,0.558
63.2400,0.588
63.2800,0.608
63.3200,0.596
63.3600,0.610
63.4000,0.579
63.4400,0.559
63.4800,0.567
63.5200,0.582
63.5600,0.590
63.6000,0.586
63.6400,0.571
63.6800,0.595
63.7200,0.582
63.7600,0.544
63.8000,0.584
63.8400,0.581
63.8800,0.617
63.9200,0.593
63.9600,0.648
64.0000,0.623
64.0400,0.642
64.0800,0.689
64.1200,0.640
64.1600,0.646
64.2000,0.671
64.2400,0.690
64.2800,0.707
64.3200,0.769
64.3600,0.750
64.4000,0.767
64.4400,0.811
64.4800,0.843
64.5200,0.876
64.5600,0.875
64.6000,0.933
64.6400,0.982
64.6800,0.981
64.7200,1.034
64.7600,1.014
64.8000,1.150
64.8400,1.101
64.8800,1.194
64.9200,1.182
64.9600,1.236
65.0000,1.194
65.0400,1.296
65.0800,1.378
65.1200,1.419
65.1600,1.450
65.2000,1.559
65.2400,1.623
65.2800,1.617
65.3200,1.744
65.3600,1.747
65.4000,1.800
65.4400,1.699
65.4800,1.782
65.5200,1.829
65.5600,1.731
65.6000,1.674
65.6400,1.555
65.6800,1.577
65.7200,1.432
65.7600,1.309
65.8000,1.381
65.8400,1.257
65.8800,1.226
65.9200,1.135
65.9600,1.123
66.0000,1.085
66.0400,1.088
66.0800,1.015
66.1200,1.012
66.1600,1.037
66.2000,0.969
66.2400,0.977
66.2800,0.944
66.3200,0.956
66.3600,0.933
66.4000,0.939
66.4400,0.976
66.4800,0.944
66.5200,0.932
66.5600,0.930
66.6000,0.853
66.6400,0.903
66.6800,0.925
66.7200,0.905
66.7600,0.882
66.8000,0.953
66.8400,0.951
66.8800,0.901
66.9200,0.943
66.9600,0.960
67.0000,0.970
67.0400,1.007
67.0800,0.950
67.1200,1.002
67.1600,1.001
67.2000,1.039
67.2400,1.038
67.2800,1.052
67.3200,1.033
67.3600,1.088
67.4000,1.109
67.4400,1.077
67.4800,1.100
67.5200,1.150
67.5600,1.150
67.6000,1.174
67.6400,1.175
67.6800,1.168
67.7200,1.210
67.7600,1.273
67.8000,1.209
67.8400,1.204
67.8800,1.332
67.9200,1.325
67.9600,1.331
68.0000,1.343
68.0400,1.433
68.0800,1.445
68.1200,1.475
68.1600,1.443
68.2000,1.573
68.2400,1.611
68.2800,1.674
68.3200,1.744
68.3600,1.741
68.4000,1.820
68.4400,1.873
68.4800,1.973
68.5200,2.091
68.5600,2.188
68.6000,2.301
68.6400,2.439
68.6800,2.821
68.7200,3.199
68.7600,4.046
68.8000,5.119
68.8400,5.877
68.8800,5.998
68.9200,6.239
68.9600,7.467
69.0000,10.633
69.0400,17.726
69.0800,41.749
69.1200,195.797
69.1600,400.305
69.2000,261.486
69.2400,69.745
69.2800,42.848
69.3200,118.274
69.3600,208.766
69.4000,129.871
69.4400,35.472
69.4800,13.762
69.5200,8.596
69.5600,6.465
69.6000,5.179
69.6400,4.504
69.6800,3.753
69.7200,3.462
69.7600,3.197
69.8000,2.861
69.8400,2.598
69.8800,2.518
69.9200,2.416
69.9600,2.305
70.0000,2.203
70.0400,2.041
70.0800,2.000
70.1200,1.901
70.1600,1.864
70.2000,1.818
70.2400,1.767
70.2800,1.620
70.3200,1.647
70.3600,1.583
70.4000,1.481
70.4400,1.486
70.4800,1.424
70.5200,1.374
70.5600,1.315
70.6000,1.284
70.6400,1.249
70.6800,1.263
70.7200,1.181
70.7600,1.198
70.8000,1.216
70.8400,1.183
70.8800,1.110
70.9200,1.085
70.9600,1.033
71.0000,1.048
71.0400,0.971
71.0800,0.995
71.1200,0.981
71.1600,0.979
71.2000,0.949
71.2400,0.929
71.2800,0.932
71.3200,0.875
71.3600,0.875
71.4000,0.833
71.4400,0.862
71.4800,0.812
71.5200,0.790
71.5600,0.738
71.6000,0.767
71.6400,0.723
71.6800,0.765
71.7200,0.756
71.7600,0.764
71.8000,0.717
71.8400,0.695
71.8800,0.705
71.9200,0.647
71.9600,0.651
72.0000,0.645
72.0400,0.657
72.0800,0.631
72.1200,0.631
72.1600,0.630
72.2000,0.631
72.2400,0.616
72.2800,0.600
72.3200,0.579
72.3600,0.586
72.4000,0.610
72.4400,0.547
72.4800,0.569
72.5200,0.591
72.5600,0.536
72.6000,0.561
72.6400,0.553
72.6800,0.513
72.7200,0.538
72.7600,0.505
72.8000,0.515
72.8400,0.514
72.8800,0.530
72.9200,0.500
72.9600,0.502
73.0000,0.529
73.0400,0.533
73.0800,0.510
73.1200,0.447
73.1600,0.486
73.2000,0.519
73.2400,0.496
73.2800,0.460
73.3200,0.463
73.3600,0.478
73.4000,0.477
73.4400,0.468
73.4800,0.454
73.5200,0.479
73.5600,0.435
73.6000,0.455
73.6400,0.418
73.6800,0.494
73.7200,0.432
73.7600,0.433
73.8000,0.448
73.8400,0.449
73.8800,0.461
73.9200,0.442
73.9600,0.421
74.0000,0.447
74.0400,0.412
74.0800,0.450
74.1200,0.478
74.1600,0.443
74.2000,0.441
74.2400,0.418
74.2800,0.424
74.3200,0.448
74.3600,0.424
74.4000,0.419
74.4400,0.443
74.4800,0.407
74.5200,0.419
74.5600,0.416
74.6000,0.440
74.6400,0.418
74.6800,0.403
74.7200,0.402
74.7600,0.427
74.8000,0.379
74.8400,0.413
74.8800,0.395
74.9200,0.376
74.9600,0.392
75.0000,0.405
75.0400,0.418
75.0800,0.413
75.1200,0.414
75.1600,0.390
75.2000,0.395
75.2400,0.413
75.2800,0.382
75.3200,0.392
75.3600,0.385
75.4000,0.410
75.4400,0.430
75.4800,0.384
75.5200,0.426
75.5600,0.413
75.6000,0.400
75.6400,0.388
75.6800,0.409
75.7200,0.420
75.7600,0.377
75.8000,0.405
75.8400,0.420
75.8800,0.382
75.9200,0.400
75.9600,0.393
76.0000,0.381
76.0400,0.385
76.0800,0.360
76.1200,0.401
76.1600,0.369
76.2000,0.419
76.2400,0.441
76.2800,0.410
76.3200,0.396
76.3600,0.427
76.4000,0.394
76.4400,0.419
76.4800,0.438
76.5200,0.422
76.5600,0.403
76.6000,0.431
76.6400,0.388
76.6800,0.411
76.7200,0.436
76.7600,0.440
76.8000,0.416
76.8400,0.463
76.8800,0.430
76.9200,0.437
76.9600,0.454
77.0000,0.470
77.0400,0.480
77.0800,0.471
77.1200,0.434
77.1600,0.448
77.2000,0.519
77.2400,0.507
77.2800,0.526
77.3200,0.529
77.3600,0.509
77.4000,0.541
77.4400,0.575
77.4800,0.589
77.5200,0.632
77.5600,0.604
77.6000,0.606
77.6400,0.671
77.6800,0.647
77.7200,0.692
77.7600,0.701
77.8000,0.745
77.8400,0.735
77.8800,0.754
77.9200,0.780
77.9600,0.830
78.0000,0.815
78.0400,0.878
78.0800,0.883
78.1200,0.943
78.1600,0.993
78.2000,0.995
78.2400,0.984
78.2800,1.049
78.3200,1.066
78.3600,1.145
78.4000,1.130
78.4400,1.115
78.4800,1.158
78.5200,1.285
78.5600,1.223
78.6000,1.274
78.6400,1.322
78.6800,1.246
78.7200,1.250
78.7600,1.272
78.8000,1.200
78.8400,1.190
78.8800,1.127
78.9200,1.113
78.9600,1.055
79.0000,1.018
79.0400,0.940
79.0800,0.891
79.1200,0.822
79.1600,0.806
79.2000,0.773
79.2400,0.724
79.2800,0.712
79.3200,0.649
79.3600,0.701
79.4000,0.666
79.4400,0.592
79.4800,0.587
79.5200,0.593
79.5600,0.568
79.6000,0.582
79.6400,0.515
79.6800,0.496
79.7200,0.559
79.7600,0.508
79.8000,0.478
79.8400,0.479
79.8800,0.439
79.9200,0.453
79.9600,0.473
80.0000,0.431
