theta,intensity
5.0000,7.573
5.0400,7.613
5.0800,7.605
5.1200,7.490
5.1600,7.598
5.2000,7.446
5.2400,7.296
5.2800,7.401
5.3200,7.217
5.3600,7.177
5.4000,7.253
5.4400,7.110
5.4800,7.026
5.5200,7.069
5.5600,7.150
5.6000,6.915
5.6400,6.822
5.6800,6.719
5.7200,6.596
5.7600,6.622
5.8000,6.621
5.8400,6.485
5.8800,6.272
5.9200,6.165
5.9600,6.028
6.0000,6.060
6.0400,5.930
6.0800,5.799
6.1200,5.857
6.1600,5.615
6.2000,5.572
6.2400,5.507
6.2800,5.558
6.3200,5.465
6.3600,5.468
6.4000,5.347
6.4400,5.393
6.4800,5.195
6.5200,5.235
6.5600,5.073
6.6000,5.185
6.6400,5.070
6.6800,4.916
6.7200,4.963
6.7600,4.875
6.8000,5.033
6.8400,4.891
6.8800,4.809
6.9200,4.773
6.9600,4.714
7.0000,4.863
7.0400,4.682
7.0800,4.677
7.1200,4.578
7.1600,4.607
7.2000,4.506
7.2400,4.464
7.2800,4.576
7.3200,4.595
7.3600,4.495
7.4000,4.455
7.4400,4.530
7.4800,4.377
7.5200,4.442
7.5600,4.284
7.6000,4.367
7.6400,4.272
7.6800,4.326
7.7200,4.334
7.7600,4.315
7.8000,4.118
7.8400,4.180
7.8800,4.243
7.9200,4.199
7.9600,4.240
8.0000,4.175
8.0400,4.280
8.0800,4.177
8.1200,4.115
8.1600,4.059
8.2000,4.147
8.2400,4.064
8.2800,4.219
8.3200,3.995
8.3600,4.043
8.4000,4.026
8.4400,4.110
8.4800,4.156
8.5200,3.967
8.5600,3.984
8.6000,3.996
8.6400,3.991
8.6800,3.929
8.7200,4.007
8.7600,3.919
8.8000,3.947
8.8400,3.903
8.8800,3.802
8.9200,3.822
8.9600,3.990
9.0000,3.847
9.0400,3.802
9.0800,3.815
9.1200,3.853
9.1600,3.914
9.2000,3.917
9.2400,3.994
9.2800,3.818
9.3200,3.868
9.3600,3.796
9.4000,3.793
9.4400,3.852
9.4800,3.749
9.5200,3.806
9.5600,3.761
9.6000,3.961
9.6400,3.783
9.6800,3.869
9.7200,3.859
9.7600,3.793
9.8000,3.738
9.8400,3.864
9.8800,3.792
9.9200,3.648
9.9600,3.664
10.0000,3.793
10.0400,3.729
10.0800,3.779
10.1200,3.838
10.1600,3.757
10.2000,3.722
10.2400,3.715
10.2800,3.724
10.3200,3.768
10.3600,3.672
10.4000,3.606
10.4400,3.628
10.4800,3.709
10.5200,3.768
10.5600,3.659
10.6000,3.666
10.6400,3.691
10.6800,3.692
10.7200,3.700
10.7600,3.681
10.8000,3.629
10.8400,3.590
10.8800,3.617
10.9200,3.556
10.9600,3.606
11.0000,3.677
11.0400,3.641
11.0800,3.614
11.1200,3.588
11.1600,3.682
11.2000,3.649
11.2400,3.678
11.2800,3.671
11.3200,3.598
11.3600,3.558
11.4000,3.579
11.4400,3.561
11.4800,3.609
11.5200,3.581
11.5600,3.538
11.6000,3.602
11.6400,3.553
11.6800,3.585
11.7200,3.559
11.7600,3.529
11.8000,3.508
11.8400,3.608
11.8800,3.520
11.9200,3.505
11.9600,3.541
12.0000,3.537
12.0400,3.444
12.0800,3.531
12.1200,3.480
12.1600,3.583
12.2000,3.554
12.2400,3.558
12.2800,3.554
12.3200,3.514
12.3600,3.517
12.4000,3.498
12.4400,3.499
12.4800,3.534
12.5200,3.483
12.5600,3.485
12.6000,3.522
12.6400,3.411
12.6800,3.427
12.7200,3.367
12.7600,3.537
12.8000,3.508
12.8400,3.485
12.8800,3.483
12.9200,3.447
12.9600,3.435
13.0000,3.363
13.0400,3.320
13.0800,3.416
13.1200,3.456
13.1600,3.434
13.2000,3.448
13.2400,3.354
13.2800,3.450
13.3200,3.435
13.3600,3.295
13.4000,3.450
13.4400,3.325
13.4800,3.284
13.5200,3.486
13.5600,3.370
13.6000,3.369
13.6400,3.317
13.6800,3.401
13.7200,3.333
13.7600,3.443
13.8000,3.405
13.8400,3.310
13.8800,3.411
13.9200,3.352
13.9600,3.348
14.0000,3.237
14.0400,3.375
14.0800,3.333
14.1200,3.397
14.1600,3.360
14.2000,3.319
14.2400,3.374
14.2800,3.369
14.3200,3.335
14.3600,3.275
14.4000,3.384
14.4400,3.307
14.4800,3.321
14.5200,3.412
14.5600,3.269
14.6000,3.317
14.6400,3.261
14.6800,3.274
14.7200,3.212
14.7600,3.279
14.8000,3.243
14.8400,3.300
14.8800,3.357
14.9200,3.206
14.9600,3.183
15.0000,3.231
15.0400,3.301
15.0800,3.153
15.1200,3.222
15.1600,3.146
15.2000,3.172
15.2400,3.106
15.2800,3.119
15.3200,3.120
15.3600,3.246
15.4000,3.167
15.4400,3.206
15.4800,3.297
15.5200,3.252
15.5600,3.089
15.6000,3.226
15.6400,3.130
15.6800,3.175
15.7200,3.339
15.7600,3.153
15.8000,3.201
15.8400,3.060
15.8800,3.163
15.9200,3.175
15.9600,3.107
16.0000,3.184
16.0400,3.079
16.0800,3.001
16.1200,3.284
16.1600,3.191
16.2000,3.145
16.2400,3.106
16.2800,3.126
16.3200,3.042
16.3600,3.092
16.4000,3.046
16.4400,3.228
16.4800,3.191
16.5200,3.123
16.5600,3.150
16.6000,3.184
16.6400,3.094
16.6800,2.993
16.7200,3.098
16.7600,3.126
16.8000,3.122
16.8400,3.065
16.8800,3.118
16.9200,3.157
16.9600,3.071
17.0000,2.942
17.0400,3.032
17.0800,3.057
17.1200,3.024
17.1600,3.022
17.2000,2.991
17.2400,2.996
17.2800,3.104
17.3200,3.021
17.3600,3.086
17.4000,2.996
17.4400,2.944
17.4800,3.037
17.5200,3.033
17.5600,3.055
17.6000,2.944
17.6400,3.002
17.6800,2.999
17.7200,3.007
17.7600,3.029
17.8000,2.808
17.8400,3.006
17.8800,3.029
17.9200,2.986
17.9600,3.009
18.0000,2.953
18.0400,2.906
18.0800,2.979
18.1200,2.974
18.1600,2.919
18.2000,2.896
18.2400,2.862
18.2800,2.923
18.3200,2.897
18.3600,3.011
18.4000,2.928
18.4400,2.939
18.4800,2.881
18.5200,2.917
18.5600,2.928
18.6000,2.936
18.6400,2.945
18.6800,2.924
18.7200,2.839
18.7600,2.848
18.8000,2.888
18.8400,2.871
18.8800,2.910
18.9200,2.909
18.9600,2.788
19.0000,2.843
19.0400,2.841
19.0800,2.870
19.1200,2.891
19.1600,2.820
19.2000,2.829
19.2400,2.836
19.2800,2.880
19.3200,2.854
19.3600,2.765
19.4000,2.943
19.4400,2.861
19.4800,2.827
19.5200,2.734
19.5600,2.853
19.6000,2.872
19.6400,2.772
19.6800,2.895
19.7200,2.798
19.7600,2.830
19.8000,2.775
19.8400,2.811
19.8800,2.800
19.9200,2.772
19.9600,2.812
20.0000,2.788
20.0400,2.687
20.0800,2.774
20.1200,2.701
20.1600,2.799
20.2000,2.851
20.2400,2.773
20.2800,2.801
20.3200,2.677
20.3600,2.804
20.4000,2.804
20.4400,2.745
20.4800,2.756
20.5200,2.662
20.5600,2.751
20.6000,2.824
20.6400,2.670
20.6800,2.674
20.7200,2.745
20.7600,2.637
20.8000,2.608
20.8400,2.701
20.8800,2.648
20.9200,2.673
20.9600,2.733
21.0000,2.694
21.0400,2.667
21.0800,2.720
21.1200,2.580
21.1600,2.632
21.2000,2.634
21.2400,2.697
21.2800,2.641
21.3200,2.666
21.3600,2.641
21.4000,2.674
21.4400,2.571
21.4800,2.581
21.5200,2.584
21.5600,2.611
21.6000,2.609
21.6400,2.567
21.6800,2.604
21.7200,2.631
21.7600,2.612
21.8000,2.574
21.8400,2.520
21.8800,2.575
21.9200,2.558
21.9600,2.662
22.0000,2.562
22.0400,2.562
22.0800,2.610
22.1200,2.547
22.1600,2.537
22.2000,2.503
22.2400,2.631
22.2800,2.554
22.3200,2.482
22.3600,2.556
22.4000,2.517
22.4400,2.576
22.4800,2.567
22.5200,2.519
22.5600,2.578
22.6000,2.520
22.6400,2.566
22.6800,2.596
22.7200,2.482
22.7600,2.560
22.8000,2.561
22.8400,2.468
22.8800,2.517
22.9200,2.596
22.9600,2.571
23.0000,2.482
23.0400,2.520
23.0800,2.533
23.1200,2.512
23.1600,2.442
23.2000,2.411
23.2400,2.486
23.2800,2.539
23.3200,2.502
23.3600,2.560
23.4000,2.500
23.4400,2.436
23.4800,2.529
23.5200,2.412
23.5600,2.456
23.6000,2.403
23.6400,2.376
23.6800,2.593
23.7200,2.560
23.7600,2.546
23.8000,2.499
23.8400,2.428
23.8800,2.477
23.9200,2.498
23.9600,2.540
24.0000,2.593
24.0400,2.595
24.0800,2.651
24.1200,2.645
24.1600,2.633
24.2000,2.735
24.2400,2.824
24.2800,3.032
24.3200,3.052
24.3600,3.077
24.4000,3.312
24.4400,3.436
24.4800,3.466
24.5200,3.594
24.5600,3.488
24.6000,3.506
24.6400,3.477
24.6800,3.421
24.7200,3.231
24.7600,3.133
24.8000,2.982
24.8400,2.898
24.8800,2.764
24.9200,2.632
24.9600,2.626
25.0000,2.578
25.0400,2.571
25.0800,2.475
25.1200,2.404
25.1600,2.444
25.2000,2.463
25.2400,2.408
25.2800,2.324
25.3200,2.417
25.3600,2.361
25.4000,2.488
25.4400,2.344
25.4800,2.335
25.5200,2.282
25.5600,2.280
25.6000,2.259
25.6400,2.253
25.6800,2.293
25.7200,2.296
25.7600,2.238
25.8000,2.238
25.8400,2.266
25.8800,2.256
25.9200,2.246
25.9600,2.209
26.0000,2.250
26.0400,2.180
26.0800,2.301
26.1200,2.267
26.1600,2.244
26.2000,2.212
26.2400,2.145
26.2800,2.134
26.3200,2.176
26.3600,2.201
26.4000,2.233
26.4400,2.250
26.4800,2.141
26.5200,2.195
26.5600,2.228
26.6000,2.252
26.6400,2.182
26.6800,2.148
26.7200,2.201
26.7600,2.103
26.8000,2.107
26.8400,2.153
26.8800,2.129
26.9200,2.233
26.9600,2.064
27.0000,2.150
27.0400,2.054
27.0800,2.164
27.1200,2.192
27.1600,2.137
27.2000,2.148
27.2400,2.203
27.2800,2.133
27.3200,2.084
27.3600,2.072
27.4000,2.170
27.4400,2.087
27.4800,2.098
27.5200,2.070
27.5600,2.068
27.6000,2.124
27.6400,2.027
27.6800,2.032
27.7200,2.081
27.7600,2.008
27.8000,2.046
27.8400,2.110
27.8800,2.043
27.9200,1.994
27.9600,2.050
28.0000,2.002
28.0400,2.079
28.0800,2.009
28.1200,2.114
28.1600,2.103
28.2000,1.976
28.2400,1.980
28.2800,1.997
28.3200,2.002
28.3600,2.027
28.4000,2.074
28.4400,2.005
28.4800,2.076
28.5200,2.027
28.5600,2.120
28.6000,2.045
28.6400,1.977
28.6800,1.958
28.7200,2.065
28.7600,1.978
28.8000,1.939
28.8400,2.007
28.8800,1.989
28.9200,1.966
28.9600,1.944
29.0000,1.934
29.0400,1.912
29.0800,1.958
29.1200,1.943
29.1600,2.033
29.2000,1.929
29.2400,2.028
29.2800,1.957
29.3200,1.940
29.3600,2.027
29.4000,1.926
29.4400,2.022
29.4800,1.982
29.5200,1.902
29.5600,1.900
29.6000,2.027
29.6400,1.983
29.6800,1.928
29.7200,2.069
29.7600,1.982
29.8000,1.884
29.8400,1.903
29.8800,1.953
29.9200,1.904
29.9600,1.915
30.0000,1.884
30.0400,1.905
30.0800,1.870
30.1200,1.912
30.1600,1.858
30.2000,1.847
30.2400,1.868
30.2800,1.906
30.3200,1.864
30.3600,1.838
30.4000,1.798
30.4400,1.881
30.4800,1.841
30.5200,1.879
30.5600,1.914
30.6000,1.799
30.6400,1.858
30.6800,1.843
30.7200,1.793
30.7600,1.847
30.8000,1.836
30.8400,1.888
30.8800,1.925
30.9200,1.851
30.9600,1.882
31.0000,1.836
31.0400,1.810
31.0800,1.841
31.1200,1.887
31.1600,1.849
31.2000,1.918
31.2400,1.841
31.2800,1.775
31.3200,1.828
31.3600,1.838
31.4000,1.750
31.4400,1.871
31.4800,1.891
31.5200,1.963
31.5600,1.962
31.6000,1.989
31.6400,1.961
31.6800,2.088
31.7200,2.159
31.7600,2.314
31.8000,2.505
31.8400,2.789
31.8800,3.154
31.9200,3.569
31.9600,3.634
32.0000,3.591
32.0400,3.283
32.0800,2.877
32.1200,2.523
32.1600,2.279
32.2000,2.154
32.2400,1.942
32.2800,1.903
32.3200,1.889
32.3600,1.838
32.4000,1.876
32.4400,1.898
32.4800,1.775
32.5200,1.792
32.5600,1.763
32.6000,1.749
32.6400,1.722
32.6800,1.740
32.7200,1.747
32.7600,1.719
32.8000,1.697
32.8400,1.687
32.8800,1.711
32.9200,1.760
32.9600,1.670
33.0000,1.675
33.0400,1.680
33.0800,1.698
33.1200,1.687
33.1600,1.674
33.2000,1.741
33.2400,1.703
33.2800,1.629
33.3200,1.669
33.3600,1.735
33.4000,1.624
33.4400,1.676
33.4800,1.665
33.5200,1.659
33.5600,1.672
33.6000,1.634
33.6400,1.610
33.6800,1.597
33.7200,1.689
33.7600,1.584
33.8000,1.654
33.8400,1.560
33.8800,1.599
33.9200,1.582
33.9600,1.608
34.0000,1.609
34.0400,1.522
34.0800,1.609
34.1200,1.640
34.1600,1.612
34.2000,1.580
34.2400,1.591
34.2800,1.602
34.3200,1.518
34.3600,1.576
34.4000,1.543
34.4400,1.602
34.4800,1.550
34.5200,1.632
34.5600,1.587
34.6000,1.547
34.6400,1.604
34.6800,1.551
34.7200,1.581
34.7600,1.517
34.8000,1.544
34.8400,1.628
34.8800,1.579
34.9200,1.520
34.9600,1.519
35.0000,1.512
35.0400,1.591
35.0800,1.504
35.1200,1.508
35.1600,1.532
35.2000,1.481
35.2400,1.561
35.2800,1.503
35.3200,1.479
35.3600,1.529
35.4000,1.458
35.4400,1.539
35.4800,1.539
35.5200,1.517
35.5600,1.540
35.6000,1.537
35.6400,1.523
35.6800,1.481
35.7200,1.473
35.7600,1.480
35.8000,1.540
35.8400,1.516
35.8800,1.508
35.9200,1.505
35.9600,1.491
36.0000,1.439
36.0400,1.460
36.0800,1.534
36.1200,1.516
36.1600,1.577
36.2000,1.491
36.2400,1.435
36.2800,1.438
36.3200,1.440
36.3600,1.468
36.4000,1.502
36.4400,1.475
36.4800,1.435
36.5200,1.449
36.5600,1.441
36.6000,1.419
36.6400,1.459
36.6800,1.465
36.7200,1.486
36.7600,1.511
36.8000,1.485
36.8400,1.488
36.8800,1.402
36.9200,1.400
36.9600,1.435
37.0000,1.375
37.0400,1.418
37.0800,1.427
37.1200,1.467
37.1600,1.409
37.2000,1.450
37.2400,1.441
37.2800,1.369
37.3200,1.406
37.3600,1.446
37.4000,1.418
37.4400,1.391
37.4800,1.449
37.5200,1.412
37.5600,1.421
37.6000,1.524
37.6400,1.378
37.6800,1.402
37.7200,1.426
37.7600,1.478
37.8000,1.357
37.8400,1.411
37.8800,1.386
37.9200,1.439
37.9600,1.496
38.0000,1.499
38.0400,1.432
38.0800,1.441
38.1200,1.427
38.1600,1.557
38.2000,1.486
38.2400,1.537
38.2800,1.485
38.3200,1.415
38.3600,1.465
38.4000,1.522
38.4400,1.521
38.4800,1.632
38.5200,1.550
38.5600,1.657
38.6000,1.574
38.6400,1.585
38.6800,1.550
38.7200,1.635
38.7600,1.577
38.8000,1.559
38.8400,1.484
38.8800,1.558
38.9200,1.543
38.9600,1.530
39.0000,1.551
39.0400,1.584
39.0800,1.462
39.1200,1.485
39.1600,1.541
39.2000,1.556
39.2400,1.418
39.2800,1.457
39.3200,1.513
39.3600,1.518
39.4000,1.510
39.4400,1.506
39.4800,1.488
39.5200,1.517
39.5600,1.523
39.6000,1.492
39.6400,1.548
39.6800,1.449
39.7200,1.481
39.7600,1.550
39.8000,1.584
39.8400,1.633
39.8800,1.545
39.9200,1.568
39.9600,1.651
40.0000,1.653
40.0400,1.688
40.0800,1.803
40.1200,1.842
40.1600,1.926
40.2000,2.122
40.2400,2.183
40.2800,2.410
40.3200,2.761
40.3600,3.132
40.4000,3.602
40.4400,4.420
40.4800,5.293
40.5200,6.456
40.5600,7.491
40.6000,8.728
40.6400,9.082
40.6800,9.211
40.7200,8.722
40.7600,7.723
40.8000,6.814
40.8400,5.637
40.8800,4.577
40.9200,3.801
40.9600,3.078
41.0000,2.700
41.0400,2.341
41.0800,2.111
41.1200,1.911
41.1600,1.748
41.2000,1.747
41.2400,1.602
41.2800,1.527
41.3200,1.512
41.3600,1.415
41.4000,1.462
41.4400,1.398
41.4800,1.386
41.5200,1.333
41.5600,1.338
41.6000,1.243
41.6400,1.273
41.6800,1.254
41.7200,1.255
41.7600,1.304
41.8000,1.239
41.8400,1.223
41.8800,1.326
41.9200,1.268
41.9600,1.255
42.0000,1.262
42.0400,1.245
42.0800,1.215
42.1200,1.280
42.1600,1.193
42.2000,1.171
42.2400,1.142
42.2800,1.163
42.3200,1.118
42.3600,1.135
42.4000,1.174
42.4400,1.149
42.4800,1.220
42.5200,1.181
42.5600,1.147
42.6000,1.173
42.6400,1.141
42.6800,1.157
42.7200,1.072
42.7600,1.140
42.8000,1.182
42.8400,1.128
42.8800,1.148
42.9200,1.197
42.9600,1.144
43.0000,1.073
43.0400,1.079
43.0800,1.149
43.1200,1.078
43.1600,1.107
43.2000,1.100
43.2400,1.105
43.2800,1.099
43.3200,1.125
43.3600,1.133
43.4000,1.073
43.4400,1.087
43.4800,1.107
43.5200,1.091
43.5600,1.125
43.6000,1.143
43.6400,1.097
43.6800,1.101
43.7200,1.164
43.7600,1.077
43.8000,1.113
43.8400,1.043
43.8800,1.062
43.9200,1.109
43.9600,1.069
44.0000,1.072
44.0400,1.112
44.0800,1.059
44.1200,1.073
44.1600,1.070
44.2000,1.151
44.2400,1.086
44.2800,1.092
44.3200,1.106
44.3600,1.103
44.4000,1.055
44.4400,1.096
44.4800,1.132
44.5200,1.139
44.5600,1.159
44.6000,1.161
44.6400,1.086
44.6800,1.099
44.7200,1.069
44.7600,1.114
44.8000,1.116
44.8400,1.121
44.8800,1.096
44.9200,1.113
44.9600,1.085
45.0000,1.148
45.0400,1.134
45.0800,1.150
45.1200,1.144
45.1600,1.144
45.2000,1.184
45.2400,1.181
45.2800,1.227
45.3200,1.277
45.3600,1.315
45.4000,1.297
45.4400,1.390
45.4800,1.407
45.5200,1.581
45.5600,1.733
45.6000,1.892
45.6400,2.123
45.6800,2.449
45.7200,2.807
45.7600,3.120
45.8000,3.385
45.8400,3.326
45.8800,3.308
45.9200,3.044
45.9600,2.701
46.0000,2.382
46.0400,1.955
46.0800,1.787
46.1200,1.518
46.1600,1.465
46.2000,1.403
46.2400,1.243
46.2800,1.233
46.3200,1.112
46.3600,1.114
46.4000,1.060
46.4400,1.054
46.4800,1.012
46.5200,0.987
46.5600,1.059
46.6000,1.011
46.6400,1.063
46.6800,0.973
46.7200,0.997
46.7600,0.981
46.8000,0.967
46.8400,0.982
46.8800,1.000
46.9200,0.921
46.9600,0.965
47.0000,0.959
47.0400,0.902
47.0800,0.942
47.1200,0.922
47.1600,0.904
47.2000,0.941
47.2400,0.935
47.2800,0.920
47.3200,0.890
47.3600,0.883
47.4000,0.885
47.4400,0.910
47.4800,0.969
47.5200,0.915
47.5600,0.903
47.6000,0.920
47.6400,0.902
47.6800,0.922
47.7200,0.933
47.7600,0.873
47.8000,0.920
47.8400,0.890
47.8800,0.897
47.9200,0.882
47.9600,0.874
48.0000,0.878
48.0400,0.906
48.0800,0.828
48.1200,0.908
48.1600,0.861
48.2000,0.887
48.2400,0.903
48.2800,0.809
48.3200,0.871
48.3600,0.899
48.4000,0.875
48.4400,0.931
48.4800,0.844
48.5200,0.881
48.5600,0.869
48.6000,0.885
48.6400,0.881
48.6800,0.900
48.7200,0.891
48.7600,0.920
48.8000,0.906
48.8400,0.920
48.8800,0.893
48.9200,0.944
48.9600,0.888
49.0000,0.907
49.0400,0.852
49.0800,0.848
49.1200,0.872
49.1600,0.845
49.2000,0.894
49.2400,0.921
49.2800,0.856
49.3200,0.866
49.3600,0.928
49.4000,0.913
49.4400,0.944
49.4800,0.941
49.5200,0.948
49.5600,0.875
49.6000,0.974
49.6400,0.944
49.6800,0.932
49.7200,0.938
49.7600,0.981
49.8000,1.029
49.8400,0.990
49.8800,0.996
49.9200,1.087
49.9600,1.117
50.0000,1.112
50.0400,1.075
50.0800,1.130
50.1200,1.142
50.1600,1.097
50.2000,1.168
50.2400,1.162
50.2800,1.137
50.3200,1.152
50.3600,1.157
50.4000,1.160
50.4400,1.067
50.4800,1.060
50.5200,1.076
50.5600,1.016
50.6000,1.080
50.6400,1.003
50.6800,1.015
50.7200,0.945
50.7600,0.978
50.8000,0.914
50.8400,0.903
50.8800,0.939
50.9200,0.872
50.9600,0.903
51.0000,0.851
51.0400,0.840
51.0800,0.899
51.1200,0.829
51.1600,0.849
51.2000,0.820
51.2400,0.809
51.2800,0.825
51.3200,0.786
51.3600,0.871
51.4000,0.802
51.4400,0.816
51.4800,0.764
51.5200,0.782
51.5600,0.758
51.6000,0.772
51.6400,0.770
51.6800,0.782
51.7200,0.788
51.7600,0.739
51.8000,0.815
51.8400,0.813
51.8800,0.782
51.9200,0.831
51.9600,0.746
52.0000,0.812
52.0400,0.759
52.0800,0.753
52.1200,0.816
52.1600,0.830
52.2000,0.811
52.2400,0.805
52.2800,0.778
52.3200,0.900
52.3600,0.855
52.4000,0.902
52.4400,0.957
52.4800,1.069
52.5200,1.104
52.5600,1.118
52.6000,1.143
52.6400,1.223
52.6800,1.244
52.7200,1.215
52.7600,1.157
52.8000,1.036
52.8400,0.926
52.8800,0.917
52.9200,0.868
52.9600,0.857
53.0000,0.777
53.0400,0.742
53.0800,0.753
53.1200,0.780
53.1600,0.768
53.2000,0.728
53.2400,0.702
53.2800,0.764
53.3200,0.764
53.3600,0.763
53.4000,0.747
53.4400,0.711
53.4800,0.729
53.5200,0.698
53.5600,0.721
53.6000,0.707
53.6400,0.684
53.6800,0.693
53.7200,0.672
53.7600,0.675
53.8000,0.682
53.8400,0.734
53.8800,0.715
53.9200,0.701
53.9600,0.721
54.0000,0.694
54.0400,0.701
54.0800,0.669
54.1200,0.699
54.1600,0.703
54.2000,0.698
54.2400,0.702
54.2800,0.655
54.3200,0.765
54.3600,0.754
54.4000,0.683
54.4400,0.696
54.4800,0.669
54.5200,0.699
54.5600,0.721
54.6000,0.713
54.6400,0.678
54.6800,0.646
54.7200,0.681
54.7600,0.692
54.8000,0.657
54.8400,0.687
54.8800,0.706
54.9200,0.677
54.9600,0.699
55.0000,0.701
55.0400,0.682
55.0800,0.705
55.1200,0.674
55.1600,0.657
55.2000,0.668
55.2400,0.674
55.2800,0.702
55.3200,0.654
55.3600,0.684
55.4000,0.666
55.4400,0.667
55.4800,0.665
55.5200,0.653
55.5600,0.676
55.6000,0.655
55.6400,0.665
55.6800,0.658
55.7200,0.621
55.7600,0.644
55.8000,0.672
55.8400,0.664
55.8800,0.690
55.9200,0.704
55.9600,0.681
56.0000,0.671
56.0400,0.653
56.0800,0.644
56.1200,0.640
56.1600,0.638
56.2000,0.655
56.2400,0.670
56.2800,0.656
56.3200,0.662
56.3600,0.621
56.4000,0.639
56.4400,0.682
56.4800,0.668
56.5200,0.652
56.5600,0.617
56.6000,0.690
56.6400,0.645
56.6800,0.634
56.7200,0.684
56.7600,0.623
56.8000,0.655
56.8400,0.660
56.8800,0.606
56.9200,0.646
56.9600,0.629
57.0000,0.641
57.0400,0.656
57.0800,0.642
57.1200,0.663
57.1600,0.630
57.2000,0.671
57.2400,0.670
57.2800,0.632
57.3200,0.657
57.3600,0.626
57.4000,0.610
57.4400,0.573
57.4800,0.595
57.5200,0.609
57.5600,0.642
57.6000,0.634
57.6400,0.629
57.6800,0.585
57.7200,0.641
57.7600,0.615
57.8000,0.634
57.8400,0.619
57.8800,0.638
57.9200,0.627
57.9600,0.590
58.0000,0.639
58.0400,0.627
58.0800,0.638
58.1200,0.622
58.1600,0.615
58.2000,0.647
58.2400,0.611
58.2800,0.579
58.3200,0.578
58.3600,0.594
58.4000,0.589
58.4400,0.644
58.4800,0.589
58.5200,0.597
58.5600,0.653
58.6000,0.592
58.6400,0.617
58.6800,0.641
58.7200,0.614
58.7600,0.589
58.8000,0.604
58.8400,0.628
58.8800,0.628
58.9200,0.603
58.9600,0.587
59.0000,0.571
59.0400,0.608
59.0800,0.617
59.1200,0.573
59.1600,0.610
59.2000,0.567
59.2400,0.584
59.2800,0.620
59.3200,0.623
59.3600,0.567
59.4000,0.575
59.4400,0.628
59.4800,0.576
59.5200,0.604
59.5600,0.621
59.6000,0.599
59.6400,0.616
59.6800,0.623
59.7200,0.558
59.7600,0.583
59.8000,0.615
59.8400,0.630
59.8800,0.575
59.9200,0.577
59.9600,0.615
60.0000,0.600
60.0400,0.550
60.0800,0.563
60.1200,0.610
60.1600,0.593
60.2000,0.617
60.2400,0.637
60.2800,0.586
60.3200,0.642
60.3600,0.642
60.4000,0.624
60.4400,0.642
60.4800,0.661
60.5200,0.649
60.5600,0.693
60.6000,0.662
60.6400,0.670
60.6800,0.671
60.7200,0.670
60.7600,0.695
60.8000,0.655
60.8400,0.663
60.8800,0.696
60.9200,0.676
60.9600,0.664
61.0000,0.660
61.0400,0.633
61.0800,0.637
61.1200,0.611
61.1600,0.648
61.2000,0.638
61.2400,0.590
61.2800,0.605
61.3200,0.565
61.3600,0.585
61.4000,0.612
61.4400,0.588
61.4800,0.582
61.5200,0.584
61.5600,0.574
61.6000,0.587
61.6400,0.690
61.6800,0.729
61.7200,0.624
61.7600,0.593
61.8000,0.593
61.8400,0.592
61.8800,0.598
61.9200,0.568
61.9600,0.570
62.0000,0.557
62.0400,0.537
62.0800,0.555
62.1200,0.533
62.1600,0.560
62.2000,0.570
62.2400,0.544
62.2800,0.588
62.3200,0.549
62.3600,0.530
62.4000,0.539
62.4400,0.537
62.4800,0.556
62.5200,0.575
62.5600,0.581
62.6000,0.554
62.6400,0.580
62.6800,0.570
62.7200,0.551
62.7600,0.572
62.8000,0.542
62.8400,0.558
62.8800,0.534
62.9200,0.520
62.9600,0.578
63.0000,0.553
63.0400,0.565
63.0800,0.533
63.1200,0.569
63.1600,0.567
63.2000,0.563
63.2400,0.564
63.2800,0.590
63.3200,0.507
63.3600,0.605
63.4000,0.597
63.4400,0.521
63.4800,0.544
63.5200,0.539
63.5600,0.551
63.6000,0.542
63.6400,0.553
63.6800,0.553
63.7200,0.556
63.7600,0.550
63.8000,0.572
63.8400,0.587
63.8800,0.564
63.9200,0.549
63.9600,0.573
64.0000,0.568
64.0400,0.597
64.0800,0.586
64.1200,0.597
64.1600,0.599
64.2000,0.578
64.2400,0.616
64.2800,0.584
64.3200,0.579
64.3600,0.584
64.4000,0.605
64.4400,0.580
64.4800,0.595
64.5200,0.612
64.5600,0.571
64.6000,0.553
64.6400,0.619
64.6800,0.625
64.7200,0.629
64.7600,0.645
64.8000,0.613
64.8400,0.601
64.8800,0.603
64.9200,0.582
64.9600,0.613
65.0000,0.604
65.0400,0.607
65.0800,0.613
65.1200,0.616
65.1600,0.659
65.2000,0.622
65.2400,0.662
65.2800,0.674
65.3200,0.620
65.3600,0.701
65.4000,0.645
65.4400,0.635
65.4800,0.744
65.5200,0.699
65.5600,0.694
65.6000,0.710
65.6400,0.711
65.6800,0.740
65.7200,0.706
65.7600,0.709
65.8000,0.716
65.8400,0.697
65.8800,0.738
65.9200,0.737
65.9600,0.746
66.0000,0.760
66.0400,0.765
66.0800,0.748
66.1200,0.835
66.1600,0.784
66.2000,0.844
66.2400,0.803
66.2800,0.822
66.3200,0.857
66.3600,0.879
66.4000,0.883
66.4400,0.951
66.4800,0.960
66.5200,1.044
66.5600,1.076
66.6000,1.154
66.6400,1.173
66.6800,1.233
66.7200,1.247
66.7600,1.368
66.8000,1.475
66.8400,1.375
66.8800,1.304
66.9200,1.330
66.9600,1.335
67.0000,1.250
67.0400,1.264
67.0800,1.254
67.1200,1.231
67.1600,1.142
67.2000,1.113
67.2400,1.155
67.2800,1.174
67.3200,1.203
67.3600,1.149
67.4000,1.217
67.4400,1.195
67.4800,1.226
67.5200,1.260
67.5600,1.307
67.6000,1.312
67.6400,1.332
67.6800,1.313
67.7200,1.355
67.7600,1.422
67.8000,1.485
67.8400,1.451
67.8800,1.465
67.9200,1.605
67.9600,1.602
68.0000,1.630
68.0400,1.694
68.0800,1.668
68.1200,1.759
68.1600,1.845
68.2000,1.862
68.2400,1.855
68.2800,1.977
68.3200,2.077
68.3600,2.105
68.4000,2.263
68.4400,2.311
68.4800,2.371
68.5200,2.602
68.5600,2.750
68.6000,2.886
68.6400,3.117
68.6800,3.635
68.7200,4.318
68.7600,5.815
68.8000,6.998
68.8400,7.361
68.8800,7.362
68.9200,8.240
68.9600,10.184
69.0000,15.741
69.0400,31.123
69.0800,116.705
69.1200,421.039
69.1600,480.083
69.2000,177.938
69.2400,53.358
69.2800,83.536
69.3200,227.609
69.3600,239.021
69.4000,87.955
69.4400,23.945
69.4800,12.560
69.5200,8.697
69.5600,6.961
69.6000,5.823
69.6400,5.035
69.6800,4.532
69.7200,4.113
69.7600,3.690
69.8000,3.530
69.8400,3.246
69.8800,3.090
69.9200,2.932
69.9600,2.885
70.0000,2.778
70.0400,2.707
70.0800,2.660
70.1200,2.573
70.1600,2.541
70.2000,2.505
70.2400,2.419
70.2800,2.372
70.3200,2.373
70.3600,2.141
70.4000,2.174
70.4400,2.010
70.4800,1.972
70.5200,1.996
70.5600,1.915
70.6000,1.796
70.6400,1.747
70.6800,1.619
70.7200,1.598
70.7600,1.545
70.8000,1.523
70.8400,1.398
70.8800,1.326
70.9200,1.300
70.9600,1.311
71.0000,1.290
71.0400,1.210
71.0800,1.126
71.1200,1.092
71.1600,1.107
71.2000,1.110
71.2400,1.075
71.2800,1.054
71.3200,1.058
71.3600,0.968
71.4000,0.951
71.4400,0.925
71.4800,0.937
71.5200,0.912
71.5600,0.912
71.6000,0.917
71.6400,0.884
71.6800,0.865
71.7200,0.858
71.7600,0.825
71.8000,0.784
71.8400,0.783
71.8800,0.755
71.9200,0.767
71.9600,0.748
72.0000,0.794
72.0400,0.786
72.0800,0.741
72.1200,0.734
72.1600,0.798
72.2000,0.801
72.2400,0.775
72.2800,0.793
72.3200,0.773
72.3600,0.753
72.4000,0.706
72.4400,0.669
72.4800,0.705
72.5200,0.653
72.5600,0.644
72.6000,0.677
72.6400,0.646
72.6800,0.607
72.7200,0.583
72.7600,0.588
72.8000,0.597
72.8400,0.584
72.8800,0.560
72.9200,0.552
72.9600,0.553
73.0000,0.496
73.0400,0.546
73.0800,0.544
73.1200,0.496
73.1600,0.551
73.2000,0.519
73.2400,0.507
73.2800,0.485
73.3200,0.520
73.3600,0.525
73.4000,0.513
73.4400,0.512
73.4800,0.513
73.5200,0.519
73.5600,0.516
73.6000,0.473
73.6400,0.464
73.6800,0.474
73.7200,0.481
73.7600,0.464
73.8000,0.468
73.8400,0.455
73.8800,0.440
73.9200,0.436
73.9600,0.476
74.0000,0.450
74.0400,0.472
74.0800,0.457
74.1200,0.450
74.1600,0.458
74.2000,0.478
74.2400,0.415
74.2800,0.454
74.3200,0.448
74.3600,0.414
74.4000,0.416
74.4400,0.416
74.4800,0.414
74.5200,0.390
74.5600,0.384
74.6000,0.388
74.6400,0.417
74.6800,0.452
74.7200,0.441
74.7600,0.402
74.8000,0.400
74.8400,0.388
74.8800,0.403
74.9200,0.390
74.9600,0.401
75.0000,0.367
75.0400,0.393
75.0800,0.385
75.1200,0.372
75.1600,0.390
75.2000,0.387
75.2400,0.398
75.2800,0.390
75.3200,0.374
75.3600,0.377
75.4000,0.392
75.4400,0.388
75.4800,0.374
75.5200,0.383
75.5600,0.386
75.6000,0.397
75.6400,0.406
75.6800,0.460
75.7200,0.406
75.7600,0.407
75.8000,0.396
75.8400,0.449
75.8800,0.440
75.9200,0.444
75.9600,0.467
76.0000,0.442
76.0400,0.442
76.0800,0.466
76.1200,0.445
76.1600,0.397
76.2000,0.416
76.2400,0.415
76.2800,0.373
76.3200,0.341
76.3600,0.353
76.4000,0.382
76.4400,0.406
76.4800,0.384
76.5200,0.419
76.5600,0.354
76.6000,0.389
76.6400,0.353
76.6800,0.353
76.7200,0.355
76.7600,0.370
76.8000,0.355
76.8400,0.371
76.8800,0.346
76.9200,0.329
76.9600,0.362
77.0000,0.349
77.0400,0.367
77.0800,0.363
77.1200,0.358
77.1600,0.350
77.2000,0.335
77.2400,0.390
77.2800,0.366
77.3200,0.350
77.3600,0.338
77.4000,0.353
77.4400,0.349
77.4800,0.362
77.5200,0.354
77.5600,0.311
77.6000,0.347
77.6400,0.367
77.6800,0.360
77.7200,0.366
77.7600,0.339
77.8000,0.350
77.8400,0.337
77.8800,0.337
77.9200,0.348
77.9600,0.352
78.0000,0.330
78.0400,0.341
78.0800,0.321
78.1200,0.321
78.1600,0.338
78.2000,0.339
78.2400,0.337
78.2800,0.333
78.3200,0.347
78.3600,0.344
78.4000,0.329
78.4400,0.360
78.4800,0.356
78.5200,0.345
78.5600,0.324
78.6000,0.353
78.6400,0.338
78.6800,0.359
78.7200,0.356
78.7600,0.327
78.8000,0.335
78.8400,0.373
78.8800,0.354
78.9200,0.344
78.9600,0.357
79.0000,0.349
79.0400,0.329
79.0800,0.342
79.1200,0.333
79.1600,0.342
79.2000,0.369
79.2400,0.332
79.2800,0.353
79.3200,0.346
79.3600,0.289
79.4000,0.326
79.4400,0.333
79.4800,0.324
79.5200,0.343
79.5600,0.331
79.6000,0.340
79.6400,0.360
79.6800,0.329
79.7200,0.338
79.7600,0.346
79.8000,0.326
79.8400,0.340
79.8800,0.302
79.9200,0.367
79.9600,0.361
80.0000,0.352
