theta,intensity
5.0000,5.959
5.0400,5.928
5.0800,6.042
5.1200,5.957
5.1600,5.902
5.2000,5.884
5.2400,5.745
5.2800,5.723
5.3200,5.735
5.3600,5.677
5.4000,5.620
5.4400,5.676
5.4800,5.533
5.5200,5.497
5.5600,5.419
5.6000,5.430
5.6400,5.510
5.6800,5.404
5.7200,5.332
5.7600,5.183
5.8000,5.148
5.8400,5.092
5.8800,5.096
5.9200,5.008
5.9600,4.975
6.0000,4.875
6.0400,4.828
6.0800,4.710
6.1200,4.771
6.1600,4.492
6.2000,4.455
6.2400,4.521
6.2800,4.522
6.3200,4.381
6.3600,4.309
6.4000,4.268
6.4400,4.158
6.4800,4.226
6.5200,4.118
6.5600,4.152
6.6000,4.090
6.6400,4.091
6.6800,4.148
6.7200,4.071
6.7600,4.185
6.8000,4.045
6.8400,4.035
6.8800,4.045
6.9200,4.047
6.9600,4.081
7.0000,3.963
7.0400,4.036
7.0800,4.064
7.1200,3.918
7.1600,4.031
7.2000,4.077
7.2400,4.032
7.2800,4.051
7.3200,4.016
7.3600,4.006
7.4000,3.967
7.4400,3.997
7.4800,3.947
7.5200,3.948
7.5600,3.866
7.6000,3.949
7.6400,3.913
7.6800,3.917
7.7200,3.889
7.7600,3.813
7.8000,3.988
7.8400,3.940
7.8800,3.894
7.9200,3.872
7.9600,3.982
8.0000,3.821
8.0400,3.858
8.0800,3.880
8.1200,3.787
8.1600,3.844
8.2000,3.855
8.2400,3.819
8.2800,3.807
8.3200,3.908
8.3600,3.838
8.4000,3.723
8.4400,3.910
8.4800,3.831
8.5200,3.811
8.5600,3.633
8.6000,3.849
8.6400,3.816
8.6800,3.871
8.7200,3.749
8.7600,3.726
8.8000,3.745
8.8400,3.804
8.8800,3.682
8.9200,3.734
8.9600,3.713
9.0000,3.674
9.0400,3.844
9.0800,3.781
9.1200,3.674
9.1600,3.778
9.2000,3.705
9.2400,3.698
9.2800,3.634
9.3200,3.630
9.3600,3.802
9.4000,3.729
9.4400,3.650
9.4800,3.639
9.5200,3.698
9.5600,3.608
9.6000,3.703
9.6400,3.688
9.6800,3.701
9.7200,3.632
9.7600,3.637
9.8000,3.607
9.8400,3.767
9.8800,3.695
9.9200,3.638
9.9600,3.603
10.0000,3.554
10.0400,3.574
10.0800,3.584
10.1200,3.523
10.1600,3.682
10.2000,3.602
10.2400,3.632
10.2800,3.574
10.3200,3.556
10.3600,3.458
10.4000,3.645
10.4400,3.639
10.4800,3.568
10.5200,3.567
10.5600,3.567
10.6000,3.631
10.6400,3.536
10.6800,3.481
10.7200,3.547
10.7600,3.602
10.8000,3.543
10.8400,3.573
10.8800,3.481
10.9200,3.557
10.9600,3.500
11.0000,3.486
11.0400,3.485
11.0800,3.570
11.1200,3.483
11.1600,3.513
11.2000,3.523
11.2400,3.551
11.2800,3.472
11.3200,3.411
11.3600,3.540
11.4000,3.482
11.4400,3.390
11.4800,3.455
11.5200,3.459
11.5600,3.337
11.6000,3.397
11.6400,3.401
11.6800,3.463
11.7200,3.493
11.7600,3.431
11.8000,3.362
11.8400,3.504
11.8800,3.398
11.9200,3.465
11.9600,3.308
12.0000,3.333
12.0400,3.373
12.0800,3.495
12.1200,3.346
12.1600,3.391
12.2000,3.382
12.2400,3.418
12.2800,3.351
12.3200,3.370
12.3600,3.427
12.4000,3.330
12.4400,3.390
12.4800,3.331
12.5200,3.374
12.5600,3.383
12.6000,3.336
12.6400,3.358
12.6800,3.240
12.7200,3.339
12.7600,3.327
12.8000,3.249
12.8400,3.291
12.8800,3.300
12.9200,3.284
12.9600,3.379
13.0000,3.244
13.0400,3.373
13.0800,3.366
13.1200,3.300
13.1600,3.425
13.2000,3.421
13.2400,3.214
13.2800,3.281
13.3200,3.274
13.3600,3.317
13.4000,3.272
13.4400,3.256
13.4800,3.317
13.5200,3.330
13.5600,3.281
13.6000,3.233
13.6400,3.154
13.6800,3.282
13.7200,3.281
13.7600,3.223
13.8000,3.295
13.8400,3.209
13.8800,3.235
13.9200,3.227
13.9600,3.260
14.0000,3.302
14.0400,3.142
14.0800,3.264
14.1200,3.174
14.1600,3.168
14.2000,3.243
14.2400,3.080
14.2800,3.175
14.3200,3.129
14.3600,3.180
14.4000,3.224
14.4400,3.151
14.4800,3.269
14.5200,3.295
14.5600,3.136
14.6000,3.144
14.6400,3.023
14.6800,3.146
14.7200,3.149
14.7600,3.106
14.8000,3.189
14.8400,3.137
14.8800,3.159
14.9200,3.201
14.9600,3.198
15.0000,3.139
15.0400,3.064
15.0800,3.094
15.1200,3.145
15.1600,3.104
15.2000,3.078
15.2400,3.054
15.2800,3.099
15.3200,3.058
15.3600,3.174
15.4000,3.014
15.4400,3.083
15.4800,3.271
15.5200,3.163
15.5600,3.084
15.6000,3.031
15.6400,3.064
15.6800,3.093
15.7200,2.969
15.7600,2.991
15.8000,3.016
15.8400,3.032
15.8800,2.984
15.9200,3.059
15.9600,2.971
16.0000,2.996
16.0400,3.064
16.0800,3.073
16.1200,3.057
16.1600,3.019
16.2000,3.049
16.2400,3.049
16.2800,3.037
16.3200,3.000
16.3600,3.045
16.4000,2.930
16.4400,3.024
16.4800,2.885
16.5200,3.007
16.5600,2.928
16.6000,2.928
16.6400,2.982
16.6800,3.047
16.7200,2.969
16.7600,2.900
16.8000,2.874
16.8400,2.952
16.8800,2.863
16.9200,2.921
16.9600,2.934
17.0000,2.917
17.0400,2.967
17.0800,2.938
17.1200,2.959
17.1600,2.910
17.2000,2.863
17.2400,2.978
17.2800,2.915
17.3200,2.922
17.3600,2.879
17.4000,2.954
17.4400,2.928
17.4800,2.832
17.5200,2.905
17.5600,2.968
17.6000,2.908
17.6400,2.828
17.6800,2.979
17.7200,2.826
17.7600,2.843
17.8000,2.870
17.8400,2.843
17.8800,2.822
17.9200,2.933
17.9600,2.910
18.0000,2.898
18.0400,2.835
18.0800,2.913
18.1200,2.845
18.1600,2.879
18.2000,2.797
18.2400,2.839
18.2800,2.774
18.3200,2.801
18.3600,2.829
18.4000,2.801
18.4400,2.783
18.4800,2.839
18.5200,2.808
18.5600,2.780
18.6000,2.784
18.6400,2.794
18.6800,2.859
18.7200,2.770
18.7600,2.835
18.8000,2.664
18.8400,2.716
18.8800,2.874
18.9200,2.833
18.9600,2.780
19.0000,2.767
19.0400,2.812
19.0800,2.713
19.1200,2.680
19.1600,2.787
19.2000,2.642
19.2400,2.777
19.2800,2.782
19.3200,2.792
19.3600,2.759
19.4000,2.679
19.4400,2.750
19.4800,2.749
19.5200,2.717
19.5600,2.678
19.6000,2.662
19.6400,2.718
19.6800,2.628
19.7200,2.772
19.7600,2.726
19.8000,2.729
19.8400,2.648
19.8800,2.696
19.9200,2.741
19.9600,2.660
20.0000,2.764
20.0400,2.657
20.0800,2.594
20.1200,2.706
20.1600,2.645
20.2000,2.662
20.2400,2.673
20.2800,2.671
20.3200,2.627
20.3600,2.675
20.4000,2.660
20.4400,2.652
20.4800,2.751
20.5200,2.645
20.5600,2.584
20.6000,2.594
20.6400,2.684
20.6800,2.619
20.7200,2.627
20.7600,2.532
20.8000,2.580
20.8400,2.527
20.8800,2.542
20.9200,2.513
20.9600,2.577
21.0000,2.557
21.0400,2.633
21.0800,2.516
21.1200,2.624
21.1600,2.577
21.2000,2.614
21.2400,2.599
21.2800,2.597
21.3200,2.506
21.3600,2.488
21.4000,2.484
21.4400,2.502
21.4800,2.518
21.5200,2.491
21.5600,2.400
21.6000,2.518
21.6400,2.539
21.6800,2.549
21.7200,2.543
21.7600,2.461
21.8000,2.513
21.8400,2.487
21.8800,2.534
21.9200,2.560
21.9600,2.544
22.0000,2.523
22.0400,2.438
22.0800,2.514
22.1200,2.416
22.1600,2.515
22.2000,2.526
22.2400,2.536
22.2800,2.513
22.3200,2.406
22.3600,2.455
22.4000,2.411
22.4400,2.423
22.4800,2.380
22.5200,2.417
22.5600,2.429
22.6000,2.387
22.6400,2.512
22.6800,2.356
22.7200,2.389
22.7600,2.472
22.8000,2.381
22.8400,2.403
22.8800,2.387
22.9200,2.338
22.9600,2.369
23.0000,2.341
23.0400,2.338
23.0800,2.370
23.1200,2.352
23.1600,2.444
23.2000,2.364
23.2400,2.365
23.2800,2.410
23.3200,2.421
23.3600,2.345
23.4000,2.308
23.4400,2.395
23.4800,2.354
23.5200,2.342
23.5600,2.341
23.6000,2.324
23.6400,2.382
23.6800,2.283
23.7200,2.325
23.7600,2.420
23.8000,2.382
23.8400,2.327
23.8800,2.292
23.9200,2.321
23.9600,2.278
24.0000,2.329
24.0400,2.314
24.0800,2.339
24.1200,2.352
24.1600,2.450
24.2000,2.249
24.2400,2.346
24.2800,2.312
24.3200,2.277
24.3600,2.329
24.4000,2.304
24.4400,2.230
24.4800,2.301
24.5200,2.305
24.5600,2.280
24.6000,2.305
24.6400,2.278
24.6800,2.297
24.7200,2.316
24.7600,2.256
24.8000,2.204
24.8400,2.318
24.8800,2.268
24.9200,2.273
24.9600,2.225
25.0000,2.266
25.0400,2.249
25.0800,2.283
25.1200,2.256
25.1600,2.177
25.2000,2.215
25.2400,2.182
25.2800,2.170
25.3200,2.274
25.3600,2.232
25.4000,2.216
25.4400,2.100
25.4800,2.192
25.5200,2.150
25.5600,2.211
25.6000,2.295
25.6400,2.043
25.6800,2.310
25.7200,2.148
25.7600,2.172
25.8000,2.083
25.8400,2.258
25.8800,2.217
25.9200,2.072
25.9600,2.139
26.0000,2.137
26.0400,2.225
26.0800,2.128
26.1200,2.112
26.1600,2.122
26.2000,2.139
26.2400,2.118
26.2800,2.117
26.3200,2.163
26.3600,2.163
26.4000,2.043
26.4400,2.114
26.4800,2.062
26.5200,2.071
26.5600,2.105
26.6000,2.111
26.6400,2.063
26.6800,2.119
26.7200,2.073
26.7600,2.145
26.8000,2.032
26.8400,2.113
26.8800,1.996
26.9200,2.148
26.9600,1.978
27.0000,2.089
27.0400,2.075
27.0800,1.990
27.1200,2.099
27.1600,2.002
27.2000,2.050
27.2400,2.040
27.2800,2.070
27.3200,2.055
27.3600,2.056
27.4000,2.048
27.4400,2.039
27.4800,2.077
27.5200,2.030
27.5600,2.029
27.6000,2.066
27.6400,2.066
27.6800,2.028
27.7200,2.069
27.7600,2.044
27.8000,2.022
27.8400,2.047
27.8800,1.989
27.9200,1.993
27.9600,1.947
28.0000,2.069
28.0400,1.930
28.0800,2.000
28.1200,2.018
28.1600,1.940
28.2000,1.963
28.2400,1.915
28.2800,1.969
28.3200,2.021
28.3600,1.935
28.4000,1.910
28.4400,1.923
28.4800,1.991
28.5200,1.959
28.5600,1.937
28.6000,1.916
28.6400,1.921
28.6800,1.927
28.7200,1.905
28.7600,1.900
28.8000,1.887
28.8400,1.915
28.8800,1.936
28.9200,1.939
28.9600,2.022
29.0000,1.948
29.0400,1.903
29.0800,1.862
29.1200,1.990
29.1600,1.922
29.2000,1.865
29.2400,1.890
29.2800,1.913
29.3200,1.866
29.3600,1.897
29.4000,1.976
29.4400,1.862
29.4800,1.827
29.5200,1.912
29.5600,1.871
29.6000,1.916
29.6400,1.874
29.6800,1.921
29.7200,1.944
29.7600,1.967
29.8000,1.855
29.8400,1.901
29.8800,1.837
29.9200,1.824
29.9600,1.871
30.0000,1.942
30.0400,1.934
30.0800,1.851
30.1200,1.810
30.1600,1.800
30.2000,1.798
30.2400,1.920
30.2800,1.875
30.3200,1.803
30.3600,1.892
30.4000,1.808
30.4400,1.890
30.4800,1.748
30.5200,1.819
30.5600,1.819
30.6000,1.782
30.6400,1.809
30.6800,1.801
30.7200,1.827
30.7600,1.798
30.8000,1.873
30.8400,1.781
30.8800,1.782
30.9200,1.778
30.9600,1.873
31.0000,1.856
31.0400,1.766
31.0800,1.823
31.1200,1.750
31.1600,1.734
31.2000,1.814
31.2400,1.757
31.2800,1.773
31.3200,1.745
31.3600,1.725
31.4000,1.794
31.4400,1.746
31.4800,1.840
31.5200,1.748
31.5600,1.790
31.6000,1.777
31.6400,1.748
31.6800,1.657
31.7200,1.796
31.7600,1.651
31.8000,1.754
31.8400,1.816
31.8800,1.695
31.9200,1.758
31.9600,1.697
32.0000,1.732
32.0400,1.755
32.0800,1.652
32.1200,1.658
32.1600,1.666
32.2000,1.660
32.2400,1.704
32.2800,1.666
32.3200,1.704
32.3600,1.668
32.4000,1.731
32.4400,1.630
32.4800,1.670
32.5200,1.681
32.5600,1.730
32.6000,1.697
32.6400,1.712
32.6800,1.647
32.7200,1.693
32.7600,1.735
32.8000,1.641
32.8400,1.663
32.8800,1.644
32.9200,1.733
32.9600,1.686
33.0000,1.673
33.0400,1.678
33.0800,1.596
33.1200,1.672
33.1600,1.611
33.2000,1.590
33.2400,1.694
33.2800,1.698
33.3200,1.730
33.3600,1.592
33.4000,1.625
33.4400,1.613
33.4800,1.592
33.5200,1.649
33.5600,1.579
33.6000,1.634
33.6400,1.617
33.6800,1.653
33.7200,1.561
33.7600,1.652
33.8000,1.595
33.8400,1.604
33.8800,1.589
33.9200,1.544
33.9600,1.565
34.0000,1.676
34.0400,1.550
34.0800,1.627
34.1200,1.577
34.1600,1.541
34.2000,1.527
34.2400,1.570
34.2800,1.535
34.3200,1.575
34.3600,1.576
34.4000,1.586
34.4400,1.517
34.4800,1.603
34.5200,1.543
34.5600,1.548
34.6000,1.523
34.6400,1.528
34.6800,1.571
34.7200,1.596
34.7600,1.552
34.8000,1.526
34.8400,1.577
34.8800,1.531
34.9200,1.566
34.9600,1.524
35.0000,1.557
35.0400,1.541
35.0800,1.512
35.1200,1.576
35.1600,1.566
35.2000,1.482
35.2400,1.546
35.2800,1.464
35.3200,1.547
35.3600,1.580
35.4000,1.522
35.4400,1.526
35.4800,1.530
35.5200,1.508
35.5600,1.505
35.6000,1.536
35.6400,1.570
35.6800,1.528
35.7200,1.505
35.7600,1.569
35.8000,1.550
35.8400,1.573
35.8800,1.584
35.9200,1.605
35.9600,1.561
36.0000,1.628
36.0400,1.560
36.0800,1.563
36.1200,1.513
36.1600,1.569
36.2000,1.598
36.2400,1.615
36.2800,1.548
36.3200,1.530
36.3600,1.580
36.4000,1.557
36.4400,1.619
36.4800,1.572
36.5200,1.495
36.5600,1.546
36.6000,1.565
36.6400,1.588
36.6800,1.570
36.7200,1.562
36.7600,1.574
36.8000,1.547
36.8400,1.589
36.8800,1.523
36.9200,1.606
36.9600,1.610
37.0000,1.632
37.0400,1.630
37.0800,1.663
37.1200,1.631
37.1600,1.660
37.2000,1.620
37.2400,1.725
37.2800,1.667
37.3200,1.756
37.3600,1.741
37.4000,1.723
37.4400,1.844
37.4800,1.821
37.5200,1.850
37.5600,2.067
37.6000,2.045
37.6400,2.266
37.6800,2.154
37.7200,2.256
37.7600,2.337
37.8000,2.580
37.8400,2.755
37.8800,2.966
37.9200,3.185
37.9600,3.717
38.0000,4.254
38.0400,4.835
38.0800,5.646
38.1200,6.803
38.1600,8.065
38.2000,9.409
38.2400,10.634
38.2800,11.148
38.3200,10.953
38.3600,10.512
38.4000,9.348
38.4400,8.057
38.4800,6.953
38.5200,5.820
38.5600,4.829
38.6000,4.267
38.6400,3.748
38.6800,3.267
38.7200,3.042
38.7600,2.760
38.8000,2.527
38.8400,2.389
38.8800,2.349
38.9200,2.259
38.9600,1.989
39.0000,1.986
39.0400,1.910
39.0800,1.840
39.1200,1.842
39.1600,1.843
39.2000,1.763
39.2400,1.788
39.2800,1.761
39.3200,1.713
39.3600,1.651
39.4000,1.721
39.4400,1.653
39.4800,1.660
39.5200,1.675
39.5600,1.714
39.6000,1.669
39.6400,1.677
39.6800,1.653
39.7200,1.640
39.7600,1.719
39.8000,1.594
39.8400,1.568
39.8800,1.529
39.9200,1.527
39.9600,1.484
40.0000,1.491
40.0400,1.475
40.0800,1.420
40.1200,1.421
40.1600,1.416
40.2000,1.448
40.2400,1.430
40.2800,1.405
40.3200,1.398
40.3600,1.351
40.4000,1.402
40.4400,1.381
40.4800,1.404
40.5200,1.420
40.5600,1.431
40.6000,1.343
40.6400,1.367
40.6800,1.340
40.7200,1.294
40.7600,1.370
40.8000,1.458
40.8400,1.416
40.8800,1.507
40.9200,1.426
40.9600,1.479
41.0000,1.476
41.0400,1.443
41.0800,1.454
41.1200,1.543
41.1600,1.555
41.2000,1.498
41.2400,1.440
41.2800,1.403
41.3200,1.325
41.3600,1.381
41.4000,1.376
41.4400,1.314
41.4800,1.340
41.5200,1.345
41.5600,1.290
41.6000,1.288
41.6400,1.288
41.6800,1.290
41.7200,1.199
41.7600,1.204
41.8000,1.241
41.8400,1.238
41.8800,1.194
41.9200,1.263
41.9600,1.224
42.0000,1.176
42.0400,1.211
42.0800,1.208
42.1200,1.149
42.1600,1.154
42.2000,1.170
42.2400,1.233
42.2800,1.158
42.3200,1.228
42.3600,1.245
42.4000,1.182
42.4400,1.101
42.4800,1.172
42.5200,1.208
42.5600,1.185
42.6000,1.211
42.6400,1.165
42.6800,1.203
42.7200,1.164
42.7600,1.164
42.8000,1.224
42.8400,1.190
42.8800,1.132
42.9200,1.181
42.9600,1.151
43.0000,1.184
43.0400,1.189
43.0800,1.161
43.1200,1.205
43.1600,1.252
43.2000,1.214
43.2400,1.251
43.2800,1.217
43.3200,1.224
43.3600,1.254
43.4000,1.244
43.4400,1.236
43.4800,1.245
43.5200,1.255
43.5600,1.303
43.6000,1.295
43.6400,1.346
43.6800,1.426
43.7200,1.400
43.7600,1.496
43.8000,1.488
43.8400,1.441
43.8800,1.506
43.9200,1.558
43.9600,1.613
44.0000,1.691
44.0400,1.731
44.0800,1.816
44.1200,1.966
44.1600,2.000
44.2000,2.223
44.2400,2.334
44.2800,2.606
44.3200,2.654
44.3600,2.948
44.4000,3.109
44.4400,3.322
44.4800,3.354
44.5200,3.420
44.5600,3.369
44.6000,3.311
44.6400,3.100
44.6800,2.971
44.7200,2.677
44.7600,2.469
44.8000,2.414
44.8400,2.121
44.8800,1.958
44.9200,1.872
44.9600,1.777
45.0000,1.561
45.0400,1.516
45.0800,1.445
45.1200,1.428
45.1600,1.432
45.2000,1.325
45.2400,1.316
45.2800,1.264
45.3200,1.238
45.3600,1.170
45.4000,1.191
45.4400,1.198
45.4800,1.155
45.5200,1.114
45.5600,1.144
45.6000,1.074
45.6400,1.087
45.6800,1.092
45.7200,1.028
45.7600,1.115
45.8000,1.046
45.8400,1.058
45.8800,1.028
45.9200,1.068
45.9600,1.065
46.0000,1.060
46.0400,1.022
46.0800,1.027
46.1200,1.002
46.1600,0.987
46.2000,1.006
46.2400,1.029
46.2800,0.990
46.3200,0.955
46.3600,0.977
46.4000,0.954
46.4400,0.906
46.4800,0.997
46.5200,0.962
46.5600,0.908
46.6000,0.959
46.6400,0.970
46.6800,0.921
46.7200,0.895
46.7600,0.921
46.8000,0.925
46.8400,0.949
46.8800,0.946
46.9200,0.911
46.9600,0.883
47.0000,0.887
47.0400,0.881
47.0800,0.961
47.1200,0.920
47.1600,0.931
47.2000,0.905
47.2400,0.891
47.2800,0.907
47.3200,0.866
47.3600,0.903
47.4000,0.904
47.4400,0.862
47.4800,0.861
47.5200,0.948
47.5600,0.931
47.6000,0.893
47.6400,0.867
47.6800,0.896
47.7200,0.923
47.7600,0.874
47.8000,0.878
47.8400,0.891
47.8800,0.884
47.9200,0.949
47.9600,0.924
48.0000,0.917
48.0400,0.897
48.0800,0.889
48.1200,0.906
48.1600,0.853
48.2000,0.883
48.2400,0.890
48.2800,0.859
48.3200,0.898
48.3600,0.868
48.4000,0.861
48.4400,0.885
48.4800,0.852
48.5200,0.821
48.5600,0.841
48.6000,0.809
48.6400,0.839
48.6800,0.848
48.7200,0.811
48.7600,0.874
48.8000,0.806
48.8400,0.839
48.8800,0.823
48.9200,0.860
48.9600,0.860
49.0000,0.806
49.0400,0.836
49.0800,0.875
49.1200,0.824
49.1600,0.826
49.2000,0.814
49.2400,0.824
49.2800,0.787
49.3200,0.815
49.3600,0.854
49.4000,0.821
49.4400,0.848
49.4800,0.845
49.5200,0.807
49.5600,0.812
49.6000,0.800
49.6400,0.770
49.6800,0.781
49.7200,0.828
49.7600,0.800
49.8000,0.830
49.8400,0.726
49.8800,0.767
49.9200,0.771
49.9600,0.758
50.0000,0.817
50.0400,0.780
50.0800,0.806
50.1200,0.795
50.1600,0.834
50.2000,0.780
50.2400,0.852
50.2800,0.786
50.3200,0.803
50.3600,0.758
50.4000,0.748
50.4400,0.816
50.4800,0.787
50.5200,0.767
50.5600,0.757
50.6000,0.835
50.6400,0.754
50.6800,0.739
50.7200,0.737
50.7600,0.743
50.8000,0.825
50.8400,0.763
50.8800,0.750
50.9200,0.733
50.9600,0.711
51.0000,0.769
51.0400,0.789
51.0800,0.777
51.1200,0.736
51.1600,0.757
51.2000,0.733
51.2400,0.818
51.2800,0.805
51.3200,0.729
51.3600,0.709
51.4000,0.753
51.4400,0.771
51.4800,0.737
51.5200,0.732
51.5600,0.695
51.6000,0.741
51.6400,0.777
51.6800,0.770
51.7200,0.737
51.7600,0.748
51.8000,0.726
51.8400,0.785
51.8800,0.756
51.9200,0.693
51.9600,0.687
52.0000,0.740
52.0400,0.746
52.0800,0.703
52.1200,0.715
52.1600,0.770
52.2000,0.736
52.2400,0.709
52.2800,0.673
52.3200,0.739
52.3600,0.766
52.4000,0.780
52.4400,0.711
52.4800,0.737
52.5200,0.714
52.5600,0.743
52.6000,0.733
52.6400,0.703
52.6800,0.693
52.7200,0.678
52.7600,0.689
52.8000,0.744
52.8400,0.714
52.8800,0.711
52.9200,0.682
52.9600,0.679
53.0000,0.706
53.0400,0.683
53.0800,0.721
53.1200,0.666
53.1600,0.708
53.2000,0.693
53.2400,0.765
53.2800,0.695
53.3200,0.688
53.3600,0.697
53.4000,0.674
53.4400,0.719
53.4800,0.679
53.5200,0.668
53.5600,0.724
53.6000,0.678
53.6400,0.736
53.6800,0.661
53.7200,0.701
53.7600,0.691
53.8000,0.677
53.8400,0.663
53.8800,0.722
53.9200,0.678
53.9600,0.685
54.0000,0.658
54.0400,0.683
54.0800,0.705
54.1200,0.720
54.1600,0.651
54.2000,0.642
54.2400,0.688
54.2800,0.646
54.3200,0.667
54.3600,0.629
54.4000,0.697
54.4400,0.666
54.4800,0.679
54.5200,0.676
54.5600,0.638
54.6000,0.653
54.6400,0.700
54.6800,0.661
54.7200,0.639
54.7600,0.644
54.8000,0.696
54.8400,0.715
54.8800,0.681
54.9200,0.697
54.9600,0.683
55.0000,0.644
55.0400,0.621
55.0800,0.648
55.1200,0.664
55.1600,0.620
55.2000,0.636
55.2400,0.642
55.2800,0.615
55.3200,0.668
55.3600,0.684
55.4000,0.669
55.4400,0.650
55.4800,0.662
55.5200,0.628
55.5600,0.609
55.6000,0.686
55.6400,0.664
55.6800,0.677
55.7200,0.614
55.7600,0.640
55.8000,0.667
55.8400,0.684
55.8800,0.632
55.9200,0.618
55.9600,0.646
56.0000,0.637
56.0400,0.651
56.0800,0.627
56.1200,0.630
56.1600,0.642
56.2000,0.634
56.2400,0.663
56.2800,0.640
56.3200,0.621
56.3600,0.649
56.4000,0.663
56.4400,0.638
56.4800,0.633
56.5200,0.605
56.5600,0.597
56.6000,0.608
56.6400,0.614
56.6800,0.616
56.7200,0.610
56.7600,0.578
56.8000,0.577
56.8400,0.632
56.8800,0.597
56.9200,0.611
56.9600,0.615
57.0000,0.609
57.0400,0.625
57.0800,0.617
57.1200,0.611
57.1600,0.608
57.2000,0.671
57.2400,0.647
57.2800,0.618
57.3200,0.627
57.3600,0.623
57.4000,0.579
57.4400,0.644
57.4800,0.653
57.5200,0.647
57.5600,0.597
57.6000,0.636
57.6400,0.617
57.6800,0.600
57.7200,0.599
57.7600,0.609
57.8000,0.654
57.8400,0.639
57.8800,0.605
57.9200,0.656
57.9600,0.589
58.0000,0.614
58.0400,0.606
58.0800,0.627
58.1200,0.628
58.1600,0.630
58.2000,0.624
58.2400,0.599
58.2800,0.583
58.3200,0.607
58.3600,0.610
58.4000,0.573
58.4400,0.613
58.4800,0.575
58.5200,0.591
58.5600,0.553
58.6000,0.597
58.6400,0.603
58.6800,0.559
58.7200,0.603
58.7600,0.643
58.8000,0.644
58.8400,0.615
58.8800,0.602
58.9200,0.610
58.9600,0.613
59.0000,0.577
59.0400,0.567
59.0800,0.571
59.1200,0.586
59.1600,0.539
59.2000,0.585
59.2400,0.566
59.2800,0.596
59.3200,0.574
59.3600,0.609
59.4000,0.593
59.4400,0.586
59.4800,0.567
59.5200,0.568
59.5600,0.564
59.6000,0.586
59.6400,0.587
59.6800,0.585
59.7200,0.551
59.7600,0.580
59.8000,0.554
59.8400,0.566
59.8800,0.530
59.9200,0.642
59.9600,0.543
60.0000,0.589
60.0400,0.589
60.0800,0.598
60.1200,0.603
60.1600,0.573
60.2000,0.594
60.2400,0.582
60.2800,0.558
60.3200,0.572
60.3600,0.570
60.4000,0.580
60.4400,0.600
60.4800,0.582
60.5200,0.541
60.5600,0.591
60.6000,0.577
60.6400,0.586
60.6800,0.576
60.7200,0.545
60.7600,0.560
60.8000,0.564
60.8400,0.583
60.8800,0.500
60.9200,0.570
60.9600,0.531
61.0000,0.558
61.0400,0.543
61.0800,0.606
61.1200,0.548
61.1600,0.563
61.2000,0.555
61.2400,0.555
61.2800,0.596
61.3200,0.584
61.3600,0.598
61.4000,0.577
61.4400,0.580
61.4800,0.598
61.5200,0.556
61.5600,0.555
61.6000,0.581
61.6400,0.652
61.6800,0.676
61.7200,0.675
61.7600,0.596
61.8000,0.593
61.8400,0.532
61.8800,0.585
61.9200,0.584
61.9600,0.540
62.0000,0.531
62.0400,0.569
62.0800,0.573
62.1200,0.573
62.1600,0.557
62.2000,0.532
62.2400,0.553
62.2800,0.570
62.3200,0.546
62.3600,0.557
62.4000,0.565
62.4400,0.582
62.4800,0.571
62.5200,0.569
62.5600,0.555
62.6000,0.589
62.6400,0.557
62.6800,0.589
62.7200,0.576
62.7600,0.522
62.8000,0.567
62.8400,0.556
62.8800,0.548
62.9200,0.607
62.9600,0.579
63.0000,0.561
63.0400,0.549
63.0800,0.572
63.1200,0.597
63.1600,0.574
63.2000,0.562
63.2400,0.585
63.2800,0.595
63.3200,0.511
63.3600,0.623
63.4000,0.592
63.4400,0.605
63.4800,0.647
63.5200,0.612
63.5600,0.566
63.6000,0.622
63.6400,0.642
63.6800,0.614
63.7200,0.583
63.7600,0.617
63.8000,0.634
63.8400,0.606
63.8800,0.695
63.9200,0.677
63.9600,0.681
64.0000,0.703
64.0400,0.658
64.0800,0.749
64.1200,0.719
64.1600,0.773
64.2000,0.770
64.2400,0.784
64.2800,0.814
64.3200,0.881
64.3600,0.921
64.4000,0.947
64.4400,1.111
64.4800,1.128
64.5200,1.211
64.5600,1.322
64.6000,1.391
64.6400,1.506
64.6800,1.551
64.7200,1.641
64.7600,1.711
64.8000,1.713
64.8400,1.685
64.8800,1.629
64.9200,1.582
64.9600,1.438
65.0000,1.366
65.0400,1.365
65.0800,1.248
65.1200,1.141
65.1600,1.125
65.2000,1.044
65.2400,0.996
65.2800,0.874
65.3200,0.974
65.3600,0.899
65.4000,0.839
65.4400,0.843
65.4800,0.864
65.5200,0.803
65.5600,0.791
65.6000,0.760
65.6400,0.740
65.6800,0.745
65.7200,0.796
65.7600,0.725
65.8000,0.728
65.8400,0.735
65.8800,0.787
65.9200,0.750
65.9600,0.760
66.0000,0.746
66.0400,0.778
66.0800,0.770
66.1200,0.741
66.1600,0.761
66.2000,0.771
66.2400,0.733
66.2800,0.785
66.3200,0.825
66.3600,0.766
66.4000,0.829
66.4400,0.757
66.4800,0.821
66.5200,0.853
66.5600,0.807
66.6000,0.872
66.6400,0.848
66.6800,0.841
66.7200,0.903
66.7600,0.890
66.8000,0.885
66.8400,0.862
66.8800,0.914
66.9200,0.950
66.9600,0.896
67.0000,0.961
67.0400,0.929
67.0800,0.997
67.1200,0.991
67.1600,1.038
67.2000,1.061
67.2400,1.092
67.2800,1.120
67.3200,1.081
67.3600,1.130
67.4000,1.095
67.4400,1.113
67.4800,1.233
67.5200,1.251
67.5600,1.215
67.6000,1.247
67.6400,1.282
67.6800,1.309
67.7200,1.392
67.7600,1.363
67.8000,1.451
67.8400,1.409
67.8800,1.447
67.9200,1.492
67.9600,1.504
68.0000,1.590
68.0400,1.655
68.0800,1.602
68.1200,1.613
68.1600,1.750
68.2000,1.799
68.2400,1.936
68.2800,1.821
68.3200,1.933
68.3600,2.103
68.4000,2.032
68.4400,2.195
68.4800,2.345
68.5200,2.477
68.5600,2.585
68.6000,2.701
68.6400,2.978
68.6800,3.363
68.7200,4.024
68.7600,5.163
68.8000,6.452
68.8400,6.922
68.8800,6.955
68.9200,7.733
68.9600,9.749
69.0000,14.668
69.0400,27.342
69.0800,89.042
69.1200,356.733
69.1600,457.306
69.2000,190.988
69.2400,54.496
69.2800,69.317
69.3200,199.717
69.3600,235.795
69.4000,96.698
69.4400,26.471
69.4800,13.225
69.5200,8.994
69.5600,7.175
69.6000,5.821
69.6400,4.984
69.6800,4.439
69.7200,3.989
69.7600,3.561
69.8000,3.382
69.8400,3.132
69.8800,2.812
69.9200,2.685
69.9600,2.619
70.0000,2.558
70.0400,2.424
70.0800,2.320
70.1200,2.267
70.1600,2.114
70.2000,2.038
70.2400,1.984
70.2800,1.904
70.3200,1.854
70.3600,1.793
70.4000,1.805
70.4400,1.644
70.4800,1.625
70.5200,1.630
70.5600,1.514
70.6000,1.527
70.6400,1.496
70.6800,1.503
70.7200,1.405
70.7600,1.375
70.8000,1.317
70.8400,1.351
70.8800,1.295
70.9200,1.179
70.9600,1.210
71.0000,1.191
71.0400,1.161
71.0800,1.117
71.1200,1.082
71.1600,1.084
71.2000,1.062
71.2400,1.030
71.2800,0.985
71.3200,1.000
71.3600,0.943
71.4000,0.953
71.4400,0.908
71.4800,0.872
71.5200,0.889
71.5600,0.828
71.6000,0.838
71.6400,0.771
71.6800,0.835
71.7200,0.812
71.7600,0.799
71.8000,0.778
71.8400,0.759
71.8800,0.762
71.9200,0.757
71.9600,0.734
72.0000,0.689
72.0400,0.631
72.0800,0.690
72.1200,0.674
72.1600,0.689
72.2000,0.652
72.2400,0.643
72.2800,0.690
72.3200,0.669
72.3600,0.667
72.4000,0.591
72.4400,0.591
72.4800,0.631
72.5200,0.596
72.5600,0.552
72.6000,0.550
72.6400,0.555
72.6800,0.547
72.7200,0.566
72.7600,0.595
72.8000,0.550
72.8400,0.522
72.8800,0.553
72.9200,0.547
72.9600,0.570
73.0000,0.495
73.0400,0.512
73.0800,0.502
73.1200,0.555
73.1600,0.541
73.2000,0.500
73.2400,0.515
73.2800,0.521
73.3200,0.502
73.3600,0.518
73.4000,0.505
73.4400,0.525
73.4800,0.447
73.5200,0.491
73.5600,0.487
73.6000,0.457
73.6400,0.461
73.6800,0.459
73.7200,0.446
73.7600,0.461
73.8000,0.459
73.8400,0.459
73.8800,0.430
73.9200,0.487
73.9600,0.467
74.0000,0.454
74.0400,0.417
74.0800,0.417
74.1200,0.429
74.1600,0.454
74.2000,0.425
74.2400,0.413
74.2800,0.422
74.3200,0.419
74.3600,0.433
74.4000,0.434
74.4400,0.460
74.4800,0.415
74.5200,0.407
74.5600,0.438
74.6000,0.447
74.6400,0.408
74.6800,0.420
74.7200,0.424
74.7600,0.389
74.8000,0.426
74.8400,0.368
74.8800,0.406
74.9200,0.413
74.9600,0.406
75.0000,0.439
75.0400,0.375
75.0800,0.430
75.1200,0.420
75.1600,0.419
75.2000,0.430
75.2400,0.418
75.2800,0.391
75.3200,0.396
75.3600,0.383
75.4000,0.371
75.4400,0.371
75.4800,0.362
75.5200,0.373
75.5600,0.392
75.6000,0.386
75.6400,0.399
75.6800,0.390
75.7200,0.388
75.7600,0.395
75.8000,0.385
75.8400,0.383
75.8800,0.383
75.9200,0.413
75.9600,0.381
76.0000,0.434
76.0400,0.387
76.0800,0.388
76.1200,0.383
76.1600,0.437
76.2000,0.389
76.2400,0.374
76.2800,0.406
76.3200,0.367
76.3600,0.386
76.4000,0.408
76.4400,0.399
76.4800,0.399
76.5200,0.416
76.5600,0.418
76.6000,0.412
76.6400,0.402
76.6800,0.436
76.7200,0.408
76.7600,0.468
76.8000,0.452
76.8400,0.410
76.8800,0.437
76.9200,0.450
76.9600,0.462
77.0000,0.452
77.0400,0.497
77.0800,0.521
77.1200,0.538
77.1600,0.534
77.2000,0.567
77.2400,0.561
77.2800,0.624
77.3200,0.650
77.3600,0.681
77.4000,0.755
77.4400,0.839
77.4800,0.814
77.5200,0.893
77.5600,1.013
77.6000,1.037
77.6400,1.134
77.6800,1.165
77.7200,1.206
77.7600,1.243
77.8000,1.253
77.8400,1.265
77.8800,1.226
77.9200,1.170
77.9600,1.091
78.0000,1.056
78.0400,1.039
78.0800,0.990
78.1200,0.879
78.1600,0.821
78.2000,0.790
78.2400,0.721
78.2800,0.685
78.3200,0.652
78.3600,0.588
78.4000,0.580
78.4400,0.568
78.4800,0.549
78.5200,0.541
78.5600,0.497
78.6000,0.489
78.6400,0.481
78.6800,0.440
78.7200,0.448
78.7600,0.431
78.8000,0.409
78.8400,0.412
78.8800,0.401
78.9200,0.408
78.9600,0.393
79.0000,0.374
79.0400,0.371
79.0800,0.356
79.1200,0.399
79.1600,0.386
79.2000,0.351
79.2400,0.361
79.2800,0.368
79.3200,0.346
79.3600,0.371
79.4000,0.340
79.4400,0.337
79.4800,0.336
79.5200,0.333
79.5600,0.377
79.6000,0.373
79.6400,0.338
79.6800,0.384
79.7200,0.368
79.7600,0.329
79.8000,0.329
79.8400,0.325
79.8800,0.317
79.9200,0.326
79.9600,0.318
80.0000,0.339
