theta,intensity
5.0000,6.764
5.0400,6.607
5.0800,6.772
5.1200,6.867
5.1600,6.681
5.2000,6.548
5.2400,6.691
5.2800,6.671
5.3200,6.772
5.3600,6.562
5.4000,6.469
5.4400,6.346
5.4800,6.303
5.5200,6.283
5.5600,6.198
5.6000,6.176
5.6400,6.036
5.6800,6.114
5.7200,6.019
5.7600,5.937
5.8000,5.831
5.8400,5.804
5.8800,5.773
5.9200,5.612
5.9600,5.435
6.0000,5.385
6.0400,5.397
6.0800,5.230
6.1200,5.073
6.1600,5.153
6.2000,4.970
6.2400,4.857
6.2800,4.774
6.3200,4.724
6.3600,4.674
6.4000,4.586
6.4400,4.512
6.4800,4.429
6.5200,4.440
6.5600,4.409
6.6000,4.288
6.6400,4.186
6.6800,4.275
6.7200,4.235
6.7600,4.192
6.8000,4.260
6.8400,4.096
6.8800,4.012
6.9200,4.068
6.9600,4.060
7.0000,4.148
7.0400,4.072
7.0800,4.106
7.1200,4.037
7.1600,4.174
7.2000,3.944
7.2400,3.945
7.2800,4.036
7.3200,4.020
7.3600,3.875
7.4000,3.877
7.4400,3.982
7.4800,3.941
7.5200,3.960
7.5600,3.919
7.6000,3.982
7.6400,3.875
7.6800,3.975
7.7200,3.958
7.7600,3.811
7.8000,4.021
7.8400,3.941
7.8800,3.927
7.9200,3.962
7.9600,3.861
8.0000,3.896
8.0400,3.778
8.0800,3.831
8.1200,3.805
8.1600,3.891
8.2000,3.823
8.2400,3.908
8.2800,3.927
8.3200,3.943
8.3600,3.786
8.4000,3.879
8.4400,3.703
8.4800,3.790
8.5200,3.765
8.5600,3.832
8.6000,3.832
8.6400,3.743
8.6800,3.790
8.7200,3.835
8.7600,3.862
8.8000,3.754
8.8400,3.734
8.8800,3.616
8.9200,3.814
8.9600,3.693
9.0000,3.782
9.0400,3.720
9.0800,3.669
9.1200,3.708
9.1600,3.757
9.2000,3.839
9.2400,3.745
9.2800,3.688
9.3200,3.719
9.3600,3.744
9.4000,3.771
9.4400,3.679
9.4800,3.805
9.5200,3.731
9.5600,3.591
9.6000,3.685
9.6400,3.649
9.6800,3.694
9.7200,3.805
9.7600,3.644
9.8000,3.560
9.8400,3.684
9.8800,3.760
9.9200,3.569
9.9600,3.540
10.0000,3.609
10.0400,3.647
10.0800,3.654
10.1200,3.623
10.1600,3.671
10.2000,3.652
10.2400,3.656
10.2800,3.619
10.3200,3.608
10.3600,3.620
10.4000,3.526
10.4400,3.679
10.4800,3.567
10.5200,3.596
10.5600,3.525
10.6000,3.537
10.6400,3.572
10.6800,3.504
10.7200,3.526
10.7600,3.558
10.8000,3.561
10.8400,3.548
10.8800,3.569
10.9200,3.606
10.9600,3.452
11.0000,3.452
11.0400,3.593
11.0800,3.459
11.1200,3.458
11.1600,3.510
11.2000,3.417
11.2400,3.480
11.2800,3.553
11.3200,3.439
11.3600,3.410
11.4000,3.481
11.4400,3.471
11.4800,3.510
11.5200,3.478
11.5600,3.450
11.6000,3.455
11.6400,3.517
11.6800,3.484
11.7200,3.463
11.7600,3.546
11.8000,3.371
11.8400,3.448
11.8800,3.446
11.9200,3.411
11.9600,3.445
12.0000,3.368
12.0400,3.445
12.0800,3.375
12.1200,3.530
12.1600,3.495
12.2000,3.385
12.2400,3.425
12.2800,3.407
12.3200,3.417
12.3600,3.409
12.4000,3.408
12.4400,3.418
12.4800,3.358
12.5200,3.423
12.5600,3.336
12.6000,3.436
12.6400,3.370
12.6800,3.376
12.7200,3.303
12.7600,3.385
12.8000,3.303
12.8400,3.342
12.8800,3.361
12.9200,3.410
12.9600,3.281
13.0000,3.320
13.0400,3.286
13.0800,3.415
13.1200,3.323
13.1600,3.288
13.2000,3.342
13.2400,3.254
13.2800,3.253
13.3200,3.195
13.3600,3.242
13.4000,3.300
13.4400,3.284
13.4800,3.228
13.5200,3.277
13.5600,3.295
13.6000,3.277
13.6400,3.213
13.6800,3.259
13.7200,3.205
13.7600,3.221
13.8000,3.184
13.8400,3.235
13.8800,3.195
13.9200,3.304
13.9600,3.184
14.0000,3.164
14.0400,3.204
14.0800,3.231
14.1200,3.193
14.1600,3.162
14.2000,3.145
14.2400,3.198
14.2800,3.152
14.3200,3.193
14.3600,3.134
14.4000,3.185
14.4400,3.229
14.4800,3.175
14.5200,3.101
14.5600,3.139
14.6000,3.159
14.6400,3.184
14.6800,3.165
14.7200,3.211
14.7600,3.181
14.8000,3.181
14.8400,3.129
14.8800,3.034
14.9200,3.097
14.9600,3.170
15.0000,3.136
15.0400,3.176
15.0800,3.093
15.1200,3.123
15.1600,3.178
15.2000,3.044
15.2400,3.110
15.2800,3.058
15.3200,3.103
15.3600,3.096
15.4000,3.046
15.4400,3.151
15.4800,3.053
15.5200,3.127
15.5600,3.109
15.6000,3.115
15.6400,3.036
15.6800,3.112
15.7200,3.083
15.7600,3.042
15.8000,2.976
15.8400,2.984
15.8800,3.010
15.9200,3.024
15.9600,3.079
16.0000,3.011
16.0400,3.029
16.0800,3.031
16.1200,3.052
16.1600,2.977
16.2000,2.965
16.2400,3.092
16.2800,2.924
16.3200,3.087
16.3600,3.061
16.4000,3.092
16.4400,3.004
16.4800,2.961
16.5200,3.019
16.5600,2.963
16.6000,2.870
16.6400,2.972
16.6800,3.007
16.7200,2.962
16.7600,3.004
16.8000,2.942
16.8400,2.945
16.8800,2.867
16.9200,2.951
16.9600,2.947
17.0000,2.818
17.0400,2.906
17.0800,2.939
17.1200,2.837
17.1600,2.944
17.2000,2.905
17.2400,2.823
17.2800,2.859
17.3200,2.930
17.3600,2.961
17.4000,2.952
17.4400,2.980
17.4800,2.915
17.5200,3.001
17.5600,2.850
17.6000,2.811
17.6400,2.878
17.6800,2.925
17.7200,2.894
17.7600,2.912
17.8000,2.919
17.8400,2.866
17.8800,2.776
17.9200,2.763
17.9600,3.000
18.0000,2.967
18.0400,2.819
18.0800,2.799
18.1200,2.843
18.1600,2.871
18.2000,2.789
18.2400,2.841
18.2800,2.858
18.3200,2.819
18.3600,2.811
18.4000,2.783
18.4400,2.822
18.4800,2.834
18.5200,2.783
18.5600,2.777
18.6000,2.828
18.6400,2.802
18.6800,2.663
18.7200,2.861
18.7600,2.735
18.8000,2.715
18.8400,2.781
18.8800,2.788
18.9200,2.730
18.9600,2.731
19.0000,2.751
19.0400,2.816
19.0800,2.777
19.1200,2.741
19.1600,2.734
19.2000,2.740
19.2400,2.693
19.2800,2.773
19.3200,2.734
19.3600,2.776
19.4000,2.766
19.4400,2.835
19.4800,2.653
19.5200,2.736
19.5600,2.727
19.6000,2.622
19.6400,2.659
19.6800,2.703
19.7200,2.744
19.7600,2.760
19.8000,2.722
19.8400,2.756
19.8800,2.729
19.9200,2.635
19.9600,2.619
20.0000,2.619
20.0400,2.687
20.0800,2.649
20.1200,2.674
20.1600,2.649
20.2000,2.682
20.2400,2.616
20.2800,2.592
20.3200,2.724
20.3600,2.620
20.4000,2.670
20.4400,2.715
20.4800,2.559
20.5200,2.640
20.5600,2.696
20.6000,2.655
20.6400,2.605
20.6800,2.622
20.7200,2.646
20.7600,2.530
20.8000,2.613
20.8400,2.591
20.8800,2.555
20.9200,2.570
20.9600,2.583
21.0000,2.546
21.0400,2.571
21.0800,2.537
21.1200,2.626
21.1600,2.593
21.2000,2.588
21.2400,2.547
21.2800,2.532
21.3200,2.532
21.3600,2.587
21.4000,2.560
21.4400,2.584
21.4800,2.502
21.5200,2.497
21.5600,2.574
21.6000,2.602
21.6400,2.570
21.6800,2.451
21.7200,2.547
21.7600,2.488
21.8000,2.557
21.8400,2.537
21.8800,2.539
21.9200,2.553
21.9600,2.445
22.0000,2.466
22.0400,2.503
22.0800,2.478
22.1200,2.430
22.1600,2.442
22.2000,2.403
22.2400,2.404
22.2800,2.496
22.3200,2.484
22.3600,2.470
22.4000,2.377
22.4400,2.424
22.4800,2.474
22.5200,2.420
22.5600,2.442
22.6000,2.376
22.6400,2.377
22.6800,2.464
22.7200,2.442
22.7600,2.396
22.8000,2.507
22.8400,2.343
22.8800,2.389
22.9200,2.352
22.9600,2.382
23.0000,2.346
23.0400,2.437
23.0800,2.428
23.1200,2.403
23.1600,2.384
23.2000,2.405
23.2400,2.337
23.2800,2.368
23.3200,2.417
23.3600,2.292
23.4000,2.365
23.4400,2.356
23.4800,2.374
23.5200,2.361
23.5600,2.322
23.6000,2.329
23.6400,2.352
23.6800,2.381
23.7200,2.337
23.7600,2.336
23.8000,2.263
23.8400,2.459
23.8800,2.355
23.9200,2.330
23.9600,2.310
24.0000,2.302
24.0400,2.183
24.0800,2.288
24.1200,2.384
24.1600,2.336
24.2000,2.283
24.2400,2.319
24.2800,2.428
24.3200,2.271
24.3600,2.219
24.4000,2.260
24.4400,2.379
24.4800,2.269
24.5200,2.212
24.5600,2.278
24.6000,2.299
24.6400,2.320
24.6800,2.340
24.7200,2.321
24.7600,2.298
24.8000,2.219
24.8400,2.196
24.8800,2.264
24.9200,2.379
24.9600,2.225
25.0000,2.223
25.0400,2.273
25.0800,2.313
25.1200,2.261
25.1600,2.195
25.2000,2.284
25.2400,2.179
25.2800,2.217
25.3200,2.203
25.3600,2.263
25.4000,2.296
25.4400,2.228
25.4800,2.209
25.5200,2.212
25.5600,2.188
25.6000,2.175
25.6400,2.146
25.6800,2.183
25.7200,2.186
25.7600,2.161
25.8000,2.113
25.8400,2.147
25.8800,2.164
25.9200,2.130
25.9600,2.087
26.0000,2.108
26.0400,2.214
26.0800,2.144
26.1200,2.121
26.1600,2.134
26.2000,2.120
26.2400,2.060
26.2800,2.113
26.3200,2.190
26.3600,2.160
26.4000,2.047
26.4400,2.084
26.4800,2.054
26.5200,2.095
26.5600,2.079
26.6000,2.181
26.6400,2.100
26.6800,2.082
26.7200,2.089
26.7600,2.114
26.8000,2.056
26.8400,2.126
26.8800,2.090
26.9200,1.994
26.9600,2.027
27.0000,2.031
27.0400,1.993
27.0800,2.089
27.1200,2.109
27.1600,2.069
27.2000,1.993
27.2400,2.028
27.2800,2.088
27.3200,2.033
27.3600,2.021
27.4000,1.960
27.4400,2.002
27.4800,2.004
27.5200,1.982
27.5600,1.980
27.6000,2.060
27.6400,2.047
27.6800,2.009
27.7200,2.025
27.7600,1.979
27.8000,2.101
27.8400,2.094
27.8800,2.007
27.9200,1.995
27.9600,2.011
28.0000,1.953
28.0400,1.958
28.0800,1.972
28.1200,2.023
28.1600,2.027
28.2000,1.947
28.2400,1.986
28.2800,2.005
28.3200,1.964
28.3600,1.947
28.4000,1.909
28.4400,1.909
28.4800,1.985
28.5200,1.908
28.5600,1.861
28.6000,1.897
28.6400,1.900
28.6800,1.947
28.7200,1.895
28.7600,1.947
28.8000,1.976
28.8400,1.927
28.8800,1.984
28.9200,1.892
28.9600,1.919
29.0000,1.842
29.0400,1.919
29.0800,1.823
29.1200,1.914
29.1600,1.922
29.2000,1.865
29.2400,1.907
29.2800,1.838
29.3200,1.881
29.3600,1.918
29.4000,1.857
29.4400,1.846
29.4800,1.864
29.5200,1.939
29.5600,1.973
29.6000,1.852
29.6400,1.916
29.6800,1.898
29.7200,1.907
29.7600,1.877
29.8000,1.889
29.8400,1.848
29.8800,1.924
29.9200,1.834
29.9600,1.894
30.0000,1.831
30.0400,1.941
30.0800,1.892
30.1200,1.814
30.1600,1.771
30.2000,1.857
30.2400,1.842
30.2800,1.835
30.3200,1.776
30.3600,1.874
30.4000,1.768
30.4400,1.855
30.4800,1.771
30.5200,1.804
30.5600,1.798
30.6000,1.863
30.6400,1.751
30.6800,1.749
30.7200,1.864
30.7600,1.781
30.8000,1.753
30.8400,1.796
30.8800,1.802
30.9200,1.735
30.9600,1.774
31.0000,1.726
31.0400,1.787
31.0800,1.702
31.1200,1.754
31.1600,1.746
31.2000,1.696
31.2400,1.712
31.2800,1.707
31.3200,1.690
31.3600,1.736
31.4000,1.685
31.4400,1.667
31.4800,1.775
31.5200,1.773
31.5600,1.762
31.6000,1.657
31.6400,1.639
31.6800,1.662
31.7200,1.724
31.7600,1.711
31.8000,1.779
31.8400,1.695
31.8800,1.706
31.9200,1.730
31.9600,1.712
32.0000,1.716
32.0400,1.633
32.0800,1.643
32.1200,1.675
32.1600,1.682
32.2000,1.652
32.2400,1.682
32.2800,1.704
32.3200,1.655
32.3600,1.597
32.4000,1.610
32.4400,1.575
32.4800,1.634
32.5200,1.633
32.5600,1.673
32.6000,1.585
32.6400,1.612
32.6800,1.584
32.7200,1.615
32.7600,1.540
32.8000,1.740
32.8400,1.679
32.8800,1.642
32.9200,1.646
32.9600,1.639
33.0000,1.655
33.0400,1.547
33.0800,1.626
33.1200,1.635
33.1600,1.663
33.2000,1.639
33.2400,1.720
33.2800,1.710
33.3200,1.691
33.3600,1.596
33.4000,1.614
33.4400,1.658
33.4800,1.661
33.5200,1.574
33.5600,1.605
33.6000,1.569
33.6400,1.562
33.6800,1.613
33.7200,1.606
33.7600,1.512
33.8000,1.547
33.8400,1.575
33.8800,1.522
33.9200,1.539
33.9600,1.585
34.0000,1.523
34.0400,1.521
34.0800,1.457
34.1200,1.562
34.1600,1.549
34.2000,1.544
34.2400,1.585
34.2800,1.621
34.3200,1.500
34.3600,1.509
34.4000,1.524
34.4400,1.479
34.4800,1.480
34.5200,1.577
34.5600,1.576
34.6000,1.490
34.6400,1.575
34.6800,1.527
34.7200,1.565
34.7600,1.571
34.8000,1.440
34.8400,1.558
34.8800,1.516
34.9200,1.515
34.9600,1.552
35.0000,1.491
35.0400,1.593
35.0800,1.480
35.1200,1.536
35.1600,1.475
35.2000,1.506
35.2400,1.576
35.2800,1.531
35.3200,1.575
35.3600,1.481
35.4000,1.509
35.4400,1.457
35.4800,1.490
35.5200,1.537
35.5600,1.533
35.6000,1.591
35.6400,1.532
35.6800,1.532
35.7200,1.543
35.7600,1.596
35.8000,1.522
35.8400,1.580
35.8800,1.572
35.9200,1.570
35.9600,1.585
36.0000,1.496
36.0400,1.536
36.0800,1.554
36.1200,1.482
36.1600,1.514
36.2000,1.531
36.2400,1.455
36.2800,1.492
36.3200,1.419
36.3600,1.491
36.4000,1.493
36.4400,1.505
36.4800,1.496
36.5200,1.559
36.5600,1.477
36.6000,1.506
36.6400,1.464
36.6800,1.506
36.7200,1.545
36.7600,1.520
36.8000,1.531
36.8400,1.517
36.8800,1.522
36.9200,1.503
36.9600,1.557
37.0000,1.580
37.0400,1.559
37.0800,1.514
37.1200,1.542
37.1600,1.563
37.2000,1.542
37.2400,1.566
37.2800,1.606
37.3200,1.575
37.3600,1.569
37.4000,1.581
37.4400,1.687
37.4800,1.601
37.5200,1.686
37.5600,1.640
37.6000,1.642
37.6400,1.703
37.6800,1.734
37.7200,1.761
37.7600,1.702
37.8000,1.754
37.8400,1.843
37.8800,1.980
37.9200,1.953
37.9600,2.014
38.0000,2.049
38.0400,2.223
38.0800,2.269
38.1200,2.528
38.1600,2.851
38.2000,3.021
38.2400,3.068
38.2800,3.218
38.3200,3.182
38.3600,3.227
38.4000,3.245
38.4400,3.381
38.4800,3.436
38.5200,3.622
38.5600,3.709
38.6000,3.700
38.6400,3.807
38.6800,3.777
38.7200,3.992
38.7600,3.959
38.8000,3.929
38.8400,3.878
38.8800,3.897
38.9200,3.824
38.9600,3.697
39.0000,3.732
39.0400,3.710
39.0800,3.701
39.1200,3.563
39.1600,3.607
39.2000,3.562
39.2400,3.515
39.2800,3.488
39.3200,3.491
39.3600,3.573
39.4000,3.410
39.4400,3.511
39.4800,3.573
39.5200,3.527
39.5600,3.518
39.6000,3.637
39.6400,3.541
39.6800,3.531
39.7200,3.773
39.7600,3.957
39.8000,3.821
39.8400,3.679
39.8800,3.555
39.9200,3.303
39.9600,3.282
40.0000,3.106
40.0400,3.150
40.0800,3.052
40.1200,2.834
40.1600,2.748
40.2000,2.683
40.2400,2.534
40.2800,2.454
40.3200,2.309
40.3600,2.272
40.4000,2.169
40.4400,2.087
40.4800,2.019
40.5200,2.057
40.5600,1.926
40.6000,1.913
40.6400,1.818
40.6800,1.872
40.7200,1.830
40.7600,1.830
40.8000,1.841
40.8400,1.795
40.8800,1.823
40.9200,1.886
40.9600,1.968
41.0000,2.002
41.0400,1.972
41.0800,2.020
41.1200,1.977
41.1600,1.954
41.2000,1.903
41.2400,1.898
41.2800,1.899
41.3200,1.788
41.3600,1.820
41.4000,1.690
41.4400,1.748
41.4800,1.658
41.5200,1.539
41.5600,1.473
41.6000,1.475
41.6400,1.423
41.6800,1.406
41.7200,1.382
41.7600,1.315
41.8000,1.382
41.8400,1.371
41.8800,1.299
41.9200,1.276
41.9600,1.354
42.0000,1.373
42.0400,1.278
42.0800,1.250
42.1200,1.282
42.1600,1.217
42.2000,1.282
42.2400,1.236
42.2800,1.255
42.3200,1.207
42.3600,1.207
42.4000,1.211
42.4400,1.219
42.4800,1.260
42.5200,1.217
42.5600,1.237
42.6000,1.228
42.6400,1.201
42.6800,1.210
42.7200,1.262
42.7600,1.225
42.8000,1.148
42.8400,1.194
42.8800,1.209
42.9200,1.178
42.9600,1.172
43.0000,1.133
43.0400,1.225
43.0800,1.176
43.1200,1.215
43.1600,1.242
43.2000,1.263
43.2400,1.192
43.2800,1.150
43.3200,1.200
43.3600,1.171
43.4000,1.242
43.4400,1.257
43.4800,1.145
43.5200,1.258
43.5600,1.270
43.6000,1.244
43.6400,1.185
43.6800,1.245
43.7200,1.267
43.7600,1.225
43.8000,1.288
43.8400,1.196
43.8800,1.371
43.9200,1.315
43.9600,1.258
44.0000,1.319
44.0400,1.348
44.0800,1.311
44.1200,1.321
44.1600,1.446
44.2000,1.484
44.2400,1.479
44.2800,1.574
44.3200,1.663
44.3600,1.674
44.4000,1.766
44.4400,1.757
44.4800,1.837
44.5200,1.851
44.5600,1.910
44.6000,1.854
44.6400,1.830
44.6800,1.820
44.7200,1.856
44.7600,1.862
44.8000,1.856
44.8400,1.776
44.8800,1.838
44.9200,1.853
44.9600,1.842
45.0000,1.894
45.0400,1.813
45.0800,1.853
45.1200,1.842
45.1600,1.865
45.2000,1.882
45.2400,1.830
45.2800,1.875
45.3200,1.775
45.3600,1.730
45.4000,1.746
45.4400,1.724
45.4800,1.688
45.5200,1.669
45.5600,1.669
45.6000,1.648
45.6400,1.621
45.6800,1.643
45.7200,1.637
45.7600,1.644
45.8000,1.703
45.8400,1.626
45.8800,1.624
45.9200,1.598
45.9600,1.574
46.0000,1.533
46.0400,1.589
46.0800,1.528
46.1200,1.587
46.1600,1.639
46.2000,1.650
46.2400,1.749
46.2800,1.673
46.3200,1.604
46.3600,1.554
46.4000,1.565
46.4400,1.482
46.4800,1.496
46.5200,1.546
46.5600,1.493
46.6000,1.478
46.6400,1.385
46.6800,1.386
46.7200,1.380
46.7600,1.247
46.8000,1.307
46.8400,1.272
46.8800,1.239
46.9200,1.181
46.9600,1.168
47.0000,1.170
47.0400,1.113
47.0800,1.131
47.1200,1.116
47.1600,1.074
47.2000,1.112
47.2400,1.091
47.2800,1.018
47.3200,1.064
47.3600,1.072
47.4000,1.025
47.4400,0.981
47.4800,1.045
47.5200,0.963
47.5600,0.960
47.6000,0.953
47.6400,0.988
47.6800,0.962
47.7200,0.953
47.7600,0.938
47.8000,0.983
47.8400,0.913
47.8800,0.984
47.9200,1.005
47.9600,0.959
48.0000,0.943
48.0400,0.929
48.0800,0.967
48.1200,0.987
48.1600,0.942
48.2000,0.958
48.2400,0.938
48.2800,0.883
48.3200,0.969
48.3600,0.938
48.4000,0.981
48.4400,0.931
48.4800,0.889
48.5200,0.904
48.5600,0.877
48.6000,0.916
48.6400,0.862
48.6800,0.888
48.7200,0.893
48.7600,0.846
48.8000,0.860
48.8400,0.815
48.8800,0.875
48.9200,0.921
48.9600,0.854
49.0000,0.845
49.0400,0.853
49.0800,0.816
49.1200,0.819
49.1600,0.821
49.2000,0.843
49.2400,0.770
49.2800,0.818
49.3200,0.803
49.3600,0.862
49.4000,0.805
49.4400,0.855
49.4800,0.835
49.5200,0.783
49.5600,0.818
49.6000,0.849
49.6400,0.820
49.6800,0.794
49.7200,0.796
49.7600,0.821
49.8000,0.832
49.8400,0.823
49.8800,0.761
49.9200,0.842
49.9600,0.721
50.0000,0.787
50.0400,0.768
50.0800,0.825
50.1200,0.841
50.1600,0.811
50.2000,0.785
50.2400,0.787
50.2800,0.798
50.3200,0.738
50.3600,0.730
50.4000,0.784
50.4400,0.773
50.4800,0.800
50.5200,0.757
50.5600,0.797
50.6000,0.766
50.6400,0.782
50.6800,0.778
50.7200,0.723
50.7600,0.766
50.8000,0.767
50.8400,0.740
50.8800,0.785
50.9200,0.717
50.9600,0.747
51.0000,0.744
51.0400,0.740
51.0800,0.752
51.1200,0.777
51.1600,0.735
51.2000,0.777
51.2400,0.760
51.2800,0.735
51.3200,0.736
51.3600,0.741
51.4000,0.742
51.4400,0.750
51.4800,0.804
51.5200,0.777
51.5600,0.785
51.6000,0.721
51.6400,0.751
51.6800,0.781
51.7200,0.731
51.7600,0.733
51.8000,0.715
51.8400,0.749
51.8800,0.664
51.9200,0.755
51.9600,0.683
52.0000,0.731
52.0400,0.715
52.0800,0.711
52.1200,0.734
52.1600,0.755
52.2000,0.680
52.2400,0.751
52.2800,0.718
52.3200,0.714
52.3600,0.741
52.4000,0.666
52.4400,0.691
52.4800,0.667
52.5200,0.693
52.5600,0.692
52.6000,0.704
52.6400,0.687
52.6800,0.724
52.7200,0.714
52.7600,0.693
52.8000,0.682
52.8400,0.719
52.8800,0.703
52.9200,0.716
52.9600,0.699
53.0000,0.707
53.0400,0.753
53.0800,0.711
53.1200,0.727
53.1600,0.697
53.2000,0.680
53.2400,0.684
53.2800,0.709
53.3200,0.673
53.3600,0.694
53.4000,0.725
53.4400,0.664
53.4800,0.696
53.5200,0.677
53.5600,0.732
53.6000,0.685
53.6400,0.695
53.6800,0.683
53.7200,0.685
53.7600,0.681
53.8000,0.702
53.8400,0.746
53.8800,0.673
53.9200,0.677
53.9600,0.665
54.0000,0.667
54.0400,0.684
54.0800,0.692
54.1200,0.698
54.1600,0.702
54.2000,0.648
54.2400,0.702
54.2800,0.662
54.3200,0.719
54.3600,0.714
54.4000,0.654
54.4400,0.657
54.4800,0.638
54.5200,0.651
54.5600,0.697
54.6000,0.687
54.6400,0.659
54.6800,0.634
54.7200,0.661
54.7600,0.626
54.8000,0.633
54.8400,0.668
54.8800,0.686
54.9200,0.634
54.9600,0.675
55.0000,0.630
55.0400,0.627
55.0800,0.654
55.1200,0.663
55.1600,0.662
55.2000,0.668
55.2400,0.689
55.2800,0.622
55.3200,0.644
55.3600,0.599
55.4000,0.661
55.4400,0.681
55.4800,0.641
55.5200,0.646
55.5600,0.670
55.6000,0.663
55.6400,0.697
55.6800,0.676
55.7200,0.650
55.7600,0.627
55.8000,0.643
55.8400,0.623
55.8800,0.628
55.9200,0.626
55.9600,0.678
56.0000,0.587
56.0400,0.669
56.0800,0.660
56.1200,0.622
56.1600,0.622
56.2000,0.648
56.2400,0.632
56.2800,0.634
56.3200,0.600
56.3600,0.622
56.4000,0.664
56.4400,0.607
56.4800,0.660
56.5200,0.646
56.5600,0.647
56.6000,0.646
56.6400,0.610
56.6800,0.625
56.7200,0.654
56.7600,0.646
56.8000,0.620
56.8400,0.610
56.8800,0.578
56.9200,0.592
56.9600,0.604
57.0000,0.619
57.0400,0.598
57.0800,0.620
57.1200,0.637
57.1600,0.609
57.2000,0.637
57.2400,0.595
57.2800,0.561
57.3200,0.604
57.3600,0.580
57.4000,0.608
57.4400,0.644
57.4800,0.585
57.5200,0.631
57.5600,0.599
57.6000,0.630
57.6400,0.611
57.6800,0.636
57.7200,0.626
57.7600,0.575
57.8000,0.596
57.8400,0.598
57.8800,0.598
57.9200,0.621
57.9600,0.633
58.0000,0.611
58.0400,0.595
58.0800,0.620
58.1200,0.618
58.1600,0.629
58.2000,0.584
58.2400,0.594
58.2800,0.636
58.3200,0.631
58.3600,0.615
58.4000,0.589
58.4400,0.627
58.4800,0.650
58.5200,0.585
58.5600,0.579
58.6000,0.591
58.6400,0.561
58.6800,0.602
58.7200,0.585
58.7600,0.545
58.8000,0.619
58.8400,0.541
58.8800,0.556
58.9200,0.583
58.9600,0.624
59.0000,0.579
59.0400,0.586
59.0800,0.574
59.1200,0.568
59.1600,0.581
59.2000,0.603
59.2400,0.596
59.2800,0.576
59.3200,0.534
59.3600,0.576
59.4000,0.601
59.4400,0.576
59.4800,0.625
59.5200,0.612
59.5600,0.596
59.6000,0.604
59.6400,0.573
59.6800,0.573
59.7200,0.549
59.7600,0.607
59.8000,0.608
59.8400,0.596
59.8800,0.610
59.9200,0.619
59.9600,0.585
60.0000,0.572
60.0400,0.550
60.0800,0.560
60.1200,0.567
60.1600,0.573
60.2000,0.599
60.2400,0.622
60.2800,0.615
60.3200,0.563
60.3600,0.589
60.4000,0.578
60.4400,0.583
60.4800,0.582
60.5200,0.530
60.5600,0.580
60.6000,0.595
60.6400,0.551
60.6800,0.600
60.7200,0.575
60.7600,0.521
60.8000,0.571
60.8400,0.590
60.8800,0.543
60.9200,0.598
60.9600,0.555
61.0000,0.524
61.0400,0.575
61.0800,0.546
61.1200,0.573
61.1600,0.591
61.2000,0.556
61.2400,0.522
61.2800,0.553
61.3200,0.531
61.3600,0.552
61.4000,0.540
61.4400,0.598
61.4800,0.621
61.5200,0.598
61.5600,0.600
61.6000,0.638
61.6400,0.653
61.6800,0.682
61.7200,0.625
61.7600,0.572
61.8000,0.564
61.8400,0.593
61.8800,0.559
61.9200,0.583
61.9600,0.588
62.0000,0.527
62.0400,0.567
62.0800,0.541
62.1200,0.483
62.1600,0.528
62.2000,0.542
62.2400,0.550
62.2800,0.538
62.3200,0.582
62.3600,0.556
62.4000,0.542
62.4400,0.570
62.4800,0.549
62.5200,0.558
62.5600,0.527
62.6000,0.572
62.6400,0.547
62.6800,0.536
62.7200,0.523
62.7600,0.512
62.8000,0.554
62.8400,0.540
62.8800,0.543
62.9200,0.560
62.9600,0.498
63.0000,0.547
63.0400,0.557
63.0800,0.596
63.1200,0.529
63.1600,0.565
63.2000,0.502
63.2400,0.583
63.2800,0.526
63.3200,0.545
63.3600,0.559
63.4000,0.546
63.4400,0.540
63.4800,0.572
63.5200,0.541
63.5600,0.557
63.6000,0.580
63.6400,0.518
63.6800,0.590
63.7200,0.520
63.7600,0.591
63.8000,0.552
63.8400,0.583
63.8800,0.570
63.9200,0.607
63.9600,0.581
64.0000,0.606
64.0400,0.588
64.0800,0.629
64.1200,0.612
64.1600,0.599
64.2000,0.648
64.2400,0.609
64.2800,0.624
64.3200,0.634
64.3600,0.627
64.4000,0.675
64.4400,0.639
64.4800,0.686
64.5200,0.690
64.5600,0.774
64.6000,0.724
64.6400,0.728
64.6800,0.730
64.7200,0.763
64.7600,0.789
64.8000,0.772
64.8400,0.853
64.8800,0.824
64.9200,0.839
64.9600,0.770
65.0000,0.781
65.0400,0.821
65.0800,0.867
65.1200,0.829
65.1600,0.846
65.2000,0.798
65.2400,0.857
65.2800,0.845
65.3200,0.868
65.3600,0.866
65.4000,0.903
65.4400,0.847
65.4800,0.914
65.5200,0.902
65.5600,0.955
65.6000,0.950
65.6400,0.928
65.6800,0.972
65.7200,0.974
65.7600,0.977
65.8000,0.916
65.8400,0.979
65.8800,0.957
65.9200,0.969
65.9600,0.976
66.0000,0.972
66.0400,1.008
66.0800,0.907
66.1200,0.952
66.1600,0.983
66.2000,0.977
66.2400,0.974
66.2800,0.992
66.3200,0.989
66.3600,0.987
66.4000,1.014
66.4400,1.008
66.4800,0.991
66.5200,0.950
66.5600,0.939
66.6000,0.954
66.6400,1.026
66.6800,1.003
66.7200,1.036
66.7600,1.056
66.8000,1.027
66.8400,1.115
66.8800,1.076
66.9200,1.071
66.9600,1.100
67.0000,1.165
67.0400,1.147
67.0800,1.183
67.1200,1.134
67.1600,1.171
67.2000,1.235
67.2400,1.200
67.2800,1.254
67.3200,1.261
67.3600,1.274
67.4000,1.301
67.4400,1.433
67.4800,1.521
67.5200,1.482
67.5600,1.480
67.6000,1.414
67.6400,1.538
67.6800,1.555
67.7200,1.576
67.7600,1.520
67.8000,1.566
67.8400,1.635
67.8800,1.620
67.9200,1.688
67.9600,1.660
68.0000,1.732
68.0400,1.773
68.0800,1.784
68.1200,1.787
68.1600,1.847
68.2000,1.879
68.2400,1.892
68.2800,1.963
68.3200,2.029
68.3600,2.109
68.4000,2.243
68.4400,2.239
68.4800,2.446
68.5200,2.554
68.5600,2.582
68.6000,2.780
68.6400,3.211
68.6800,3.661
68.7200,4.636
68.7600,5.905
68.8000,6.901
68.8400,7.171
68.8800,7.573
68.9200,9.070
68.9600,12.437
69.0000,20.237
69.0400,45.750
69.0800,216.760
69.1200,463.201
69.1600,310.519
69.2000,83.490
69.2400,48.114
69.2800,133.891
69.3200,246.116
69.3600,157.475
69.4000,42.755
69.4400,16.232
69.4800,10.283
69.5200,7.779
69.5600,6.414
69.6000,5.333
69.6400,4.672
69.6800,4.197
69.7200,3.628
69.7600,3.324
69.8000,3.063
69.8400,2.910
69.8800,2.779
69.9200,2.589
69.9600,2.499
70.0000,2.352
70.0400,2.325
70.0800,2.179
70.1200,2.143
70.1600,2.067
70.2000,2.001
70.2400,1.966
70.2800,1.855
70.3200,1.782
70.3600,1.726
70.4000,1.738
70.4400,1.569
70.4800,1.585
70.5200,1.518
70.5600,1.442
70.6000,1.476
70.6400,1.433
70.6800,1.310
70.7200,1.416
70.7600,1.283
70.8000,1.189
70.8400,1.186
70.8800,1.193
70.9200,1.233
70.9600,1.141
71.0000,1.126
71.0400,1.060
71.0800,1.048
71.1200,1.088
71.1600,1.057
71.2000,0.983
71.2400,1.031
71.2800,0.959
71.3200,0.956
71.3600,0.983
71.4000,0.861
71.4400,0.874
71.4800,0.869
71.5200,0.841
71.5600,0.853
71.6000,0.812
71.6400,0.774
71.6800,0.820
71.7200,0.771
71.7600,0.840
71.8000,0.827
71.8400,0.773
71.8800,0.721
71.9200,0.710
71.9600,0.702
72.0000,0.702
72.0400,0.694
72.0800,0.675
72.1200,0.676
72.1600,0.637
72.2000,0.657
72.2400,0.641
72.2800,0.630
72.3200,0.626
72.3600,0.606
72.4000,0.601
72.4400,0.588
72.4800,0.561
72.5200,0.571
72.5600,0.621
72.6000,0.571
72.6400,0.553
72.6800,0.556
72.7200,0.591
72.7600,0.574
72.8000,0.539
72.8400,0.536
72.8800,0.563
72.9200,0.497
72.9600,0.532
73.0000,0.515
73.0400,0.500
73.0800,0.490
73.1200,0.525
73.1600,0.521
73.2000,0.504
73.2400,0.515
73.2800,0.497
73.3200,0.510
73.3600,0.463
73.4000,0.473
73.4400,0.491
73.4800,0.516
73.5200,0.456
73.5600,0.458
73.6000,0.468
73.6400,0.515
73.6800,0.461
73.7200,0.476
73.7600,0.422
73.8000,0.466
73.8400,0.449
73.8800,0.468
73.9200,0.438
73.9600,0.443
74.0000,0.457
74.0400,0.452
74.0800,0.480
74.1200,0.436
74.1600,0.449
74.2000,0.423
74.2400,0.414
74.2800,0.440
74.3200,0.410
74.3600,0.428
74.4000,0.429
74.4400,0.435
74.4800,0.417
74.5200,0.435
74.5600,0.399
74.6000,0.431
74.6400,0.425
74.6800,0.413
74.7200,0.417
74.7600,0.428
74.8000,0.393
74.8400,0.402
74.8800,0.437
74.9200,0.410
74.9600,0.404
75.0000,0.403
75.0400,0.428
75.0800,0.426
75.1200,0.397
75.1600,0.412
75.2000,0.436
75.2400,0.369
75.2800,0.359
75.3200,0.404
75.3600,0.400
75.4000,0.415
75.4400,0.394
75.4800,0.428
75.5200,0.385
75.5600,0.406
75.6000,0.388
75.6400,0.387
75.6800,0.408
75.7200,0.405
75.7600,0.390
75.8000,0.400
75.8400,0.354
75.8800,0.376
75.9200,0.386
75.9600,0.407
76.0000,0.386
76.0400,0.384
76.0800,0.369
76.1200,0.381
76.1600,0.356
76.2000,0.389
76.2400,0.371
76.2800,0.387
76.3200,0.400
76.3600,0.388
76.4000,0.372
76.4400,0.384
76.4800,0.395
76.5200,0.356
76.5600,0.367
76.6000,0.402
76.6400,0.399
76.6800,0.426
76.7200,0.380
76.7600,0.383
76.8000,0.427
76.8400,0.403
76.8800,0.350
76.9200,0.346
76.9600,0.381
77.0000,0.396
77.0400,0.393
77.0800,0.422
77.1200,0.394
77.1600,0.423
77.2000,0.387
77.2400,0.390
77.2800,0.424
77.3200,0.416
77.3600,0.443
77.4000,0.457
77.4400,0.501
77.4800,0.464
77.5200,0.488
77.5600,0.495
77.6000,0.491
77.6400,0.534
77.6800,0.527
77.7200,0.475
77.7600,0.466
77.8000,0.517
77.8400,0.580
77.8800,0.557
77.9200,0.537
77.9600,0.544
78.0000,0.515
78.0400,0.491
78.0800,0.523
78.1200,0.547
78.1600,0.543
78.2000,0.523
78.2400,0.526
78.2800,0.501
78.3200,0.549
78.3600,0.552
78.4000,0.538
78.4400,0.542
78.4800,0.562
78.5200,0.554
78.5600,0.576
78.6000,0.580
78.6400,0.566
78.6800,0.571
78.7200,0.605
78.7600,0.593
78.8000,0.579
78.8400,0.571
78.8800,0.630
78.9200,0.591
78.9600,0.575
79.0000,0.608
79.0400,0.588
79.0800,0.595
79.1200,0.561
79.1600,0.566
79.2000,0.570
79.2400,0.590
79.2800,0.572
79.3200,0.599
79.3600,0.602
79.4000,0.552
79.4400,0.570
79.4800,0.570
79.5200,0.554
79.5600,0.574
79.6000,0.542
79.6400,0.551
79.6800,0.544
79.7200,0.557
79.7600,0.550
79.8000,0.536
79.8400,0.535
79.8800,0.490
79.9200,0.540
79.9600,0.536
80.0000,0.516
