theta,intensity
5.0000,14.012
5.0400,13.917
5.0800,13.858
5.1200,13.849
5.1600,13.693
5.2000,13.725
5.2400,13.730
5.2800,13.485
5.3200,13.417
5.3600,13.291
5.4000,13.154
5.4400,13.043
5.4800,12.800
5.5200,12.720
5.5600,12.520
5.6000,12.456
5.6400,12.247
5.6800,12.118
5.7200,11.946
5.7600,11.864
5.8000,11.645
5.8400,11.492
5.8800,11.409
5.9200,11.249
5.9600,11.131
6.0000,10.914
6.0400,10.704
6.0800,10.423
6.1200,10.421
6.1600,10.302
6.2000,10.026
6.2400,10.011
6.2800,9.965
6.3200,9.880
6.3600,9.701
6.4000,9.514
6.4400,9.369
6.4800,9.202
6.5200,9.275
6.5600,9.038
6.6000,9.124
6.6400,8.872
6.6800,8.651
6.7200,8.468
6.7600,8.496
6.8000,8.326
6.8400,8.185
6.8800,8.231
6.9200,8.134
6.9600,8.281
7.0000,7.981
7.0400,7.974
7.0800,7.863
7.1200,7.733
7.1600,7.611
7.2000,7.577
7.2400,7.325
7.2800,7.307
7.3200,7.344
7.3600,7.189
7.4000,7.120
7.4400,7.067
7.4800,6.996
7.5200,6.899
7.5600,6.703
7.6000,6.672
7.6400,6.679
7.6800,6.595
7.7200,6.548
7.7600,6.496
7.8000,6.585
7.8400,6.398
7.8800,6.381
7.9200,6.171
7.9600,6.237
8.0000,6.268
8.0400,6.197
8.0800,6.156
8.1200,6.011
8.1600,6.077
8.2000,5.887
8.2400,5.768
8.2800,5.749
8.3200,5.764
8.3600,5.721
8.4000,5.606
8.4400,5.638
8.4800,5.519
8.5200,5.475
8.5600,5.427
8.6000,5.472
8.6400,5.476
8.6800,5.333
8.7200,5.376
8.7600,5.196
8.8000,5.191
8.8400,5.243
8.8800,5.124
8.9200,5.025
8.9600,5.066
9.0000,5.048
9.0400,5.027
9.0800,4.889
9.1200,4.930
9.1600,5.004
9.2000,4.833
9.2400,4.713
9.2800,4.863
9.3200,4.685
9.3600,4.693
9.4000,4.749
9.4400,4.719
9.4800,4.619
9.5200,4.557
9.5600,4.551
9.6000,4.656
9.6400,4.434
9.6800,4.479
9.7200,4.427
9.7600,4.453
9.8000,4.490
9.8400,4.291
9.8800,4.451
9.9200,4.421
9.9600,4.289
10.0000,4.353
10.0400,4.301
10.0800,4.281
10.1200,4.291
10.1600,4.271
10.2000,4.176
10.2400,4.074
10.2800,4.229
10.3200,4.079
10.3600,4.100
10.4000,4.103
10.4400,4.086
10.4800,4.064
10.5200,4.073
10.5600,4.065
10.6000,4.042
10.6400,3.924
10.6800,4.114
10.7200,3.983
10.7600,3.841
10.8000,3.796
10.8400,3.900
10.8800,3.889
10.9200,3.926
10.9600,3.847
11.0000,3.847
11.0400,3.710
11.0800,3.826
11.1200,3.805
11.1600,3.770
11.2000,3.730
11.2400,3.783
11.2800,3.722
11.3200,3.665
11.3600,3.687
11.4000,3.693
11.4400,3.653
11.4800,3.674
11.5200,3.703
11.5600,3.685
11.6000,3.680
11.6400,3.671
11.6800,3.689
11.7200,3.617
11.7600,3.683
11.8000,3.648
11.8400,3.561
11.8800,3.533
11.9200,3.514
11.9600,3.602
12.0000,3.489
12.0400,3.417
12.0800,3.499
12.1200,3.508
12.1600,3.619
12.2000,3.532
12.2400,3.513
12.2800,3.465
12.3200,3.396
12.3600,3.526
12.4000,3.591
12.4400,3.485
12.4800,3.458
12.5200,3.455
12.5600,3.394
12.6000,3.478
12.6400,3.484
12.6800,3.493
12.7200,3.439
12.7600,3.616
12.8000,3.513
12.8400,3.396
12.8800,3.333
12.9200,3.415
12.9600,3.376
13.0000,3.317
13.0400,3.320
13.0800,3.281
13.1200,3.369
13.1600,3.383
13.2000,3.376
13.2400,3.263
13.2800,3.378
13.3200,3.305
13.3600,3.248
13.4000,3.290
13.4400,3.333
13.4800,3.240
13.5200,3.274
13.5600,3.323
13.6000,3.367
13.6400,3.272
13.6800,3.298
13.7200,3.227
13.7600,3.194
13.8000,3.196
13.8400,3.233
13.8800,3.180
13.9200,3.302
13.9600,3.215
14.0000,3.218
14.0400,3.333
14.0800,3.186
14.1200,3.269
14.1600,3.294
14.2000,3.302
14.2400,3.223
14.2800,3.276
14.3200,3.299
14.3600,3.153
14.4000,3.254
14.4400,3.214
14.4800,3.267
14.5200,3.238
14.5600,3.225
14.6000,3.153
14.6400,3.178
14.6800,3.200
14.7200,3.189
14.7600,3.205
14.8000,3.186
14.8400,3.201
14.8800,3.276
14.9200,3.133
14.9600,3.171
15.0000,3.125
15.0400,3.163
15.0800,3.004
15.1200,3.108
15.1600,3.128
15.2000,3.144
15.2400,3.126
15.2800,3.071
15.3200,3.178
15.3600,3.248
15.4000,3.120
15.4400,3.101
15.4800,3.103
15.5200,3.046
15.5600,3.088
15.6000,3.106
15.6400,3.117
15.6800,3.033
15.7200,3.082
15.7600,3.119
15.8000,3.031
15.8400,3.101
15.8800,3.002
15.9200,3.058
15.9600,3.013
16.0000,2.978
16.0400,3.022
16.0800,3.015
16.1200,3.117
16.1600,3.120
16.2000,3.088
16.2400,3.041
16.2800,3.031
16.3200,3.083
16.3600,3.040
16.4000,3.044
16.4400,2.962
16.4800,2.937
16.5200,3.064
16.5600,2.982
16.6000,2.986
16.6400,3.026
16.6800,3.000
16.7200,2.981
16.7600,3.063
16.8000,3.023
16.8400,2.978
16.8800,3.042
16.9200,2.965
16.9600,2.933
17.0000,3.017
17.0400,2.991
17.0800,2.956
17.1200,3.081
17.1600,2.965
17.2000,2.945
17.2400,2.964
17.2800,2.952
17.3200,2.952
17.3600,2.993
17.4000,2.867
17.4400,2.942
17.4800,2.845
17.5200,2.868
17.5600,2.871
17.6000,2.891
17.6400,2.897
17.6800,2.873
17.7200,2.911
17.7600,2.990
17.8000,2.863
17.8400,2.864
17.8800,2.776
17.9200,2.947
17.9600,2.803
18.0000,2.878
18.0400,2.886
18.0800,2.919
18.1200,2.799
18.1600,2.760
18.2000,2.824
18.2400,2.789
18.2800,2.877
18.3200,2.839
18.3600,2.729
18.4000,2.836
18.4400,2.871
18.4800,2.851
18.5200,2.832
18.5600,2.832
18.6000,2.762
18.6400,2.885
18.6800,2.727
18.7200,2.833
18.7600,2.825
18.8000,2.802
18.8400,2.761
18.8800,2.751
18.9200,2.725
18.9600,2.725
19.0000,2.725
19.0400,2.724
19.0800,2.775
19.1200,2.717
19.1600,2.747
19.2000,2.713
19.2400,2.744
19.2800,2.698
19.3200,2.726
19.3600,2.739
19.4000,2.757
19.4400,2.728
19.4800,2.648
19.5200,2.807
19.5600,2.722
19.6000,2.740
19.6400,2.709
19.6800,2.709
19.7200,2.738
19.7600,2.746
19.8000,2.828
19.8400,2.573
19.8800,2.589
19.9200,2.735
19.9600,2.644
20.0000,2.661
20.0400,2.632
20.0800,2.748
20.1200,2.655
20.1600,2.654
20.2000,2.712
20.2400,2.646
20.2800,2.675
20.3200,2.621
20.3600,2.549
20.4000,2.638
20.4400,2.542
20.4800,2.596
20.5200,2.655
20.5600,2.651
20.6000,2.600
20.6400,2.602
20.6800,2.539
20.7200,2.603
20.7600,2.622
20.8000,2.636
20.8400,2.598
20.8800,2.626
20.9200,2.539
20.9600,2.628
21.0000,2.668
21.0400,2.580
21.0800,2.543
21.1200,2.569
21.1600,2.596
21.2000,2.648
21.2400,2.652
21.2800,2.600
21.3200,2.621
21.3600,2.480
21.4000,2.596
21.4400,2.506
21.4800,2.581
21.5200,2.535
21.5600,2.505
21.6000,2.557
21.6400,2.533
21.6800,2.558
21.7200,2.496
21.7600,2.542
21.8000,2.484
21.8400,2.592
21.8800,2.476
21.9200,2.555
21.9600,2.513
22.0000,2.487
22.0400,2.467
22.0800,2.553
22.1200,2.521
22.1600,2.482
22.2000,2.465
22.2400,2.426
22.2800,2.408
22.3200,2.467
22.3600,2.497
22.4000,2.464
22.4400,2.447
22.4800,2.441
22.5200,2.504
22.5600,2.390
22.6000,2.432
22.6400,2.439
22.6800,2.436
22.7200,2.427
22.7600,2.405
22.8000,2.483
22.8400,2.473
22.8800,2.356
22.9200,2.419
22.9600,2.453
23.0000,2.452
23.0400,2.498
23.0800,2.364
23.1200,2.310
23.1600,2.389
23.2000,2.454
23.2400,2.456
23.2800,2.390
23.3200,2.351
23.3600,2.435
23.4000,2.442
23.4400,2.394
23.4800,2.369
23.5200,2.308
23.5600,2.356
23.6000,2.326
23.6400,2.442
23.6800,2.362
23.7200,2.359
23.7600,2.315
23.8000,2.350
23.8400,2.323
23.8800,2.309
23.9200,2.360
23.9600,2.342
24.0000,2.260
24.0400,2.391
24.0800,2.265
24.1200,2.322
24.1600,2.384
24.2000,2.364
24.2400,2.252
24.2800,2.326
24.3200,2.263
24.3600,2.326
24.4000,2.302
24.4400,2.307
24.4800,2.226
24.5200,2.190
24.5600,2.266
24.6000,2.332
24.6400,2.266
24.6800,2.211
24.7200,2.281
24.7600,2.265
24.8000,2.240
24.8400,2.241
24.8800,2.217
24.9200,2.275
24.9600,2.177
25.0000,2.278
25.0400,2.267
25.0800,2.307
25.1200,2.287
25.1600,2.209
25.2000,2.283
25.2400,2.174
25.2800,2.294
25.3200,2.228
25.3600,2.165
25.4000,2.209
25.4400,2.174
25.4800,2.161
25.5200,2.221
25.5600,2.106
25.6000,2.180
25.6400,2.189
25.6800,2.164
25.7200,2.169
25.7600,2.186
25.8000,2.176
25.8400,2.146
25.8800,2.143
25.9200,2.125
25.9600,2.139
26.0000,2.004
26.0400,2.145
26.0800,2.167
26.1200,2.175
26.1600,2.054
26.2000,2.102
26.2400,2.179
26.2800,2.119
26.3200,2.166
26.3600,2.170
26.4000,2.058
26.4400,2.068
26.4800,2.076
26.5200,2.041
26.5600,2.076
26.6000,2.144
26.6400,2.119
26.6800,2.118
26.7200,2.066
26.7600,2.086
26.8000,2.144
26.8400,2.116
26.8800,2.017
26.9200,2.057
26.9600,2.022
27.0000,2.081
27.0400,2.085
27.0800,2.037
27.1200,2.016
27.1600,2.066
27.2000,2.040
27.2400,2.017
27.2800,2.031
27.3200,2.028
27.3600,1.963
27.4000,2.003
27.4400,1.969
27.4800,2.045
27.5200,2.047
27.5600,1.976
27.6000,2.065
27.6400,1.982
27.6800,2.015
27.7200,2.015
27.7600,2.071
27.8000,1.913
27.8400,1.949
27.8800,2.043
27.9200,1.930
27.9600,1.887
28.0000,1.992
28.0400,2.057
28.0800,1.974
28.1200,1.993
28.1600,1.916
28.2000,2.030
28.2400,1.943
28.2800,1.928
28.3200,1.952
28.3600,1.969
28.4000,1.951
28.4400,1.984
28.4800,2.000
28.5200,1.959
28.5600,1.934
28.6000,1.927
28.6400,1.917
28.6800,1.976
28.7200,1.882
28.7600,1.932
28.8000,1.918
28.8400,1.937
28.8800,1.863
28.9200,1.892
28.9600,1.935
29.0000,1.846
29.0400,1.943
29.0800,1.901
29.1200,1.945
29.1600,1.862
29.2000,1.868
29.2400,1.828
29.2800,1.835
29.3200,1.908
29.3600,1.896
29.4000,1.878
29.4400,1.879
29.4800,1.876
29.5200,1.825
29.5600,1.811
29.6000,1.915
29.6400,1.907
29.6800,1.883
29.7200,1.832
29.7600,1.805
29.8000,1.865
29.8400,1.856
29.8800,1.812
29.9200,1.815
29.9600,1.806
30.0000,1.832
30.0400,1.810
30.0800,1.802
30.1200,1.856
30.1600,1.838
30.2000,1.774
30.2400,1.747
30.2800,1.739
30.3200,1.759
30.3600,1.770
30.4000,1.805
30.4400,1.778
30.4800,1.768
30.5200,1.717
30.5600,1.799
30.6000,1.819
30.6400,1.814
30.6800,1.780
30.7200,1.724
30.7600,1.771
30.8000,1.669
30.8400,1.791
30.8800,1.799
30.9200,1.758
30.9600,1.769
31.0000,1.799
31.0400,1.772
31.0800,1.796
31.1200,1.742
31.1600,1.753
31.2000,1.725
31.2400,1.714
31.2800,1.819
31.3200,1.802
31.3600,1.674
31.4000,1.756
31.4400,1.773
31.4800,1.741
31.5200,1.771
31.5600,1.749
31.6000,1.687
31.6400,1.753
31.6800,1.735
31.7200,1.694
31.7600,1.678
31.8000,1.723
31.8400,1.696
31.8800,1.674
31.9200,1.753
31.9600,1.750
32.0000,1.769
32.0400,1.725
32.0800,1.677
32.1200,1.719
32.1600,1.739
32.2000,1.675
32.2400,1.612
32.2800,1.633
32.3200,1.651
32.3600,1.646
32.4000,1.594
32.4400,1.661
32.4800,1.639
32.5200,1.633
32.5600,1.656
32.6000,1.656
32.6400,1.687
32.6800,1.696
32.7200,1.690
32.7600,1.621
32.8000,1.704
32.8400,1.612
32.8800,1.630
32.9200,1.622
32.9600,1.778
33.0000,3.172
33.0400,3.115
33.0800,1.889
33.1200,1.595
33.1600,1.633
33.2000,1.529
33.2400,1.609
33.2800,1.607
33.3200,1.614
33.3600,1.538
33.4000,1.593
33.4400,1.550
33.4800,1.611
33.5200,1.641
33.5600,1.670
33.6000,1.573
33.6400,1.564
33.6800,1.562
33.7200,1.523
33.7600,1.518
33.8000,1.536
33.8400,1.505
33.8800,1.492
33.9200,1.528
33.9600,1.552
34.0000,1.540
34.0400,1.532
34.0800,1.573
34.1200,1.574
34.1600,1.579
34.2000,1.503
34.2400,1.554
34.2800,1.470
34.3200,1.576
34.3600,1.567
34.4000,1.482
34.4400,1.504
34.4800,1.540
34.5200,1.523
34.5600,1.578
34.6000,1.542
34.6400,1.550
34.6800,1.565
34.7200,1.549
34.7600,1.504
34.8000,1.489
34.8400,1.493
34.8800,1.468
34.9200,1.516
34.9600,1.507
35.0000,1.555
35.0400,1.547
35.0800,1.535
35.1200,1.549
35.1600,1.469
35.2000,1.451
35.2400,1.496
35.2800,1.524
35.3200,1.574
35.3600,1.503
35.4000,1.512
35.4400,1.449
35.4800,1.417
35.5200,1.510
35.5600,1.420
35.6000,1.466
35.6400,1.459
35.6800,1.495
35.7200,1.469
35.7600,1.465
35.8000,1.463
35.8400,1.480
35.8800,1.446
35.9200,1.533
35.9600,1.495
36.0000,1.531
36.0400,1.545
36.0800,1.440
36.1200,1.405
36.1600,1.440
36.2000,1.454
36.2400,1.504
36.2800,1.481
36.3200,1.485
36.3600,1.468
36.4000,1.525
36.4400,1.462
36.4800,1.463
36.5200,1.546
36.5600,1.564
36.6000,1.537
36.6400,1.480
36.6800,1.590
36.7200,1.499
36.7600,1.508
36.8000,1.508
36.8400,1.534
36.8800,1.544
36.9200,1.555
36.9600,1.541
37.0000,1.547
37.0400,1.533
37.0800,1.534
37.1200,1.555
37.1600,1.638
37.2000,1.608
37.2400,1.679
37.2800,1.632
37.3200,1.678
37.3600,1.711
37.4000,1.791
37.4400,1.746
37.4800,1.812
37.5200,1.871
37.5600,1.892
37.6000,1.965
37.6400,2.128
37.6800,2.201
37.7200,2.340
37.7600,2.518
37.8000,2.779
37.8400,3.053
37.8800,3.427
37.9200,3.990
37.9600,4.734
38.0000,6.020
38.0400,7.624
38.0800,9.849
38.1200,12.210
38.1600,13.930
38.2000,14.265
38.2400,13.468
38.2800,11.749
38.3200,9.761
38.3600,7.943
38.4000,6.321
38.4400,5.132
38.4800,4.164
38.5200,3.582
38.5600,3.161
38.6000,2.864
38.6400,2.564
38.6800,2.394
38.7200,2.234
38.7600,2.044
38.8000,1.946
38.8400,1.823
38.8800,1.755
38.9200,1.765
38.9600,1.706
39.0000,1.639
39.0400,1.687
39.0800,1.630
39.1200,1.717
39.1600,1.554
39.2000,1.551
39.2400,1.521
39.2800,1.477
39.3200,1.467
39.3600,1.447
39.4000,1.414
39.4400,1.387
39.4800,1.441
39.5200,1.402
39.5600,1.333
39.6000,1.413
39.6400,1.372
39.6800,1.349
39.7200,1.370
39.7600,1.367
39.8000,1.367
39.8400,1.351
39.8800,1.385
39.9200,1.287
39.9600,1.286
40.0000,1.287
40.0400,1.353
40.0800,1.292
40.1200,1.313
40.1600,1.224
40.2000,1.255
40.2400,1.296
40.2800,1.219
40.3200,1.310
40.3600,1.222
40.4000,1.227
40.4400,1.208
40.4800,1.272
40.5200,1.231
40.5600,1.190
40.6000,1.235
40.6400,1.185
40.6800,1.253
40.7200,1.209
40.7600,1.291
40.8000,1.220
40.8400,1.180
40.8800,1.223
40.9200,1.207
40.9600,1.201
41.0000,1.203
41.0400,1.140
41.0800,1.123
41.1200,1.319
41.1600,1.214
41.2000,1.190
41.2400,1.159
41.2800,1.192
41.3200,1.199
41.3600,1.211
41.4000,1.190
41.4400,1.165
41.4800,1.169
41.5200,1.171
41.5600,1.131
41.6000,1.154
41.6400,1.153
41.6800,1.131
41.7200,1.206
41.7600,1.158
41.8000,1.168
41.8400,1.125
41.8800,1.113
41.9200,1.157
41.9600,1.198
42.0000,1.156
42.0400,1.143
42.0800,1.123
42.1200,1.099
42.1600,1.106
42.2000,1.124
42.2400,1.108
42.2800,1.148
42.3200,1.140
42.3600,1.189
42.4000,1.162
42.4400,1.125
42.4800,1.142
42.5200,1.115
42.5600,1.144
42.6000,1.103
42.6400,1.125
42.6800,1.068
42.7200,1.179
42.7600,1.185
42.8000,1.062
42.8400,1.158
42.8800,1.161
42.9200,1.158
42.9600,1.138
43.0000,1.116
43.0400,1.093
43.0800,1.160
43.1200,1.203
43.1600,1.123
43.2000,1.192
43.2400,1.175
43.2800,1.156
43.3200,1.221
43.3600,1.212
43.4000,1.165
43.4400,1.236
43.4800,1.221
43.5200,1.252
43.5600,1.258
43.6000,1.314
43.6400,1.310
43.6800,1.307
43.7200,1.343
43.7600,1.340
43.8000,1.416
43.8400,1.469
43.8800,1.469
43.9200,1.547
43.9600,1.627
44.0000,1.724
44.0400,1.794
44.0800,1.960
44.1200,2.043
44.1600,2.236
44.2000,2.511
44.2400,2.630
44.2800,2.901
44.3200,3.064
44.3600,3.326
44.4000,3.418
44.4400,3.371
44.4800,3.223
44.5200,3.101
44.5600,2.869
44.6000,2.658
44.6400,2.423
44.6800,2.173
44.7200,1.981
44.7600,1.852
44.8000,1.698
44.8400,1.640
44.8800,1.501
44.9200,1.491
44.9600,1.331
45.0000,1.355
45.0400,1.324
45.0800,1.203
45.1200,1.224
45.1600,1.151
45.2000,1.116
45.2400,1.112
45.2800,1.118
45.3200,1.148
45.3600,1.083
45.4000,1.068
45.4400,1.043
45.4800,1.047
45.5200,1.008
45.5600,1.076
45.6000,1.059
45.6400,0.968
45.6800,0.991
45.7200,1.026
45.7600,0.994
45.8000,0.993
45.8400,1.007
45.8800,0.967
45.9200,0.942
45.9600,0.952
46.0000,1.039
46.0400,0.965
46.0800,0.984
46.1200,0.988
46.1600,0.939
46.2000,0.999
46.2400,0.938
46.2800,0.952
46.3200,0.940
46.3600,0.912
46.4000,0.931
46.4400,0.889
46.4800,0.915
46.5200,0.920
46.5600,0.904
46.6000,0.880
46.6400,0.887
46.6800,0.897
46.7200,0.914
46.7600,0.924
46.8000,0.920
46.8400,0.933
46.8800,0.909
46.9200,0.899
46.9600,0.901
47.0000,0.864
47.0400,0.909
47.0800,0.883
47.1200,0.887
47.1600,0.870
47.2000,0.882
47.2400,0.897
47.2800,0.850
47.3200,0.858
47.3600,0.924
47.4000,0.894
47.4400,0.870
47.4800,0.841
47.5200,0.880
47.5600,0.847
47.6000,0.871
47.6400,0.837
47.6800,0.874
47.7200,0.880
47.7600,0.884
47.8000,0.865
47.8400,0.838
47.8800,0.876
47.9200,0.824
47.9600,0.838
48.0000,0.821
48.0400,0.835
48.0800,0.830
48.1200,0.872
48.1600,0.834
48.2000,0.846
48.2400,0.804
48.2800,0.885
48.3200,0.893
48.3600,0.817
48.4000,0.838
48.4400,0.850
48.4800,0.863
48.5200,0.798
48.5600,0.800
48.6000,0.822
48.6400,0.797
48.6800,0.805
48.7200,0.782
48.7600,0.744
48.8000,0.807
48.8400,0.882
48.8800,0.839
48.9200,0.796
48.9600,0.755
49.0000,0.821
49.0400,0.795
49.0800,0.819
49.1200,0.846
49.1600,0.862
49.2000,0.831
49.2400,0.791
49.2800,0.821
49.3200,0.847
49.3600,0.801
49.4000,0.819
49.4400,0.799
49.4800,0.784
49.5200,0.850
49.5600,0.797
49.6000,0.825
49.6400,0.791
49.6800,0.811
49.7200,0.796
49.7600,0.769
49.8000,0.802
49.8400,0.756
49.8800,0.825
49.9200,0.779
49.9600,0.793
50.0000,0.771
50.0400,0.780
50.0800,0.768
50.1200,0.748
50.1600,0.783
50.2000,0.788
50.2400,0.769
50.2800,0.756
50.3200,0.729
50.3600,0.754
50.4000,0.785
50.4400,0.747
50.4800,0.809
50.5200,0.742
50.5600,0.766
50.6000,0.768
50.6400,0.684
50.6800,0.738
50.7200,0.753
50.7600,0.757
50.8000,0.741
50.8400,0.777
50.8800,0.767
50.9200,0.725
50.9600,0.745
51.0000,0.701
51.0400,0.801
51.0800,0.783
51.1200,0.757
51.1600,0.720
51.2000,0.756
51.2400,0.748
51.2800,0.704
51.3200,0.725
51.3600,0.742
51.4000,0.770
51.4400,0.708
51.4800,0.681
51.5200,0.705
51.5600,0.749
51.6000,0.747
51.6400,0.754
51.6800,0.758
51.7200,0.779
51.7600,0.734
51.8000,0.750
51.8400,0.720
51.8800,0.683
51.9200,0.709
51.9600,0.717
52.0000,0.711
52.0400,0.743
52.0800,0.694
52.1200,0.735
52.1600,0.680
52.2000,0.700
52.2400,0.749
52.2800,0.770
52.3200,0.759
52.3600,0.697
52.4000,0.717
52.4400,0.705
52.4800,0.690
52.5200,0.674
52.5600,0.693
52.6000,0.664
52.6400,0.700
52.6800,0.734
52.7200,0.719
52.7600,0.676
52.8000,0.732
52.8400,0.702
52.8800,0.687
52.9200,0.701
52.9600,0.718
53.0000,0.681
53.0400,0.670
53.0800,0.669
53.1200,0.733
53.1600,0.688
53.2000,0.690
53.2400,0.708
53.2800,0.691
53.3200,0.647
53.3600,0.651
53.4000,0.690
53.4400,0.689
53.4800,0.698
53.5200,0.687
53.5600,0.646
53.6000,0.711
53.6400,0.656
53.6800,0.666
53.7200,0.685
53.7600,0.704
53.8000,0.713
53.8400,0.661
53.8800,0.712
53.9200,0.695
53.9600,0.685
54.0000,0.677
54.0400,0.686
54.0800,0.662
54.1200,0.683
54.1600,0.666
54.2000,0.651
54.2400,0.663
54.2800,0.687
54.3200,0.638
54.3600,0.659
54.4000,0.676
54.4400,0.641
54.4800,0.603
54.5200,0.680
54.5600,0.693
54.6000,0.631
54.6400,0.651
54.6800,0.650
54.7200,0.613
54.7600,0.652
54.8000,0.691
54.8400,0.648
54.8800,0.628
54.9200,0.607
54.9600,0.703
55.0000,0.640
55.0400,0.666
55.0800,0.673
55.1200,0.628
55.1600,0.634
55.2000,0.663
55.2400,0.649
55.2800,0.685
55.3200,0.646
55.3600,0.645
55.4000,0.666
55.4400,0.628
55.4800,0.668
55.5200,0.635
55.5600,0.650
55.6000,0.611
55.6400,0.626
55.6800,0.658
55.7200,0.644
55.7600,0.638
55.8000,0.600
55.8400,0.614
55.8800,0.590
55.9200,0.630
55.9600,0.641
56.0000,0.625
56.0400,0.629
56.0800,0.633
56.1200,0.616
56.1600,0.640
56.2000,0.619
56.2400,0.619
56.2800,0.631
56.3200,0.614
56.3600,0.625
56.4000,0.622
56.4400,0.643
56.4800,0.645
56.5200,0.620
56.5600,0.643
56.6000,0.652
56.6400,0.576
56.6800,0.610
56.7200,0.613
56.7600,0.627
56.8000,0.611
56.8400,0.609
56.8800,0.609
56.9200,0.619
56.9600,0.620
57.0000,0.633
57.0400,0.624
57.0800,0.611
57.1200,0.621
57.1600,0.594
57.2000,0.617
57.2400,0.618
57.2800,0.643
57.3200,0.609
57.3600,0.630
57.4000,0.597
57.4400,0.627
57.4800,0.636
57.5200,0.619
57.5600,0.589
57.6000,0.571
57.6400,0.579
57.6800,0.613
57.7200,0.612
57.7600,0.602
57.8000,0.564
57.8400,0.600
57.8800,0.601
57.9200,0.601
57.9600,0.582
58.0000,0.571
58.0400,0.589
58.0800,0.570
58.1200,0.611
58.1600,0.641
58.2000,0.603
58.2400,0.587
58.2800,0.585
58.3200,0.569
58.3600,0.565
58.4000,0.576
58.4400,0.565
58.4800,0.607
58.5200,0.640
58.5600,0.620
58.6000,0.557
58.6400,0.591
58.6800,0.588
58.7200,0.576
58.7600,0.566
58.8000,0.559
58.8400,0.585
58.8800,0.604
58.9200,0.588
58.9600,0.560
59.0000,0.587
59.0400,0.606
59.0800,0.584
59.1200,0.631
59.1600,0.591
59.2000,0.598
59.2400,0.563
59.2800,0.608
59.3200,0.588
59.3600,0.572
59.4000,0.582
59.4400,0.602
59.4800,0.563
59.5200,0.627
59.5600,0.554
59.6000,0.545
59.6400,0.553
59.6800,0.613
59.7200,0.593
59.7600,0.568
59.8000,0.592
59.8400,0.545
59.8800,0.536
59.9200,0.537
59.9600,0.541
60.0000,0.548
60.0400,0.558
60.0800,0.569
60.1200,0.568
60.1600,0.567
60.2000,0.557
60.2400,0.521
60.2800,0.566
60.3200,0.574
60.3600,0.551
60.4000,0.538
60.4400,0.508
60.4800,0.557
60.5200,0.544
60.5600,0.561
60.6000,0.568
60.6400,0.560
60.6800,0.572
60.7200,0.531
60.7600,0.572
60.8000,0.519
60.8400,0.555
60.8800,0.542
60.9200,0.563
60.9600,0.563
61.0000,0.516
61.0400,0.538
61.0800,0.518
61.1200,0.530
61.1600,0.523
61.2000,0.559
61.2400,0.602
61.2800,0.549
61.3200,0.532
61.3600,0.523
61.4000,0.539
61.4400,0.525
61.4800,0.529
61.5200,0.565
61.5600,0.549
61.6000,0.609
61.6400,0.663
61.6800,0.618
61.7200,0.586
61.7600,0.525
61.8000,0.527
61.8400,0.582
61.8800,0.551
61.9200,0.514
61.9600,0.524
62.0000,0.569
62.0400,0.551
62.0800,0.543
62.1200,0.561
62.1600,0.569
62.2000,0.553
62.2400,0.532
62.2800,0.558
62.3200,0.586
62.3600,0.516
62.4000,0.547
62.4400,0.526
62.4800,0.577
62.5200,0.556
62.5600,0.557
62.6000,0.566
62.6400,0.501
62.6800,0.538
62.7200,0.545
62.7600,0.543
62.8000,0.542
62.8400,0.593
62.8800,0.600
62.9200,0.559
62.9600,0.521
63.0000,0.563
63.0400,0.568
63.0800,0.529
63.1200,0.521
63.1600,0.588
63.2000,0.588
63.2400,0.575
63.2800,0.576
63.3200,0.559
63.3600,0.624
63.4000,0.612
63.4400,0.562
63.4800,0.597
63.5200,0.571
63.5600,0.628
63.6000,0.582
63.6400,0.614
63.6800,0.662
63.7200,0.615
63.7600,0.655
63.8000,0.665
63.8400,0.650
63.8800,0.682
63.9200,0.694
63.9600,0.715
64.0000,0.621
64.0400,0.699
64.0800,0.725
64.1200,0.716
64.1600,0.753
64.2000,0.789
64.2400,0.835
64.2800,0.911
64.3200,0.929
64.3600,1.035
64.4000,1.191
64.4400,1.322
64.4800,1.411
64.5200,1.581
64.5600,1.753
64.6000,1.725
64.6400,1.796
64.6800,1.731
64.7200,1.656
64.7600,1.529
64.8000,1.473
64.8400,1.379
64.8800,1.269
64.9200,1.139
64.9600,1.073
65.0000,1.013
65.0400,0.958
65.0800,0.873
65.1200,0.864
65.1600,0.845
65.2000,0.782
65.2400,0.786
65.2800,0.747
65.3200,0.749
65.3600,0.747
65.4000,0.736
65.4400,0.741
65.4800,0.712
65.5200,0.740
65.5600,0.696
65.6000,0.745
65.6400,0.765
65.6800,0.752
65.7200,0.790
65.7600,0.697
65.8000,0.717
65.8400,0.738
65.8800,0.692
65.9200,0.781
65.9600,0.708
66.0000,0.718
66.0400,0.764
66.0800,0.723
66.1200,0.714
66.1600,0.801
66.2000,0.757
66.2400,0.757
66.2800,0.823
66.3200,0.800
66.3600,0.790
66.4000,0.754
66.4400,0.847
66.4800,0.885
66.5200,0.823
66.5600,0.881
66.6000,0.859
66.6400,0.928
66.6800,0.877
66.7200,0.921
66.7600,0.893
66.8000,0.933
66.8400,0.937
66.8800,0.941
66.9200,0.971
66.9600,0.958
67.0000,0.960
67.0400,1.001
67.0800,1.031
67.1200,1.030
67.1600,1.038
67.2000,1.094
67.2400,1.091
67.2800,1.147
67.3200,1.131
67.3600,1.173
67.4000,1.147
67.4400,1.150
67.4800,1.245
67.5200,1.200
67.5600,1.309
67.6000,1.220
67.6400,1.353
67.6800,1.409
67.7200,1.423
67.7600,1.424
67.8000,1.440
67.8400,1.507
67.8800,1.477
67.9200,1.525
67.9600,1.644
68.0000,1.678
68.0400,1.698
68.0800,1.714
68.1200,1.818
68.1600,1.844
68.2000,1.829
68.2400,1.903
68.2800,2.030
68.3200,2.077
68.3600,2.170
68.4000,2.275
68.4400,2.450
68.4800,2.602
68.5200,2.629
68.5600,2.856
68.6000,3.074
68.6400,3.594
68.6800,4.305
68.7200,5.652
68.7600,7.038
68.8000,7.529
68.8400,7.646
68.8800,8.397
68.9200,10.702
68.9600,16.236
69.0000,30.422
69.0400,98.226
69.0800,402.572
69.1200,506.079
69.1600,209.862
69.2000,59.225
69.2400,75.455
69.2800,222.444
69.3200,257.331
69.3600,104.311
69.4000,27.644
69.4400,13.635
69.4800,9.296
69.5200,7.420
69.5600,6.095
69.6000,5.263
69.6400,4.752
69.6800,4.185
69.7200,3.856
69.7600,3.451
69.8000,3.217
69.8400,3.059
69.8800,2.854
69.9200,2.771
69.9600,2.505
70.0000,2.508
70.0400,2.335
70.0800,2.364
70.1200,2.319
70.1600,2.168
70.2000,2.088
70.2400,1.956
70.2800,1.924
70.3200,1.903
70.3600,1.790
70.4000,1.788
70.4400,1.782
70.4800,1.680
70.5200,1.676
70.5600,1.561
70.6000,1.495
70.6400,1.472
70.6800,1.491
70.7200,1.338
70.7600,1.328
70.8000,1.363
70.8400,1.316
70.8800,1.308
70.9200,1.275
70.9600,1.213
71.0000,1.239
71.0400,1.174
71.0800,1.112
71.1200,1.060
71.1600,1.108
71.2000,1.073
71.2400,0.969
71.2800,1.029
71.3200,0.959
71.3600,0.935
71.4000,0.876
71.4400,0.943
71.4800,0.940
71.5200,0.854
71.5600,0.870
71.6000,0.853
71.6400,0.886
71.6800,0.811
71.7200,0.812
71.7600,0.748
71.8000,0.759
71.8400,0.768
71.8800,0.741
71.9200,0.744
71.9600,0.787
72.0000,0.747
72.0400,0.671
72.0800,0.690
72.1200,0.687
72.1600,0.643
72.2000,0.662
72.2400,0.641
72.2800,0.661
72.3200,0.649
72.3600,0.591
72.4000,0.638
72.4400,0.595
72.4800,0.617
72.5200,0.594
72.5600,0.573
72.6000,0.564
72.6400,0.574
72.6800,0.593
72.7200,0.601
72.7600,0.573
72.8000,0.566
72.8400,0.591
72.8800,0.523
72.9200,0.544
72.9600,0.530
73.0000,0.547
73.0400,0.533
73.0800,0.494
73.1200,0.513
73.1600,0.472
73.2000,0.488
73.2400,0.487
73.2800,0.491
73.3200,0.458
73.3600,0.483
73.4000,0.482
73.4400,0.466
73.4800,0.511
73.5200,0.467
73.5600,0.464
73.6000,0.486
73.6400,0.451
73.6800,0.446
73.7200,0.449
73.7600,0.465
73.8000,0.483
73.8400,0.427
73.8800,0.447
73.9200,0.473
73.9600,0.447
74.0000,0.384
74.0400,0.467
74.0800,0.477
74.1200,0.442
74.1600,0.436
74.2000,0.430
74.2400,0.444
74.2800,0.444
74.3200,0.406
74.3600,0.389
74.4000,0.410
74.4400,0.431
74.4800,0.442
74.5200,0.401
74.5600,0.388
74.6000,0.417
74.6400,0.421
74.6800,0.394
74.7200,0.394
74.7600,0.393
74.8000,0.368
74.8400,0.392
74.8800,0.378
74.9200,0.381
74.9600,0.373
75.0000,0.391
75.0400,0.380
75.0800,0.393
75.1200,0.419
75.1600,0.405
75.2000,0.392
75.2400,0.358
75.2800,0.355
75.3200,0.397
75.3600,0.375
75.4000,0.406
75.4400,0.379
75.4800,0.407
75.5200,0.385
75.5600,0.364
75.6000,0.363
75.6400,0.380
75.6800,0.365
75.7200,0.372
75.7600,0.380
75.8000,0.391
75.8400,0.368
75.8800,0.386
75.9200,0.352
75.9600,0.384
76.0000,0.360
76.0400,0.397
76.0800,0.369
76.1200,0.360
76.1600,0.363
76.2000,0.390
76.2400,0.376
76.2800,0.353
76.3200,0.363
76.3600,0.375
76.4000,0.355
76.4400,0.372
76.4800,0.409
76.5200,0.384
76.5600,0.373
76.6000,0.389
76.6400,0.399
76.6800,0.396
76.7200,0.405
76.7600,0.437
76.8000,0.435
76.8400,0.410
76.8800,0.484
76.9200,0.488
76.9600,0.470
77.0000,0.455
77.0400,0.456
77.0800,0.525
77.1200,0.530
77.1600,0.581
77.2000,0.596
77.2400,0.614
77.2800,0.651
77.3200,0.692
77.3600,0.805
77.4000,0.897
77.4400,0.957
77.4800,0.995
77.5200,1.152
77.5600,1.182
77.6000,1.214
77.6400,1.201
77.6800,1.212
77.7200,1.181
77.7600,1.209
77.8000,1.080
77.8400,0.996
77.8800,0.913
77.9200,0.881
77.9600,0.801
78.0000,0.730
78.0400,0.692
78.0800,0.635
78.1200,0.532
78.1600,0.513
78.2000,0.513
78.2400,0.502
78.2800,0.435
78.3200,0.452
78.3600,0.437
78.4000,0.412
78.4400,0.424
78.4800,0.410
78.5200,0.398
78.5600,0.402
78.6000,0.379
78.6400,0.360
78.6800,0.373
78.7200,0.376
78.7600,0.373
78.8000,0.355
78.8400,0.359
78.8800,0.320
78.9200,0.334
78.9600,0.323
79.0000,0.376
79.0400,0.345
79.0800,0.342
79.1200,0.330
79.1600,0.337
79.2000,0.325
79.2400,0.316
79.2800,0.355
79.3200,0.302
79.3600,0.282
79.4000,0.326
79.4400,0.332
79.4800,0.321
79.5200,0.310
79.5600,0.321
79.6000,0.331
79.6400,0.319
79.6800,0.328
79.7200,0.312
79.7600,0.328
79.8000,0.323
79.8400,0.312
79.8800,0.319
79.9200,0.286
79.9600,0.283
80.0000,0.283
