theta,intensity
5.0000,4.053
5.0400,4.055
5.0800,4.089
5.1200,4.098
5.1600,4.075
5.2000,4.096
5.2400,4.079
5.2800,3.991
5.3200,4.049
5.3600,4.069
5.4000,3.978
5.4400,4.006
5.4800,4.128
5.5200,4.105
5.5600,4.124
5.6000,4.008
5.6400,4.200
5.6800,4.007
5.7200,4.059
5.7600,3.986
5.8000,4.130
5.8400,4.046
5.8800,4.052
5.9200,3.967
5.9600,3.961
6.0000,3.922
6.0400,3.991
6.0800,3.942
6.1200,3.840
6.1600,3.894
6.2000,3.903
6.2400,3.725
6.2800,3.711
6.3200,3.819
6.3600,3.753
6.4000,3.816
6.4400,3.715
6.4800,3.737
6.5200,3.735
6.5600,3.873
6.6000,3.824
6.6400,3.725
6.6800,3.698
6.7200,3.725
6.7600,3.759
6.8000,3.633
6.8400,3.631
6.8800,3.721
6.9200,3.749
6.9600,3.739
7.0000,3.707
7.0400,3.581
7.0800,3.697
7.1200,3.654
7.1600,3.714
7.2000,3.810
7.2400,3.659
7.2800,3.708
7.3200,3.586
7.3600,3.677
7.4000,3.653
7.4400,3.737
7.4800,3.611
7.5200,3.608
7.5600,3.658
7.6000,3.702
7.6400,3.642
7.6800,3.665
7.7200,3.644
7.7600,3.680
7.8000,3.660
7.8400,3.610
7.8800,3.676
7.9200,3.639
7.9600,3.713
8.0000,3.615
8.0400,3.667
8.0800,3.735
8.1200,3.569
8.1600,3.596
8.2000,3.668
8.2400,3.445
8.2800,3.626
8.3200,3.516
8.3600,3.563
8.4000,3.596
8.4400,3.546
8.4800,3.536
8.5200,3.592
8.5600,3.527
8.6000,3.583
8.6400,3.565
8.6800,3.463
8.7200,3.567
8.7600,3.556
8.8000,3.557
8.8400,3.541
8.8800,3.567
8.9200,3.516
8.9600,3.500
9.0000,3.520
9.0400,3.491
9.0800,3.469
9.1200,3.606
9.1600,3.433
9.2000,3.430
9.2400,3.476
9.2800,3.541
9.3200,3.511
9.3600,3.453
9.4000,3.414
9.4400,3.395
9.4800,3.438
9.5200,3.448
9.5600,3.547
9.6000,3.490
9.6400,3.459
9.6800,3.428
9.7200,3.440
9.7600,3.435
9.8000,3.408
9.8400,3.492
9.8800,3.506
9.9200,3.458
9.9600,3.501
10.0000,3.462
10.0400,3.448
10.0800,3.415
10.1200,3.372
10.1600,3.466
10.2000,3.391
10.2400,3.385
10.2800,3.385
10.3200,3.366
10.3600,3.356
10.4000,3.390
10.4400,3.345
10.4800,3.451
10.5200,3.459
10.5600,3.408
10.6000,3.320
10.6400,3.348
10.6800,3.393
10.7200,3.414
10.7600,3.424
10.8000,3.332
10.8400,3.311
10.8800,3.418
10.9200,3.260
10.9600,3.303
11.0000,3.259
11.0400,3.366
11.0800,3.256
11.1200,3.346
11.1600,3.307
11.2000,3.293
11.2400,3.305
11.2800,3.331
11.3200,3.237
11.3600,3.335
11.4000,3.373
11.4400,3.352
11.4800,3.293
11.5200,3.341
11.5600,3.257
11.6000,3.297
11.6400,3.298
11.6800,3.357
11.7200,3.236
11.7600,3.242
11.8000,3.276
11.8400,3.334
11.8800,3.326
11.9200,3.265
11.9600,3.310
12.0000,3.243
12.0400,3.225
12.0800,3.253
12.1200,3.274
12.1600,3.216
12.2000,3.246
12.2400,3.135
12.2800,3.226
12.3200,3.160
12.3600,3.207
12.4000,3.235
12.4400,3.214
12.4800,3.324
12.5200,3.266
12.5600,3.215
12.6000,3.238
12.6400,3.176
12.6800,3.100
12.7200,3.161
12.7600,3.137
12.8000,3.205
12.8400,3.241
12.8800,3.121
12.9200,3.106
12.9600,3.167
13.0000,3.188
13.0400,3.088
13.0800,3.089
13.1200,3.158
13.1600,3.024
13.2000,3.054
13.2400,3.232
13.2800,3.094
13.3200,3.112
13.3600,3.110
13.4000,3.179
13.4400,3.060
13.4800,3.044
13.5200,3.075
13.5600,3.173
13.6000,3.181
13.6400,3.106
13.6800,3.132
13.7200,3.096
13.7600,3.159
13.8000,3.119
13.8400,3.122
13.8800,3.067
13.9200,3.012
13.9600,3.153
14.0000,3.128
14.0400,3.069
14.0800,3.037
14.1200,3.213
14.1600,3.064
14.2000,3.133
14.2400,3.057
14.2800,2.901
14.3200,3.042
14.3600,3.072
14.4000,2.994
14.4400,2.990
14.4800,2.940
14.5200,2.934
14.5600,2.959
14.6000,3.050
14.6400,2.998
14.6800,2.984
14.7200,2.981
14.7600,3.027
14.8000,3.086
14.8400,3.032
14.8800,2.912
14.9200,2.927
14.9600,2.977
15.0000,3.034
15.0400,2.961
15.0800,2.898
15.1200,3.081
15.1600,2.969
15.2000,2.912
15.2400,2.948
15.2800,2.824
15.3200,2.866
15.3600,2.953
15.4000,3.029
15.4400,2.980
15.4800,2.905
15.5200,2.922
15.5600,2.975
15.6000,2.897
15.6400,2.960
15.6800,2.938
15.7200,2.940
15.7600,2.840
15.8000,3.011
15.8400,2.943
15.8800,2.921
15.9200,2.981
15.9600,2.842
16.0000,2.964
16.0400,2.824
16.0800,2.952
16.1200,2.930
16.1600,2.876
16.2000,2.921
16.2400,2.847
16.2800,2.863
16.3200,2.836
16.3600,2.914
16.4000,2.852
16.4400,2.855
16.4800,2.862
16.5200,2.933
16.5600,2.896
16.6000,2.798
16.6400,2.849
16.6800,2.808
16.7200,2.926
16.7600,2.831
16.8000,2.838
16.8400,2.842
16.8800,2.850
16.9200,2.926
16.9600,2.852
17.0000,2.756
17.0400,2.728
17.0800,2.816
17.1200,2.882
17.1600,2.850
17.2000,2.865
17.2400,2.752
17.2800,2.813
17.3200,2.837
17.3600,2.756
17.4000,2.828
17.4400,2.735
17.4800,2.793
17.5200,2.754
17.5600,2.855
17.6000,2.751
17.6400,2.727
17.6800,2.681
17.7200,2.766
17.7600,2.678
17.8000,2.674
17.8400,2.694
17.8800,2.857
17.9200,2.773
17.9600,2.720
18.0000,2.665
18.0400,2.785
18.0800,2.745
18.1200,2.765
18.1600,2.748
18.2000,2.749
18.2400,2.644
18.2800,2.826
18.3200,2.719
18.3600,2.661
18.4000,2.727
18.4400,2.650
18.4800,2.709
18.5200,2.727
18.5600,2.677
18.6000,2.665
18.6400,2.717
18.6800,2.700
18.7200,2.619
18.7600,2.648
18.8000,2.598
18.8400,2.666
18.8800,2.703
18.9200,2.632
18.9600,2.616
19.0000,2.572
19.0400,2.717
19.0800,2.534
19.1200,2.635
19.1600,2.652
19.2000,2.556
19.2400,2.595
19.2800,2.643
19.3200,2.682
19.3600,2.633
19.4000,2.650
19.4400,2.573
19.4800,2.564
19.5200,2.642
19.5600,2.719
19.6000,2.577
19.6400,2.595
19.6800,2.657
19.7200,2.530
19.7600,2.527
19.8000,2.525
19.8400,2.603
19.8800,2.552
19.9200,2.525
19.9600,2.549
20.0000,2.630
20.0400,2.622
20.0800,2.534
20.1200,2.581
20.1600,2.607
20.2000,2.543
20.2400,2.544
20.2800,2.623
20.3200,2.618
20.3600,2.466
20.4000,2.576
20.4400,2.605
20.4800,2.544
20.5200,2.486
20.5600,2.421
20.6000,2.511
20.6400,2.543
20.6800,2.506
20.7200,2.427
20.7600,2.570
20.8000,2.543
20.8400,2.526
20.8800,2.507
20.9200,2.485
20.9600,2.512
21.0000,2.456
21.0400,2.402
21.0800,2.486
21.1200,2.467
21.1600,2.469
21.2000,2.426
21.2400,2.467
21.2800,2.349
21.3200,2.430
21.3600,2.542
21.4000,2.439
21.4400,2.458
21.4800,2.417
21.5200,2.436
21.5600,2.411
21.6000,2.489
21.6400,2.494
21.6800,2.467
21.7200,2.418
21.7600,2.393
21.8000,2.477
21.8400,2.397
21.8800,2.412
21.9200,2.502
21.9600,2.356
22.0000,2.406
22.0400,2.501
22.0800,2.349
22.1200,2.367
22.1600,2.392
22.2000,2.454
22.2400,2.418
22.2800,2.301
22.3200,2.388
22.3600,2.351
22.4000,2.335
22.4400,2.351
22.4800,2.357
22.5200,2.293
22.5600,2.345
22.6000,2.387
22.6400,2.367
22.6800,2.309
22.7200,2.267
22.7600,2.300
22.8000,2.321
22.8400,2.305
22.8800,2.320
22.9200,2.300
22.9600,2.324
23.0000,2.370
23.0400,2.231
23.0800,2.210
23.1200,2.325
23.1600,2.311
23.2000,2.363
23.2400,2.316
23.2800,2.251
23.3200,2.248
23.3600,2.338
23.4000,2.310
23.4400,2.317
23.4800,2.280
23.5200,2.331
23.5600,2.295
23.6000,2.313
23.6400,2.278
23.6800,2.236
23.7200,2.251
23.7600,2.298
23.8000,2.188
23.8400,2.219
23.8800,2.259
23.9200,2.222
23.9600,2.264
24.0000,2.282
24.0400,2.238
24.0800,2.222
24.1200,2.267
24.1600,2.129
24.2000,2.231
24.2400,2.191
24.2800,2.139
24.3200,2.194
24.3600,2.104
24.4000,2.149
24.4400,2.166
24.4800,2.194
24.5200,2.178
24.5600,2.210
24.6000,2.165
24.6400,2.151
24.6800,2.177
24.7200,2.185
24.7600,2.133
24.8000,2.225
24.8400,2.112
24.8800,2.069
24.9200,2.152
24.9600,2.211
25.0000,2.187
25.0400,2.075
25.0800,2.072
25.1200,2.119
25.1600,2.150
25.2000,2.147
25.2400,2.195
25.2800,2.133
25.3200,2.112
25.3600,2.126
25.4000,2.039
25.4400,2.166
25.4800,2.036
25.5200,2.116
25.5600,2.083
25.6000,2.059
25.6400,2.018
25.6800,2.074
25.7200,2.108
25.7600,2.067
25.8000,2.060
25.8400,2.025
25.8800,2.056
25.9200,2.153
25.9600,2.027
26.0000,1.975
26.0400,2.014
26.0800,1.979
26.1200,2.072
26.1600,2.122
26.2000,2.005
26.2400,1.909
26.2800,1.952
26.3200,1.997
26.3600,2.070
26.4000,1.985
26.4400,2.016
26.4800,2.071
26.5200,2.061
26.5600,1.970
26.6000,1.953
26.6400,2.051
26.6800,1.964
26.7200,1.964
26.7600,2.030
26.8000,2.071
26.8400,1.986
26.8800,2.011
26.9200,1.927
26.9600,1.978
27.0000,1.918
27.0400,1.950
27.0800,2.041
27.1200,1.870
27.1600,1.944
27.2000,1.984
27.2400,1.930
27.2800,1.897
27.3200,1.997
27.3600,1.959
27.4000,1.882
27.4400,1.951
27.4800,1.973
27.5200,1.908
27.5600,2.008
27.6000,1.897
27.6400,1.881
27.6800,1.848
27.7200,1.951
27.7600,1.945
27.8000,1.925
27.8400,1.944
27.8800,1.972
27.9200,1.927
27.9600,1.816
28.0000,1.872
28.0400,1.846
28.0800,1.888
28.1200,1.830
28.1600,1.827
28.2000,1.928
28.2400,1.881
28.2800,1.846
28.3200,1.885
28.3600,1.914
28.4000,1.847
28.4400,1.862
28.4800,1.883
28.5200,1.856
28.5600,1.929
28.6000,1.847
28.6400,1.846
28.6800,1.860
28.7200,1.790
28.7600,1.812
28.8000,1.849
28.8400,1.790
28.8800,1.734
28.9200,1.760
28.9600,1.872
29.0000,1.848
29.0400,1.839
29.0800,1.849
29.1200,1.737
29.1600,1.796
29.2000,1.777
29.2400,1.785
29.2800,1.818
29.3200,1.832
29.3600,1.814
29.4000,1.807
29.4400,1.746
29.4800,1.721
29.5200,1.776
29.5600,1.825
29.6000,1.776
29.6400,1.802
29.6800,1.737
29.7200,1.731
29.7600,1.656
29.8000,1.736
29.8400,1.786
29.8800,1.697
29.9200,1.786
29.9600,1.720
30.0000,1.816
30.0400,1.770
30.0800,1.685
30.1200,1.694
30.1600,1.636
30.2000,1.675
30.2400,1.732
30.2800,1.682
30.3200,1.700
30.3600,1.726
30.4000,1.671
30.4400,1.693
30.4800,1.770
30.5200,1.678
30.5600,1.784
30.6000,1.679
30.6400,1.702
30.6800,1.688
30.7200,1.690
30.7600,1.730
30.8000,1.752
30.8400,1.606
30.8800,1.601
30.9200,1.664
30.9600,1.645
31.0000,1.693
31.0400,1.696
31.0800,1.749
31.1200,1.610
31.1600,1.696
31.2000,1.686
31.2400,1.587
31.2800,1.652
31.3200,1.649
31.3600,1.703
31.4000,1.689
31.4400,1.642
31.4800,1.629
31.5200,1.568
31.5600,1.593
31.6000,1.648
31.6400,1.588
31.6800,1.589
31.7200,1.642
31.7600,1.628
31.8000,1.615
31.8400,1.642
31.8800,1.617
31.9200,1.669
31.9600,1.652
32.0000,1.553
32.0400,1.613
32.0800,1.557
32.1200,1.655
32.1600,1.622
32.2000,1.646
32.2400,1.556
32.2800,1.555
32.3200,1.532
32.3600,1.623
32.4000,1.599
32.4400,1.596
32.4800,1.514
32.5200,1.539
32.5600,1.549
32.6000,1.592
32.6400,1.479
32.6800,1.469
32.7200,1.546
32.7600,1.582
32.8000,1.543
32.8400,1.561
32.8800,1.623
32.9200,1.579
32.9600,1.591
33.0000,1.518
33.0400,1.517
33.0800,1.700
33.1200,1.765
33.1600,1.564
33.2000,1.516
33.2400,1.577
33.2800,1.582
33.3200,1.586
33.3600,1.551
33.4000,1.473
33.4400,1.491
33.4800,1.463
33.5200,1.490
33.5600,1.455
33.6000,1.479
33.6400,1.513
33.6800,1.474
33.7200,1.557
33.7600,1.528
33.8000,1.427
33.8400,1.497
33.8800,1.506
33.9200,1.469
33.9600,1.507
34.0000,1.466
34.0400,1.485
34.0800,1.448
34.1200,1.438
34.1600,1.478
34.2000,1.486
34.2400,1.429
34.2800,1.528
34.3200,1.408
34.3600,1.477
34.4000,1.478
34.4400,1.521
34.4800,1.462
34.5200,1.447
34.5600,1.488
34.6000,1.403
34.6400,1.424
34.6800,1.466
34.7200,1.420
34.7600,1.406
34.8000,1.421
34.8400,1.410
34.8800,1.431
34.9200,1.419
34.9600,1.333
35.0000,1.421
35.0400,1.396
35.0800,1.398
35.1200,1.437
35.1600,1.418
35.2000,1.428
35.2400,1.328
35.2800,1.426
35.3200,1.340
35.3600,1.436
35.4000,1.353
35.4400,1.411
35.4800,1.392
35.5200,1.361
35.5600,1.389
35.6000,1.348
35.6400,1.380
35.6800,1.382
35.7200,1.407
35.7600,1.379
35.8000,1.394
35.8400,1.368
35.8800,1.349
35.9200,1.423
35.9600,1.286
36.0000,1.334
36.0400,1.389
36.0800,1.315
36.1200,1.337
36.1600,1.364
36.2000,1.312
36.2400,1.337
36.2800,1.256
36.3200,1.310
36.3600,1.326
36.4000,1.371
36.4400,1.321
36.4800,1.323
36.5200,1.256
36.5600,1.329
36.6000,1.354
36.6400,1.290
36.6800,1.317
36.7200,1.324
36.7600,1.318
36.8000,1.329
36.8400,1.303
36.8800,1.299
36.9200,1.350
36.9600,1.323
37.0000,1.298
37.0400,1.331
37.0800,1.270
37.1200,1.322
37.1600,1.309
37.2000,1.315
37.2400,1.313
37.2800,1.312
37.3200,1.240
37.3600,1.326
37.4000,1.259
37.4400,1.285
37.4800,1.287
37.5200,1.281
37.5600,1.284
37.6000,1.301
37.6400,1.280
37.6800,1.279
37.7200,1.248
37.7600,1.257
37.8000,1.350
37.8400,1.306
37.8800,1.244
37.9200,1.298
37.9600,1.355
38.0000,1.359
38.0400,1.342
38.0800,1.371
38.1200,1.480
38.1600,1.566
38.2000,1.711
38.2400,1.986
38.2800,2.242
38.3200,2.219
38.3600,2.142
38.4000,1.974
38.4400,1.802
38.4800,1.601
38.5200,1.447
38.5600,1.360
38.6000,1.393
38.6400,1.314
38.6800,1.310
38.7200,1.288
38.7600,1.288
38.8000,1.236
38.8400,1.257
38.8800,1.260
38.9200,1.156
38.9600,1.258
39.0000,1.195
39.0400,1.244
39.0800,1.164
39.1200,1.151
39.1600,1.233
39.2000,1.237
39.2400,1.168
39.2800,1.145
39.3200,1.205
39.3600,1.220
39.4000,1.188
39.4400,1.145
39.4800,1.141
39.5200,1.188
39.5600,1.156
39.6000,1.147
39.6400,1.183
39.6800,1.151
39.7200,1.198
39.7600,1.133
39.8000,1.179
39.8400,1.162
39.8800,1.187
39.9200,1.161
39.9600,1.182
40.0000,1.146
40.0400,1.133
40.0800,1.137
40.1200,1.056
40.1600,1.174
40.2000,1.157
40.2400,1.113
40.2800,1.137
40.3200,1.111
40.3600,1.171
40.4000,1.115
40.4400,1.091
40.4800,1.113
40.5200,1.114
40.5600,1.131
40.6000,1.136
40.6400,1.079
40.6800,1.147
40.7200,1.114
40.7600,1.106
40.8000,1.145
40.8400,1.149
40.8800,1.111
40.9200,1.082
40.9600,1.093
41.0000,1.136
41.0400,1.106
41.0800,1.148
41.1200,1.133
41.1600,1.128
41.2000,1.132
41.2400,1.215
41.2800,1.136
41.3200,1.148
41.3600,1.147
41.4000,1.129
41.4400,1.092
41.4800,1.143
41.5200,1.205
41.5600,1.175
41.6000,1.228
41.6400,1.311
41.6800,1.367
41.7200,1.394
41.7600,1.512
41.8000,1.535
41.8400,1.584
41.8800,1.453
41.9200,1.421
41.9600,1.374
42.0000,1.340
42.0400,1.214
42.0800,1.234
42.1200,1.186
42.1600,1.186
42.2000,1.180
42.2400,1.196
42.2800,1.184
42.3200,1.112
42.3600,1.135
42.4000,1.088
42.4400,1.092
42.4800,1.141
42.5200,1.156
42.5600,1.084
42.6000,1.046
42.6400,1.059
42.6800,1.020
42.7200,1.030
42.7600,0.979
42.8000,1.029
42.8400,1.031
42.8800,1.045
42.9200,1.003
42.9600,1.050
43.0000,1.066
43.0400,1.098
43.0800,1.026
43.1200,1.014
43.1600,0.998
43.2000,0.964
43.2400,1.036
43.2800,1.031
43.3200,0.987
43.3600,1.058
43.4000,0.998
43.4400,0.951
43.4800,0.988
43.5200,1.003
43.5600,0.967
43.6000,0.962
43.6400,1.009
43.6800,1.003
43.7200,0.993
43.7600,1.018
43.8000,0.988
43.8400,1.007
43.8800,1.049
43.9200,0.949
43.9600,1.037
44.0000,1.033
44.0400,0.981
44.0800,1.027
44.1200,1.001
44.1600,1.052
44.2000,0.968
44.2400,0.952
44.2800,1.011
44.3200,1.061
44.3600,1.093
44.4000,1.138
44.4400,1.124
44.4800,1.211
44.5200,1.262
44.5600,1.219
44.6000,1.242
44.6400,1.259
44.6800,1.156
44.7200,1.081
44.7600,1.063
44.8000,1.061
44.8400,0.952
44.8800,0.954
44.9200,0.992
44.9600,1.031
45.0000,0.978
45.0400,0.983
45.0800,0.956
45.1200,0.945
45.1600,0.914
45.2000,0.959
45.2400,0.908
45.2800,0.885
45.3200,0.906
45.3600,0.920
45.4000,0.866
45.4400,0.886
45.4800,0.923
45.5200,0.920
45.5600,0.907
45.6000,0.902
45.6400,0.899
45.6800,0.867
45.7200,0.856
45.7600,0.857
45.8000,0.869
45.8400,0.912
45.8800,0.907
45.9200,0.945
45.9600,0.943
46.0000,0.904
46.0400,0.871
46.0800,0.901
46.1200,0.828
46.1600,0.841
46.2000,0.818
46.2400,0.893
46.2800,0.865
46.3200,0.809
46.3600,0.819
46.4000,0.919
46.4400,0.875
46.4800,0.882
46.5200,0.864
46.5600,0.869
46.6000,0.791
46.6400,0.893
46.6800,0.847
46.7200,0.880
46.7600,0.827
46.8000,0.843
46.8400,0.822
46.8800,0.864
46.9200,0.841
46.9600,0.819
47.0000,0.841
47.0400,0.836
47.0800,0.866
47.1200,0.857
47.1600,0.889
47.2000,0.826
47.2400,0.832
47.2800,0.851
47.3200,0.790
47.3600,0.848
47.4000,0.799
47.4400,0.860
47.4800,0.813
47.5200,0.815
47.5600,0.825
47.6000,0.837
47.6400,0.839
47.6800,0.869
47.7200,0.804
47.7600,0.816
47.8000,0.824
47.8400,0.855
47.8800,0.782
47.9200,0.777
47.9600,0.818
48.0000,0.846
48.0400,0.797
48.0800,0.827
48.1200,0.837
48.1600,0.787
48.2000,0.808
48.2400,0.859
48.2800,0.837
48.3200,0.799
48.3600,0.851
48.4000,0.877
48.4400,0.894
48.4800,0.895
48.5200,0.909
48.5600,0.862
48.6000,0.988
48.6400,0.907
48.6800,0.964
48.7200,0.898
48.7600,0.904
48.8000,0.905
48.8400,0.915
48.8800,0.882
48.9200,0.836
48.9600,0.845
49.0000,0.817
49.0400,0.897
49.0800,0.869
49.1200,0.813
49.1600,0.819
49.2000,0.765
49.2400,0.795
49.2800,0.849
49.3200,0.851
49.3600,0.849
49.4000,0.828
49.4400,0.804
49.4800,0.781
49.5200,0.794
49.5600,0.757
49.6000,0.824
49.6400,0.755
49.6800,0.822
49.7200,0.807
49.7600,0.734
49.8000,0.737
49.8400,0.756
49.8800,0.782
49.9200,0.785
49.9600,0.717
50.0000,0.790
50.0400,0.774
50.0800,0.725
50.1200,0.748
50.1600,0.767
50.2000,0.769
50.2400,0.731
50.2800,0.719
50.3200,0.714
50.3600,0.743
50.4000,0.734
50.4400,0.736
50.4800,0.730
50.5200,0.721
50.5600,0.732
50.6000,0.724
50.6400,0.698
50.6800,0.745
50.7200,0.744
50.7600,0.731
50.8000,0.712
50.8400,0.707
50.8800,0.721
50.9200,0.707
50.9600,0.687
51.0000,0.736
51.0400,0.752
51.0800,0.692
51.1200,0.748
51.1600,0.689
51.2000,0.669
51.2400,0.727
51.2800,0.738
51.3200,0.727
51.3600,0.731
51.4000,0.752
51.4400,0.696
51.4800,0.684
51.5200,0.676
51.5600,0.686
51.6000,0.668
51.6400,0.680
51.6800,0.721
51.7200,0.761
51.7600,0.701
51.8000,0.709
51.8400,0.740
51.8800,0.722
51.9200,0.727
51.9600,0.711
52.0000,0.696
52.0400,0.661
52.0800,0.656
52.1200,0.673
52.1600,0.723
52.2000,0.712
52.2400,0.676
52.2800,0.666
52.3200,0.704
52.3600,0.693
52.4000,0.659
52.4400,0.677
52.4800,0.646
52.5200,0.668
52.5600,0.690
52.6000,0.728
52.6400,0.657
52.6800,0.691
52.7200,0.643
52.7600,0.657
52.8000,0.674
52.8400,0.705
52.8800,0.662
52.9200,0.673
52.9600,0.644
53.0000,0.694
53.0400,0.661
53.0800,0.641
53.1200,0.659
53.1600,0.630
53.2000,0.665
53.2400,0.698
53.2800,0.686
53.3200,0.697
53.3600,0.664
53.4000,0.666
53.4400,0.710
53.4800,0.711
53.5200,0.646
53.5600,0.636
53.6000,0.634
53.6400,0.665
53.6800,0.625
53.7200,0.648
53.7600,0.662
53.8000,0.633
53.8400,0.637
53.8800,0.607
53.9200,0.647
53.9600,0.685
54.0000,0.659
54.0400,0.638
54.0800,0.668
54.1200,0.634
54.1600,0.613
54.2000,0.685
54.2400,0.612
54.2800,0.655
54.3200,0.627
54.3600,0.662
54.4000,0.654
54.4400,0.658
54.4800,0.677
54.5200,0.673
54.5600,0.665
54.6000,0.657
54.6400,0.659
54.6800,0.620
54.7200,0.651
54.7600,0.627
54.8000,0.639
54.8400,0.631
54.8800,0.572
54.9200,0.628
54.9600,0.658
55.0000,0.617
55.0400,0.655
55.0800,0.607
55.1200,0.683
55.1600,0.648
55.2000,0.646
55.2400,0.635
55.2800,0.602
55.3200,0.661
55.3600,0.670
55.4000,0.620
55.4400,0.652
55.4800,0.631
55.5200,0.623
55.5600,0.637
55.6000,0.623
55.6400,0.621
55.6800,0.587
55.7200,0.607
55.7600,0.584
55.8000,0.581
55.8400,0.629
55.8800,0.580
55.9200,0.595
55.9600,0.606
56.0000,0.602
56.0400,0.590
56.0800,0.589
56.1200,0.603
56.1600,0.618
56.2000,0.601
56.2400,0.590
56.2800,0.573
56.3200,0.614
56.3600,0.589
56.4000,0.609
56.4400,0.556
56.4800,0.621
56.5200,0.596
56.5600,0.577
56.6000,0.590
56.6400,0.574
56.6800,0.565
56.7200,0.563
56.7600,0.617
56.8000,0.612
56.8400,0.623
56.8800,0.596
56.9200,0.585
56.9600,0.574
57.0000,0.599
57.0400,0.581
57.0800,0.595
57.1200,0.583
57.1600,0.555
57.2000,0.601
57.2400,0.560
57.2800,0.618
57.3200,0.568
57.3600,0.566
57.4000,0.563
57.4400,0.576
57.4800,0.586
57.5200,0.583
57.5600,0.560
57.6000,0.561
57.6400,0.629
57.6800,0.590
57.7200,0.589
57.7600,0.593
57.8000,0.636
57.8400,0.606
57.8800,0.533
57.9200,0.566
57.9600,0.568
58.0000,0.569
58.0400,0.577
58.0800,0.559
58.1200,0.571
58.1600,0.563
58.2000,0.596
58.2400,0.619
58.2800,0.589
58.3200,0.597
58.3600,0.539
58.4000,0.585
58.4400,0.594
58.4800,0.534
58.5200,0.558
58.5600,0.548
58.6000,0.543
58.6400,0.555
58.6800,0.613
58.7200,0.561
58.7600,0.568
58.8000,0.546
58.8400,0.556
58.8800,0.579
58.9200,0.564
58.9600,0.546
59.0000,0.580
59.0400,0.553
59.0800,0.527
59.1200,0.543
59.1600,0.577
59.2000,0.543
59.2400,0.574
59.2800,0.557
59.3200,0.579
59.3600,0.566
59.4000,0.585
59.4400,0.559
59.4800,0.534
59.5200,0.530
59.5600,0.563
59.6000,0.546
59.6400,0.553
59.6800,0.537
59.7200,0.552
59.7600,0.606
59.8000,0.560
59.8400,0.565
59.8800,0.538
59.9200,0.558
59.9600,0.534
60.0000,0.540
60.0400,0.535
60.0800,0.562
60.1200,0.527
60.1600,0.557
60.2000,0.571
60.2400,0.553
60.2800,0.553
60.3200,0.517
60.3600,0.525
60.4000,0.559
60.4400,0.554
60.4800,0.540
60.5200,0.530
60.5600,0.595
60.6000,0.547
60.6400,0.524
60.6800,0.550
60.7200,0.533
60.7600,0.587
60.8000,0.532
60.8400,0.546
60.8800,0.547
60.9200,0.568
60.9600,0.507
61.0000,0.543
61.0400,0.519
61.0800,0.507
61.1200,0.496
61.1600,0.548
61.2000,0.546
61.2400,0.511
61.2800,0.545
61.3200,0.521
61.3600,0.526
61.4000,0.555
61.4400,0.527
61.4800,0.540
61.5200,0.509
61.5600,0.515
61.6000,0.545
61.6400,0.537
61.6800,0.555
61.7200,0.602
61.7600,0.617
61.8000,0.576
61.8400,0.535
61.8800,0.511
61.9200,0.563
61.9600,0.467
62.0000,0.501
62.0400,0.515
62.0800,0.513
62.1200,0.505
62.1600,0.487
62.2000,0.507
62.2400,0.520
62.2800,0.500
62.3200,0.546
62.3600,0.514
62.4000,0.541
62.4400,0.491
62.4800,0.494
62.5200,0.507
62.5600,0.539
62.6000,0.500
62.6400,0.493
62.6800,0.518
62.7200,0.560
62.7600,0.511
62.8000,0.520
62.8400,0.503
62.8800,0.506
62.9200,0.560
62.9600,0.555
63.0000,0.510
63.0400,0.519
63.0800,0.549
63.1200,0.538
63.1600,0.520
63.2000,0.507
63.2400,0.535
63.2800,0.549
63.3200,0.536
63.3600,0.516
63.4000,0.510
63.4400,0.526
63.4800,0.528
63.5200,0.482
63.5600,0.512
63.6000,0.471
63.6400,0.506
63.6800,0.510
63.7200,0.517
63.7600,0.531
63.8000,0.533
63.8400,0.519
63.8800,0.541
63.9200,0.501
63.9600,0.534
64.0000,0.573
64.0400,0.543
64.0800,0.483
64.1200,0.509
64.1600,0.541
64.2000,0.581
64.2400,0.566
64.2800,0.566
64.3200,0.536
64.3600,0.563
64.4000,0.586
64.4400,0.553
64.4800,0.603
64.5200,0.699
64.5600,0.646
64.6000,0.683
64.6400,0.742
64.6800,0.730
64.7200,0.787
64.7600,0.776
64.8000,0.780
64.8400,0.743
64.8800,0.775
64.9200,0.751
64.9600,0.660
65.0000,0.667
65.0400,0.653
65.0800,0.612
65.1200,0.599
65.1600,0.611
65.2000,0.579
65.2400,0.600
65.2800,0.628
65.3200,0.607
65.3600,0.626
65.4000,0.619
65.4400,0.636
65.4800,0.619
65.5200,0.626
65.5600,0.640
65.6000,0.645
65.6400,0.612
65.6800,0.704
65.7200,0.638
65.7600,0.637
65.8000,0.610
65.8400,0.636
65.8800,0.683
65.9200,0.684
65.9600,0.680
66.0000,0.719
66.0400,0.708
66.0800,0.688
66.1200,0.723
66.1600,0.725
66.2000,0.736
66.2400,0.734
66.2800,0.794
66.3200,0.784
66.3600,0.790
66.4000,0.745
66.4400,0.751
66.4800,0.786
66.5200,0.807
66.5600,0.760
66.6000,0.860
66.6400,0.840
66.6800,0.802
66.7200,0.903
66.7600,0.889
66.8000,0.874
66.8400,0.877
66.8800,0.926
66.9200,0.853
66.9600,0.952
67.0000,0.954
67.0400,0.899
67.0800,1.005
67.1200,0.924
67.1600,0.988
67.2000,1.058
67.2400,1.069
67.2800,1.072
67.3200,1.134
67.3600,1.122
67.4000,1.096
67.4400,1.133
67.4800,1.176
67.5200,1.227
67.5600,1.255
67.6000,1.297
67.6400,1.214
67.6800,1.342
67.7200,1.361
67.7600,1.351
67.8000,1.371
67.8400,1.404
67.8800,1.405
67.9200,1.545
67.9600,1.558
68.0000,1.595
68.0400,1.659
68.0800,1.589
68.1200,1.695
68.1600,1.693
68.2000,1.762
68.2400,1.867
68.2800,1.870
68.3200,1.944
68.3600,2.075
68.4000,2.080
68.4400,2.194
68.4800,2.338
68.5200,2.358
68.5600,2.499
68.6000,2.592
68.6400,2.796
68.6800,2.992
68.7200,3.265
68.7600,3.856
68.8000,4.765
68.8400,6.273
68.8800,7.318
68.9200,7.568
68.9600,7.511
69.0000,8.604
69.0400,11.194
69.0800,17.457
69.1200,38.588
69.1600,189.831
69.2000,515.909
69.2400,422.228
69.2800,117.423
69.3200,48.240
69.3600,121.332
69.4000,273.191
69.4400,210.367
69.4800,59.517
69.5200,19.366
69.5600,11.360
69.6000,8.229
69.6400,6.635
69.6800,5.715
69.7200,4.920
69.7600,4.563
69.8000,4.206
69.8400,3.766
69.8800,3.490
69.9200,3.184
69.9600,3.039
70.0000,2.847
70.0400,2.754
70.0800,2.671
70.1200,2.534
70.1600,2.458
70.2000,2.394
70.2400,2.284
70.2800,2.230
70.3200,2.146
70.3600,2.135
70.4000,2.044
70.4400,1.881
70.4800,1.829
70.5200,1.786
70.5600,1.749
70.6000,1.714
70.6400,1.577
70.6800,1.522
70.7200,1.538
70.7600,1.499
70.8000,1.501
70.8400,1.463
70.8800,1.393
70.9200,1.390
70.9600,1.346
71.0000,1.371
71.0400,1.314
71.0800,1.263
71.1200,1.336
71.1600,1.313
71.2000,1.252
71.2400,1.194
71.2800,1.193
71.3200,1.125
71.3600,1.059
71.4000,1.021
71.4400,1.047
71.4800,1.022
71.5200,0.952
71.5600,0.961
71.6000,0.920
71.6400,0.928
71.6800,0.909
71.7200,0.872
71.7600,0.833
71.8000,0.823
71.8400,0.841
71.8800,0.836
71.9200,0.770
71.9600,0.758
72.0000,0.738
72.0400,0.758
72.0800,0.697
72.1200,0.680
72.1600,0.714
72.2000,0.694
72.2400,0.678
72.2800,0.696
72.3200,0.622
72.3600,0.637
72.4000,0.609
72.4400,0.638
72.4800,0.653
72.5200,0.595
72.5600,0.635
72.6000,0.583
72.6400,0.591
72.6800,0.594
72.7200,0.581
72.7600,0.539
72.8000,0.566
72.8400,0.532
72.8800,0.587
72.9200,0.590
72.9600,0.560
73.0000,0.561
73.0400,0.522
73.0800,0.521
73.1200,0.507
73.1600,0.537
73.2000,0.495
73.2400,0.477
73.2800,0.508
73.3200,0.468
73.3600,0.464
73.4000,0.462
73.4400,0.489
73.4800,0.434
73.5200,0.430
73.5600,0.470
73.6000,0.466
73.6400,0.494
73.6800,0.439
73.7200,0.452
73.7600,0.460
73.8000,0.462
73.8400,0.437
73.8800,0.425
73.9200,0.451
73.9600,0.431
74.0000,0.411
74.0400,0.392
74.0800,0.414
74.1200,0.422
74.1600,0.433
74.2000,0.405
74.2400,0.387
74.2800,0.408
74.3200,0.417
74.3600,0.404
74.4000,0.370
74.4400,0.427
74.4800,0.390
74.5200,0.412
74.5600,0.415
74.6000,0.386
74.6400,0.387
74.6800,0.352
74.7200,0.370
74.7600,0.388
74.8000,0.411
74.8400,0.375
74.8800,0.384
74.9200,0.381
74.9600,0.361
75.0000,0.387
75.0400,0.363
75.0800,0.365
75.1200,0.372
75.1600,0.381
75.2000,0.351
75.2400,0.356
75.2800,0.356
75.3200,0.355
75.3600,0.398
75.4000,0.384
75.4400,0.338
75.4800,0.346
75.5200,0.363
75.5600,0.359
75.6000,0.331
75.6400,0.328
75.6800,0.337
75.7200,0.376
75.7600,0.355
75.8000,0.393
75.8400,0.342
75.8800,0.353
75.9200,0.372
75.9600,0.358
76.0000,0.322
76.0400,0.350
76.0800,0.319
76.1200,0.319
76.1600,0.346
76.2000,0.367
76.2400,0.366
76.2800,0.316
76.3200,0.335
76.3600,0.352
76.4000,0.361
76.4400,0.332
76.4800,0.363
76.5200,0.351
76.5600,0.343
76.6000,0.299
76.6400,0.347
76.6800,0.341
76.7200,0.313
76.7600,0.348
76.8000,0.360
76.8400,0.328
76.8800,0.305
76.9200,0.315
76.9600,0.345
77.0000,0.304
77.0400,0.296
77.0800,0.305
77.1200,0.328
77.1600,0.343
77.2000,0.304
77.2400,0.342
77.2800,0.335
77.3200,0.328
77.3600,0.333
77.4000,0.360
77.4400,0.367
77.4800,0.398
77.5200,0.367
77.5600,0.405
77.6000,0.469
77.6400,0.460
77.6800,0.472
77.7200,0.495
77.7600,0.502
77.8000,0.496
77.8400,0.480
77.8800,0.483
77.9200,0.440
77.9600,0.444
78.0000,0.468
78.0400,0.414
78.0800,0.403
78.1200,0.380
78.1600,0.375
78.2000,0.338
78.2400,0.348
78.2800,0.318
78.3200,0.344
78.3600,0.309
78.4000,0.313
78.4400,0.299
78.4800,0.322
78.5200,0.292
78.5600,0.325
78.6000,0.306
78.6400,0.300
78.6800,0.308
78.7200,0.306
78.7600,0.302
78.8000,0.303
78.8400,0.292
78.8800,0.282
78.9200,0.295
78.9600,0.279
79.0000,0.288
79.0400,0.291
79.0800,0.288
79.1200,0.265
79.1600,0.318
79.2000,0.312
79.2400,0.305
79.2800,0.277
79.3200,0.283
79.3600,0.267
79.4000,0.267
79.4400,0.287
79.4800,0.299
79.5200,0.278
79.5600,0.260
79.6000,0.271
79.6400,0.279
79.6800,0.262
79.7200,0.285
79.7600,0.275
79.8000,0.281
79.8400,0.300
79.8800,0.290
79.9200,0.244
79.9600,0.287
80.0000,0.265
