theta,intensity
5.0000,4.897
5.0400,5.045
5.0800,4.778
5.1200,4.874
5.1600,4.785
5.2000,4.860
5.2400,4.675
5.2800,4.797
5.3200,4.831
5.3600,4.723
5.4000,4.749
5.4400,4.769
5.4800,4.655
5.5200,4.618
5.5600,4.660
5.6000,4.523
5.6400,4.557
5.6800,4.546
5.7200,4.511
5.7600,4.544
5.8000,4.406
5.8400,4.303
5.8800,4.273
5.9200,4.351
5.9600,4.272
6.0000,4.159
6.0400,4.260
6.0800,4.085
6.1200,4.137
6.1600,4.109
6.2000,3.967
6.2400,3.945
6.2800,4.059
6.3200,3.970
6.3600,3.813
6.4000,3.963
6.4400,3.946
6.4800,4.031
6.5200,3.859
6.5600,3.861
6.6000,3.808
6.6400,3.898
6.6800,3.899
6.7200,3.855
6.7600,3.929
6.8000,3.878
6.8400,3.963
6.8800,3.926
6.9200,3.871
6.9600,3.949
7.0000,3.957
7.0400,3.853
7.0800,3.875
7.1200,3.821
7.1600,3.840
7.2000,3.757
7.2400,3.774
7.2800,3.868
7.3200,3.870
7.3600,3.744
7.4000,3.768
7.4400,3.813
7.4800,3.769
7.5200,3.808
7.5600,3.791
7.6000,3.738
7.6400,3.728
7.6800,3.785
7.7200,3.656
7.7600,3.770
7.8000,3.742
7.8400,3.759
7.8800,3.731
7.9200,3.831
7.9600,3.675
8.0000,3.719
8.0400,3.728
8.0800,3.701
8.1200,3.719
8.1600,3.768
8.2000,3.777
8.2400,3.769
8.2800,3.630
8.3200,3.726
8.3600,3.649
8.4000,3.614
8.4400,3.716
8.4800,3.708
8.5200,3.643
8.5600,3.729
8.6000,3.704
8.6400,3.686
8.6800,3.611
8.7200,3.659
8.7600,3.579
8.8000,3.572
8.8400,3.558
8.8800,3.610
8.9200,3.509
8.9600,3.589
9.0000,3.544
9.0400,3.656
9.0800,3.712
9.1200,3.674
9.1600,3.530
9.2000,3.608
9.2400,3.504
9.2800,3.632
9.3200,3.540
9.3600,3.653
9.4000,3.570
9.4400,3.566
9.4800,3.649
9.5200,3.599
9.5600,3.542
9.6000,3.608
9.6400,3.605
9.6800,3.689
9.7200,3.596
9.7600,3.528
9.8000,3.643
9.8400,3.519
9.8800,3.412
9.9200,3.503
9.9600,3.606
10.0000,3.439
10.0400,3.648
10.0800,3.436
10.1200,3.598
10.1600,3.536
10.2000,3.519
10.2400,3.389
10.2800,3.451
10.3200,3.413
10.3600,3.524
10.4000,3.474
10.4400,3.412
10.4800,3.444
10.5200,3.462
10.5600,3.499
10.6000,3.416
10.6400,3.534
10.6800,3.443
10.7200,3.472
10.7600,3.483
10.8000,3.530
10.8400,3.477
10.8800,3.400
10.9200,3.455
10.9600,3.540
11.0000,3.350
11.0400,3.407
11.0800,3.457
11.1200,3.379
11.1600,3.454
11.2000,3.438
11.2400,3.438
11.2800,3.356
11.3200,3.404
11.3600,3.393
11.4000,3.387
11.4400,3.450
11.4800,3.441
11.5200,3.445
11.5600,3.216
11.6000,3.334
11.6400,3.356
11.6800,3.275
11.7200,3.386
11.7600,3.362
11.8000,3.296
11.8400,3.335
11.8800,3.293
11.9200,3.402
11.9600,3.266
12.0000,3.397
12.0400,3.314
12.0800,3.380
12.1200,3.302
12.1600,3.317
12.2000,3.273
12.2400,3.335
12.2800,3.375
12.3200,3.317
12.3600,3.332
12.4000,3.335
12.4400,3.318
12.4800,3.270
12.5200,3.364
12.5600,3.282
12.6000,3.280
12.6400,3.299
12.6800,3.234
12.7200,3.249
12.7600,3.250
12.8000,3.184
12.8400,3.307
12.8800,3.195
12.9200,3.405
12.9600,3.285
13.0000,3.230
13.0400,3.215
13.0800,3.250
13.1200,3.119
13.1600,3.178
13.2000,3.199
13.2400,3.175
13.2800,3.222
13.3200,3.319
13.3600,3.235
13.4000,3.251
13.4400,3.289
13.4800,3.184
13.5200,3.163
13.5600,3.154
13.6000,3.206
13.6400,3.239
13.6800,3.240
13.7200,3.082
13.7600,3.168
13.8000,3.187
13.8400,3.189
13.8800,3.122
13.9200,3.163
13.9600,3.243
14.0000,3.106
14.0400,3.150
14.0800,3.152
14.1200,3.211
14.1600,3.140
14.2000,3.120
14.2400,3.032
14.2800,3.139
14.3200,3.172
14.3600,3.172
14.4000,3.074
14.4400,3.150
14.4800,3.185
14.5200,3.096
14.5600,3.053
14.6000,3.226
14.6400,3.134
14.6800,3.123
14.7200,3.109
14.7600,3.109
14.8000,3.087
14.8400,3.145
14.8800,3.065
14.9200,3.087
14.9600,3.149
15.0000,3.031
15.0400,2.957
15.0800,3.035
15.1200,3.098
15.1600,2.968
15.2000,3.006
15.2400,3.102
15.2800,3.033
15.3200,3.051
15.3600,2.950
15.4000,3.016
15.4400,2.973
15.4800,2.965
15.5200,3.026
15.5600,2.898
15.6000,3.002
15.6400,2.929
15.6800,2.859
15.7200,2.979
15.7600,2.973
15.8000,2.988
15.8400,2.907
15.8800,3.011
15.9200,2.954
15.9600,2.989
16.0000,2.930
16.0400,2.879
16.0800,2.941
16.1200,2.982
16.1600,2.964
16.2000,2.963
16.2400,2.984
16.2800,2.865
16.3200,2.928
16.3600,2.864
16.4000,3.018
16.4400,2.997
16.4800,2.947
16.5200,2.893
16.5600,3.005
16.6000,2.886
16.6400,2.930
16.6800,2.909
16.7200,2.918
16.7600,2.872
16.8000,2.887
16.8400,2.815
16.8800,2.868
16.9200,2.869
16.9600,2.926
17.0000,2.889
17.0400,2.922
17.0800,2.869
17.1200,2.843
17.1600,2.841
17.2000,2.823
17.2400,2.758
17.2800,2.874
17.3200,2.797
17.3600,2.823
17.4000,2.915
17.4400,2.860
17.4800,2.815
17.5200,2.850
17.5600,2.911
17.6000,2.825
17.6400,2.879
17.6800,2.765
17.7200,2.835
17.7600,2.848
17.8000,2.842
17.8400,2.878
17.8800,2.793
17.9200,2.729
17.9600,2.675
18.0000,2.768
18.0400,2.890
18.0800,2.824
18.1200,2.809
18.1600,2.787
18.2000,2.747
18.2400,2.772
18.2800,2.701
18.3200,2.808
18.3600,2.828
18.4000,2.796
18.4400,2.792
18.4800,2.727
18.5200,2.840
18.5600,2.807
18.6000,2.766
18.6400,2.789
18.6800,2.782
18.7200,2.732
18.7600,2.741
18.8000,2.726
18.8400,2.668
18.8800,2.692
18.9200,2.717
18.9600,2.636
19.0000,2.821
19.0400,2.730
19.0800,2.714
19.1200,2.714
19.1600,2.690
19.2000,2.718
19.2400,2.661
19.2800,2.686
19.3200,2.612
19.3600,2.734
19.4000,2.649
19.4400,2.680
19.4800,2.648
19.5200,2.668
19.5600,2.684
19.6000,2.678
19.6400,2.647
19.6800,2.631
19.7200,2.620
19.7600,2.617
19.8000,2.688
19.8400,2.653
19.8800,2.660
19.9200,2.606
19.9600,2.617
20.0000,2.634
20.0400,2.636
20.0800,2.581
20.1200,2.623
20.1600,2.582
20.2000,2.667
20.2400,2.609
20.2800,2.632
20.3200,2.565
20.3600,2.566
20.4000,2.637
20.4400,2.552
20.4800,2.570
20.5200,2.475
20.5600,2.616
20.6000,2.580
20.6400,2.539
20.6800,2.635
20.7200,2.562
20.7600,2.551
20.8000,2.569
20.8400,2.529
20.8800,2.505
20.9200,2.477
20.9600,2.463
21.0000,2.525
21.0400,2.508
21.0800,2.551
21.1200,2.440
21.1600,2.510
21.2000,2.514
21.2400,2.501
21.2800,2.479
21.3200,2.530
21.3600,2.476
21.4000,2.415
21.4400,2.459
21.4800,2.481
21.5200,2.470
21.5600,2.414
21.6000,2.391
21.6400,2.460
21.6800,2.556
21.7200,2.436
21.7600,2.453
21.8000,2.455
21.8400,2.401
21.8800,2.448
21.9200,2.523
21.9600,2.395
22.0000,2.481
22.0400,2.373
22.0800,2.431
22.1200,2.417
22.1600,2.470
22.2000,2.468
22.2400,2.443
22.2800,2.456
22.3200,2.352
22.3600,2.422
22.4000,2.548
22.4400,2.512
22.4800,2.387
22.5200,2.352
22.5600,2.385
22.6000,2.326
22.6400,2.372
22.6800,2.425
22.7200,2.480
22.7600,2.345
22.8000,2.432
22.8400,2.328
22.8800,2.430
22.9200,2.396
22.9600,2.402
23.0000,2.445
23.0400,2.394
23.0800,2.428
23.1200,2.418
23.1600,2.384
23.2000,2.425
23.2400,2.381
23.2800,2.478
23.3200,2.390
23.3600,2.422
23.4000,2.397
23.4400,2.425
23.4800,2.426
23.5200,2.471
23.5600,2.347
23.6000,2.488
23.6400,2.377
23.6800,2.395
23.7200,2.446
23.7600,2.474
23.8000,2.349
23.8400,2.466
23.8800,2.457
23.9200,2.498
23.9600,2.550
24.0000,2.505
24.0400,2.657
24.0800,2.671
24.1200,2.626
24.1600,2.730
24.2000,2.660
24.2400,2.761
24.2800,2.791
24.3200,2.745
24.3600,2.738
24.4000,2.698
24.4400,2.586
24.4800,2.749
24.5200,2.629
24.5600,2.541
24.6000,2.579
24.6400,2.514
24.6800,2.434
24.7200,2.428
24.7600,2.461
24.8000,2.398
24.8400,2.429
24.8800,2.352
24.9200,2.328
24.9600,2.304
25.0000,2.284
25.0400,2.287
25.0800,2.312
25.1200,2.302
25.1600,2.250
25.2000,2.251
25.2400,2.268
25.2800,2.212
25.3200,2.189
25.3600,2.130
25.4000,2.149
25.4400,2.259
25.4800,2.263
25.5200,2.254
25.5600,2.111
25.6000,2.223
25.6400,2.194
25.6800,2.138
25.7200,2.224
25.7600,2.150
25.8000,2.104
25.8400,2.124
25.8800,2.119
25.9200,2.167
25.9600,2.159
26.0000,2.120
26.0400,2.159
26.0800,2.167
26.1200,2.028
26.1600,2.078
26.2000,2.055
26.2400,2.058
26.2800,2.107
26.3200,2.164
26.3600,2.143
26.4000,2.081
26.4400,2.120
26.4800,2.142
26.5200,2.088
26.5600,2.095
26.6000,2.053
26.6400,2.086
26.6800,2.022
26.7200,2.091
26.7600,2.023
26.8000,2.147
26.8400,2.068
26.8800,1.951
26.9200,2.011
26.9600,1.976
27.0000,1.997
27.0400,2.029
27.0800,2.028
27.1200,1.954
27.1600,2.001
27.2000,1.997
27.2400,1.997
27.2800,1.947
27.3200,1.932
27.3600,2.021
27.4000,1.947
27.4400,1.947
27.4800,1.924
27.5200,2.014
27.5600,2.022
27.6000,2.026
27.6400,2.008
27.6800,1.905
27.7200,2.000
27.7600,1.919
27.8000,1.905
27.8400,1.944
27.8800,1.929
27.9200,1.907
27.9600,1.956
28.0000,1.921
28.0400,1.969
28.0800,1.988
28.1200,1.960
28.1600,1.943
28.2000,1.891
28.2400,1.896
28.2800,1.959
28.3200,1.920
28.3600,1.850
28.4000,1.821
28.4400,1.923
28.4800,1.899
28.5200,1.898
28.5600,1.835
28.6000,1.892
28.6400,1.955
28.6800,1.875
28.7200,1.924
28.7600,1.904
28.8000,1.829
28.8400,1.928
28.8800,1.862
28.9200,1.806
28.9600,1.861
29.0000,1.876
29.0400,1.822
29.0800,1.900
29.1200,1.904
29.1600,1.882
29.2000,1.946
29.2400,1.854
29.2800,1.858
29.3200,1.790
29.3600,1.852
29.4000,1.871
29.4400,1.832
29.4800,1.734
29.5200,1.787
29.5600,1.816
29.6000,1.864
29.6400,1.777
29.6800,1.823
29.7200,1.814
29.7600,1.747
29.8000,1.826
29.8400,1.880
29.8800,1.775
29.9200,1.757
29.9600,1.771
30.0000,1.879
30.0400,1.843
30.0800,1.846
30.1200,1.823
30.1600,1.809
30.2000,1.850
30.2400,1.779
30.2800,1.759
30.3200,1.734
30.3600,1.743
30.4000,1.759
30.4400,1.809
30.4800,1.838
30.5200,1.768
30.5600,1.828
30.6000,1.863
30.6400,1.837
30.6800,1.799
30.7200,1.807
30.7600,1.804
30.8000,1.728
30.8400,1.826
30.8800,1.835
30.9200,1.832
30.9600,1.720
31.0000,1.786
31.0400,1.762
31.0800,1.783
31.1200,1.731
31.1600,1.723
31.2000,1.758
31.2400,1.710
31.2800,1.792
31.3200,1.785
31.3600,1.768
31.4000,1.768
31.4400,1.839
31.4800,1.793
31.5200,1.828
31.5600,1.887
31.6000,1.784
31.6400,1.821
31.6800,1.839
31.7200,1.922
31.7600,1.891
31.8000,1.929
31.8400,1.978
31.8800,1.929
31.9200,1.989
31.9600,2.007
32.0000,1.983
32.0400,2.008
32.0800,1.937
32.1200,1.950
32.1600,1.963
32.2000,1.872
32.2400,1.917
32.2800,1.830
32.3200,1.848
32.3600,1.822
32.4000,1.892
32.4400,1.709
32.4800,1.671
32.5200,1.725
32.5600,1.763
32.6000,1.734
32.6400,1.734
32.6800,1.735
32.7200,1.685
32.7600,1.673
32.8000,1.600
32.8400,1.705
32.8800,1.718
32.9200,1.624
32.9600,1.683
33.0000,1.655
33.0400,1.853
33.0800,1.803
33.1200,1.740
33.1600,1.652
33.2000,1.661
33.2400,1.639
33.2800,1.591
33.3200,1.578
33.3600,1.627
33.4000,1.581
33.4400,1.575
33.4800,1.667
33.5200,1.639
33.5600,1.589
33.6000,1.607
33.6400,1.535
33.6800,1.611
33.7200,1.656
33.7600,1.524
33.8000,1.596
33.8400,1.615
33.8800,1.617
33.9200,1.513
33.9600,1.526
34.0000,1.513
34.0400,1.530
34.0800,1.515
34.1200,1.507
34.1600,1.504
34.2000,1.458
34.2400,1.437
34.2800,1.497
34.3200,1.460
34.3600,1.512
34.4000,1.465
34.4400,1.471
34.4800,1.478
34.5200,1.465
34.5600,1.514
34.6000,1.483
34.6400,1.528
34.6800,1.508
34.7200,1.471
34.7600,1.477
34.8000,1.472
34.8400,1.488
34.8800,1.482
34.9200,1.425
34.9600,1.471
35.0000,1.479
35.0400,1.539
35.0800,1.495
35.1200,1.382
35.1600,1.434
35.2000,1.425
35.2400,1.519
35.2800,1.458
35.3200,1.342
35.3600,1.406
35.4000,1.437
35.4400,1.476
35.4800,1.478
35.5200,1.429
35.5600,1.446
35.6000,1.378
35.6400,1.416
35.6800,1.382
35.7200,1.406
35.7600,1.427
35.8000,1.391
35.8400,1.381
35.8800,1.453
35.9200,1.388
35.9600,1.395
36.0000,1.366
36.0400,1.388
36.0800,1.412
36.1200,1.413
36.1600,1.436
36.2000,1.417
36.2400,1.400
36.2800,1.432
36.3200,1.428
36.3600,1.385
36.4000,1.390
36.4400,1.389
36.4800,1.358
36.5200,1.412
36.5600,1.395
36.6000,1.415
36.6400,1.419
36.6800,1.455
36.7200,1.383
36.7600,1.370
36.8000,1.311
36.8400,1.408
36.8800,1.420
36.9200,1.395
36.9600,1.377
37.0000,1.417
37.0400,1.399
37.0800,1.418
37.1200,1.428
37.1600,1.363
37.2000,1.410
37.2400,1.318
37.2800,1.407
37.3200,1.371
37.3600,1.426
37.4000,1.424
37.4400,1.429
37.4800,1.449
37.5200,1.410
37.5600,1.379
37.6000,1.414
37.6400,1.390
37.6800,1.440
37.7200,1.308
37.7600,1.450
37.8000,1.428
37.8400,1.420
37.8800,1.465
37.9200,1.522
37.9600,1.557
38.0000,1.620
38.0400,1.659
38.0800,1.681
38.1200,1.784
38.1600,1.805
38.2000,1.929
38.2400,1.940
38.2800,1.999
38.3200,2.230
38.3600,2.263
38.4000,2.358
38.4400,2.521
38.4800,2.691
38.5200,2.683
38.5600,2.696
38.6000,2.587
38.6400,2.534
38.6800,2.456
38.7200,2.318
38.7600,2.301
38.8000,2.105
38.8400,2.068
38.8800,1.986
38.9200,1.898
38.9600,1.849
39.0000,1.712
39.0400,1.668
39.0800,1.738
39.1200,1.603
39.1600,1.631
39.2000,1.663
39.2400,1.587
39.2800,1.561
39.3200,1.625
39.3600,1.578
39.4000,1.592
39.4400,1.570
39.4800,1.658
39.5200,1.543
39.5600,1.622
39.6000,1.632
39.6400,1.588
39.6800,1.672
39.7200,1.609
39.7600,1.595
39.8000,1.649
39.8400,1.731
39.8800,1.773
39.9200,1.824
39.9600,1.899
40.0000,1.895
40.0400,1.940
40.0800,2.006
40.1200,2.197
40.1600,2.340
40.2000,2.567
40.2400,2.688
40.2800,2.973
40.3200,3.352
40.3600,3.579
40.4000,3.912
40.4400,4.197
40.4800,4.484
40.5200,4.549
40.5600,4.367
40.6000,4.356
40.6400,4.150
40.6800,3.767
40.7200,3.474
40.7600,3.067
40.8000,2.836
40.8400,2.592
40.8800,2.359
40.9200,2.217
40.9600,2.000
41.0000,1.935
41.0400,1.781
41.0800,1.698
41.1200,1.650
41.1600,1.586
41.2000,1.609
41.2400,1.494
41.2800,1.504
41.3200,1.469
41.3600,1.412
41.4000,1.441
41.4400,1.414
41.4800,1.372
41.5200,1.363
41.5600,1.300
41.6000,1.325
41.6400,1.227
41.6800,1.252
41.7200,1.213
41.7600,1.173
41.8000,1.176
41.8400,1.226
41.8800,1.197
41.9200,1.200
41.9600,1.211
42.0000,1.149
42.0400,1.228
42.0800,1.166
42.1200,1.209
42.1600,1.133
42.2000,1.158
42.2400,1.237
42.2800,1.151
42.3200,1.148
42.3600,1.165
42.4000,1.153
42.4400,1.109
42.4800,1.220
42.5200,1.124
42.5600,1.128
42.6000,1.166
42.6400,1.178
42.6800,1.092
42.7200,1.068
42.7600,1.179
42.8000,1.127
42.8400,1.126
42.8800,1.111
42.9200,1.131
42.9600,1.198
43.0000,1.094
43.0400,1.088
43.0800,1.114
43.1200,1.023
43.1600,1.081
43.2000,1.091
43.2400,1.140
43.2800,1.114
43.3200,1.045
43.3600,1.042
43.4000,1.060
43.4400,1.104
43.4800,1.132
43.5200,1.159
43.5600,1.115
43.6000,1.122
43.6400,1.091
43.6800,1.174
43.7200,1.157
43.7600,1.064
43.8000,1.119
43.8400,1.121
43.8800,1.068
43.9200,1.200
43.9600,1.152
44.0000,1.108
44.0400,1.156
44.0800,1.204
44.1200,1.165
44.1600,1.115
44.2000,1.199
44.2400,1.216
44.2800,1.224
44.3200,1.160
44.3600,1.245
44.4000,1.270
44.4400,1.277
44.4800,1.282
44.5200,1.302
44.5600,1.313
44.6000,1.383
44.6400,1.416
44.6800,1.449
44.7200,1.482
44.7600,1.492
44.8000,1.527
44.8400,1.459
44.8800,1.478
44.9200,1.436
44.9600,1.369
45.0000,1.390
45.0400,1.425
45.0800,1.395
45.1200,1.401
45.1600,1.368
45.2000,1.396
45.2400,1.347
45.2800,1.321
45.3200,1.377
45.3600,1.378
45.4000,1.348
45.4400,1.346
45.4800,1.347
45.5200,1.389
45.5600,1.442
45.6000,1.414
45.6400,1.470
45.6800,1.527
45.7200,1.570
45.7600,1.644
45.8000,1.607
45.8400,1.587
45.8800,1.618
45.9200,1.649
45.9600,1.562
46.0000,1.506
46.0400,1.428
46.0800,1.476
46.1200,1.464
46.1600,1.343
46.2000,1.300
46.2400,1.299
46.2800,1.272
46.3200,1.176
46.3600,1.119
46.4000,1.098
46.4400,1.114
46.4800,1.051
46.5200,1.019
46.5600,0.991
46.6000,1.045
46.6400,1.041
46.6800,1.068
46.7200,1.080
46.7600,0.981
46.8000,0.977
46.8400,0.983
46.8800,0.963
46.9200,0.983
46.9600,0.962
47.0000,0.897
47.0400,0.956
47.0800,0.931
47.1200,0.981
47.1600,0.931
47.2000,1.005
47.2400,0.945
47.2800,0.942
47.3200,0.949
47.3600,0.948
47.4000,0.947
47.4400,0.914
47.4800,0.938
47.5200,0.929
47.5600,0.956
47.6000,0.902
47.6400,0.921
47.6800,0.894
47.7200,0.895
47.7600,0.892
47.8000,0.942
47.8400,0.919
47.8800,0.902
47.9200,0.879
47.9600,0.917
48.0000,0.838
48.0400,0.924
48.0800,0.897
48.1200,0.866
48.1600,0.884
48.2000,0.912
48.2400,0.891
48.2800,0.860
48.3200,0.870
48.3600,0.895
48.4000,0.868
48.4400,0.884
48.4800,0.877
48.5200,0.854
48.5600,0.900
48.6000,0.898
48.6400,0.906
48.6800,0.843
48.7200,0.859
48.7600,0.841
48.8000,0.903
48.8400,0.865
48.8800,0.894
48.9200,0.915
48.9600,0.875
49.0000,0.854
49.0400,0.906
49.0800,0.939
49.1200,0.880
49.1600,0.954
49.2000,0.907
49.2400,0.919
49.2800,0.895
49.3200,0.883
49.3600,0.921
49.4000,0.940
49.4400,0.997
49.4800,0.978
49.5200,0.922
49.5600,0.945
49.6000,0.960
49.6400,0.971
49.6800,1.053
49.7200,1.042
49.7600,0.973
49.8000,0.965
49.8400,0.945
49.8800,0.969
49.9200,1.003
49.9600,0.955
50.0000,0.919
50.0400,0.886
50.0800,0.942
50.1200,0.896
50.1600,0.885
50.2000,0.865
50.2400,0.850
50.2800,0.850
50.3200,0.847
50.3600,0.855
50.4000,0.841
50.4400,0.805
50.4800,0.856
50.5200,0.820
50.5600,0.807
50.6000,0.789
50.6400,0.794
50.6800,0.782
50.7200,0.791
50.7600,0.862
50.8000,0.828
50.8400,0.777
50.8800,0.812
50.9200,0.853
50.9600,0.807
51.0000,0.795
51.0400,0.779
51.0800,0.797
51.1200,0.721
51.1600,0.766
51.2000,0.734
51.2400,0.772
51.2800,0.761
51.3200,0.769
51.3600,0.770
51.4000,0.749
51.4400,0.762
51.4800,0.788
51.5200,0.813
51.5600,0.747
51.6000,0.809
51.6400,0.779
51.6800,0.765
51.7200,0.753
51.7600,0.761
51.8000,0.797
51.8400,0.812
51.8800,0.807
51.9200,0.756
51.9600,0.790
52.0000,0.792
52.0400,0.798
52.0800,0.774
52.1200,0.829
52.1600,0.819
52.2000,0.819
52.2400,0.830
52.2800,0.868
52.3200,0.863
52.3600,0.884
52.4000,0.926
52.4400,0.930
52.4800,0.936
52.5200,0.935
52.5600,0.902
52.6000,0.966
52.6400,0.906
52.6800,0.889
52.7200,0.873
52.7600,0.861
52.8000,0.852
52.8400,0.826
52.8800,0.810
52.9200,0.759
52.9600,0.783
53.0000,0.770
53.0400,0.750
53.0800,0.765
53.1200,0.769
53.1600,0.726
53.2000,0.734
53.2400,0.725
53.2800,0.716
53.3200,0.724
53.3600,0.723
53.4000,0.726
53.4400,0.713
53.4800,0.703
53.5200,0.689
53.5600,0.707
53.6000,0.702
53.6400,0.656
53.6800,0.654
53.7200,0.697
53.7600,0.674
53.8000,0.663
53.8400,0.669
53.8800,0.681
53.9200,0.665
53.9600,0.689
54.0000,0.654
54.0400,0.681
54.0800,0.711
54.1200,0.697
54.1600,0.665
54.2000,0.648
54.2400,0.684
54.2800,0.698
54.3200,0.701
54.3600,0.642
54.4000,0.686
54.4400,0.720
54.4800,0.684
54.5200,0.653
54.5600,0.645
54.6000,0.676
54.6400,0.689
54.6800,0.666
54.7200,0.672
54.7600,0.677
54.8000,0.685
54.8400,0.679
54.8800,0.652
54.9200,0.653
54.9600,0.651
55.0000,0.658
55.0400,0.658
55.0800,0.602
55.1200,0.638
55.1600,0.638
55.2000,0.683
55.2400,0.665
55.2800,0.680
55.3200,0.649
55.3600,0.692
55.4000,0.642
55.4400,0.646
55.4800,0.611
55.5200,0.619
55.5600,0.640
55.6000,0.614
55.6400,0.670
55.6800,0.666
55.7200,0.651
55.7600,0.658
55.8000,0.655
55.8400,0.642
55.8800,0.646
55.9200,0.630
55.9600,0.623
56.0000,0.613
56.0400,0.614
56.0800,0.606
56.1200,0.610
56.1600,0.679
56.2000,0.655
56.2400,0.634
56.2800,0.656
56.3200,0.616
56.3600,0.630
56.4000,0.608
56.4400,0.622
56.4800,0.606
56.5200,0.648
56.5600,0.639
56.6000,0.605
56.6400,0.621
56.6800,0.649
56.7200,0.614
56.7600,0.616
56.8000,0.609
56.8400,0.643
56.8800,0.611
56.9200,0.614
56.9600,0.608
57.0000,0.636
57.0400,0.592
57.0800,0.572
57.1200,0.599
57.1600,0.607
57.2000,0.618
57.2400,0.605
57.2800,0.672
57.3200,0.570
57.3600,0.594
57.4000,0.600
57.4400,0.620
57.4800,0.600
57.5200,0.632
57.5600,0.622
57.6000,0.611
57.6400,0.608
57.6800,0.590
57.7200,0.569
57.7600,0.606
57.8000,0.643
57.8400,0.627
57.8800,0.580
57.9200,0.592
57.9600,0.583
58.0000,0.586
58.0400,0.630
58.0800,0.546
58.1200,0.570
58.1600,0.604
58.2000,0.608
58.2400,0.609
58.2800,0.586
58.3200,0.604
58.3600,0.617
58.4000,0.594
58.4400,0.585
58.4800,0.621
58.5200,0.599
58.5600,0.571
58.6000,0.589
58.6400,0.609
58.6800,0.581
58.7200,0.607
58.7600,0.578
58.8000,0.557
58.8400,0.622
58.8800,0.600
58.9200,0.595
58.9600,0.598
59.0000,0.633
59.0400,0.579
59.0800,0.595
59.1200,0.619
59.1600,0.638
59.2000,0.628
59.2400,0.635
59.2800,0.580
59.3200,0.595
59.3600,0.626
59.4000,0.627
59.4400,0.596
59.4800,0.601
59.5200,0.596
59.5600,0.596
59.6000,0.638
59.6400,0.590
59.6800,0.594
59.7200,0.638
59.7600,0.594
59.8000,0.596
59.8400,0.642
59.8800,0.651
59.9200,0.633
59.9600,0.581
60.0000,0.655
60.0400,0.648
60.0800,0.643
60.1200,0.634
60.1600,0.680
60.2000,0.646
60.2400,0.645
60.2800,0.679
60.3200,0.664
60.3600,0.674
60.4000,0.669
60.4400,0.642
60.4800,0.643
60.5200,0.633
60.5600,0.626
60.6000,0.655
60.6400,0.605
60.6800,0.608
60.7200,0.625
60.7600,0.617
60.8000,0.602
60.8400,0.577
60.8800,0.613
60.9200,0.597
60.9600,0.578
61.0000,0.612
61.0400,0.597
61.0800,0.575
61.1200,0.572
61.1600,0.580
61.2000,0.578
61.2400,0.588
61.2800,0.541
61.3200,0.575
61.3600,0.599
61.4000,0.567
61.4400,0.556
61.4800,0.546
61.5200,0.564
61.5600,0.576
61.6000,0.574
61.6400,0.581
61.6800,0.629
61.7200,0.581
61.7600,0.560
61.8000,0.542
61.8400,0.606
61.8800,0.567
61.9200,0.532
61.9600,0.496
62.0000,0.501
62.0400,0.543
62.0800,0.550
62.1200,0.544
62.1600,0.513
62.2000,0.556
62.2400,0.577
62.2800,0.565
62.3200,0.540
62.3600,0.574
62.4000,0.540
62.4400,0.584
62.4800,0.547
62.5200,0.556
62.5600,0.554
62.6000,0.535
62.6400,0.561
62.6800,0.540
62.7200,0.559
62.7600,0.539
62.8000,0.514
62.8400,0.550
62.8800,0.543
62.9200,0.505
62.9600,0.508
63.0000,0.497
63.0400,0.530
63.0800,0.565
63.1200,0.541
63.1600,0.532
63.2000,0.523
63.2400,0.549
63.2800,0.531
63.3200,0.556
63.3600,0.529
63.4000,0.549
63.4400,0.525
63.4800,0.522
63.5200,0.590
63.5600,0.539
63.6000,0.561
63.6400,0.558
63.6800,0.539
63.7200,0.531
63.7600,0.583
63.8000,0.563
63.8400,0.584
63.8800,0.593
63.9200,0.574
63.9600,0.582
64.0000,0.553
64.0400,0.601
64.0800,0.590
64.1200,0.598
64.1600,0.585
64.2000,0.580
64.2400,0.577
64.2800,0.620
64.3200,0.607
64.3600,0.594
64.4000,0.608
64.4400,0.621
64.4800,0.619
64.5200,0.657
64.5600,0.669
64.6000,0.695
64.6400,0.667
64.6800,0.710
64.7200,0.699
64.7600,0.726
64.8000,0.774
64.8400,0.697
64.8800,0.716
64.9200,0.747
64.9600,0.801
65.0000,0.813
65.0400,0.837
65.0800,0.830
65.1200,0.886
65.1600,0.888
65.2000,0.873
65.2400,0.921
65.2800,0.880
65.3200,0.798
65.3600,0.900
65.4000,0.801
65.4400,0.841
65.4800,0.839
65.5200,0.805
65.5600,0.795
65.6000,0.794
65.6400,0.803
65.6800,0.828
65.7200,0.760
65.7600,0.759
65.8000,0.786
65.8400,0.787
65.8800,0.743
65.9200,0.809
65.9600,0.789
66.0000,0.801
66.0400,0.786
66.0800,0.826
66.1200,0.837
66.1600,0.827
66.2000,0.815
66.2400,0.855
66.2800,0.854
66.3200,0.846
66.3600,0.929
66.4000,0.839
66.4400,0.925
66.4800,0.898
66.5200,0.954
66.5600,0.961
66.6000,0.979
66.6400,0.992
66.6800,1.052
66.7200,1.063
66.7600,1.075
66.8000,1.086
66.8400,1.121
66.8800,1.078
66.9200,1.095
66.9600,1.098
67.0000,1.108
67.0400,1.105
67.0800,1.169
67.1200,1.135
67.1600,1.181
67.2000,1.130
67.2400,1.212
67.2800,1.201
67.3200,1.230
67.3600,1.179
67.4000,1.193
67.4400,1.244
67.4800,1.329
67.5200,1.279
67.5600,1.301
67.6000,1.345
67.6400,1.301
67.6800,1.326
67.7200,1.367
67.7600,1.371
67.8000,1.397
67.8400,1.404
67.8800,1.449
67.9200,1.449
67.9600,1.467
68.0000,1.566
68.0400,1.619
68.0800,1.714
68.1200,1.728
68.1600,1.800
68.2000,1.801
68.2400,1.795
68.2800,1.925
68.3200,1.948
68.3600,2.016
68.4000,2.156
68.4400,2.234
68.4800,2.320
68.5200,2.317
68.5600,2.611
68.6000,2.671
68.6400,2.969
68.6800,3.199
68.7200,3.850
68.7600,4.731
68.8000,6.097
68.8400,6.995
68.8800,7.077
68.9200,7.187
68.9600,8.515
69.0000,11.663
69.0400,19.285
69.0800,44.788
69.1200,220.723
69.1600,487.672
69.2000,333.740
69.2400,86.750
69.2800,47.851
69.3200,134.712
69.3600,253.209
69.4000,164.219
69.4400,43.675
69.4800,16.339
69.5200,10.221
69.5600,7.612
69.6000,6.303
69.6400,5.442
69.6800,4.812
69.7200,4.261
69.7600,4.039
69.8000,3.687
69.8400,3.544
69.8800,3.306
69.9200,3.041
69.9600,2.871
70.0000,2.786
70.0400,2.655
70.0800,2.551
70.1200,2.522
70.1600,2.323
70.2000,2.238
70.2400,2.272
70.2800,2.081
70.3200,2.056
70.3600,1.955
70.4000,1.813
70.4400,1.870
70.4800,1.692
70.5200,1.640
70.5600,1.679
70.6000,1.497
70.6400,1.525
70.6800,1.515
70.7200,1.458
70.7600,1.446
70.8000,1.396
70.8400,1.333
70.8800,1.278
70.9200,1.277
70.9600,1.222
71.0000,1.202
71.0400,1.205
71.0800,1.194
71.1200,1.104
71.1600,1.120
71.2000,1.058
71.2400,1.038
71.2800,1.066
71.3200,1.047
71.3600,1.021
71.4000,0.997
71.4400,0.959
71.4800,0.906
71.5200,0.876
71.5600,0.895
71.6000,0.842
71.6400,0.913
71.6800,0.826
71.7200,0.840
71.7600,0.811
71.8000,0.816
71.8400,0.778
71.8800,0.853
71.9200,0.797
71.9600,0.803
72.0000,0.786
72.0400,0.793
72.0800,0.782
72.1200,0.752
72.1600,0.712
72.2000,0.666
72.2400,0.652
72.2800,0.721
72.3200,0.674
72.3600,0.695
72.4000,0.632
72.4400,0.680
72.4800,0.651
72.5200,0.609
72.5600,0.627
72.6000,0.581
72.6400,0.608
72.6800,0.624
72.7200,0.609
72.7600,0.666
72.8000,0.632
72.8400,0.557
72.8800,0.572
72.9200,0.589
72.9600,0.569
73.0000,0.535
73.0400,0.542
73.0800,0.526
73.1200,0.523
73.1600,0.518
73.2000,0.530
73.2400,0.515
73.2800,0.496
73.3200,0.504
73.3600,0.515
73.4000,0.522
73.4400,0.499
73.4800,0.499
73.5200,0.502
73.5600,0.437
73.6000,0.489
73.6400,0.477
73.6800,0.490
73.7200,0.486
73.7600,0.496
73.8000,0.430
73.8400,0.472
73.8800,0.464
73.9200,0.469
73.9600,0.443
74.0000,0.454
74.0400,0.487
74.0800,0.433
74.1200,0.452
74.1600,0.445
74.2000,0.420
74.2400,0.446
74.2800,0.437
74.3200,0.426
74.3600,0.433
74.4000,0.414
74.4400,0.423
74.4800,0.455
74.5200,0.440
74.5600,0.440
74.6000,0.413
74.6400,0.421
74.6800,0.425
74.7200,0.414
74.7600,0.429
74.8000,0.393
74.8400,0.432
74.8800,0.425
74.9200,0.423
74.9600,0.418
75.0000,0.390
75.0400,0.419
75.0800,0.433
75.1200,0.395
75.1600,0.393
75.2000,0.453
75.2400,0.436
75.2800,0.421
75.3200,0.425
75.3600,0.424
75.4000,0.389
75.4400,0.392
75.4800,0.425
75.5200,0.401
75.5600,0.414
75.6000,0.392
75.6400,0.400
75.6800,0.419
75.7200,0.437
75.7600,0.399
75.8000,0.423
75.8400,0.449
75.8800,0.443
75.9200,0.406
75.9600,0.443
76.0000,0.427
76.0400,0.422
76.0800,0.417
76.1200,0.401
76.1600,0.377
76.2000,0.412
76.2400,0.416
76.2800,0.402
76.3200,0.403
76.3600,0.386
76.4000,0.392
76.4400,0.399
76.4800,0.376
76.5200,0.395
76.5600,0.385
76.6000,0.395
76.6400,0.377
76.6800,0.356
76.7200,0.377
76.7600,0.352
76.8000,0.376
76.8400,0.389
76.8800,0.346
76.9200,0.406
76.9600,0.360
77.0000,0.390
77.0400,0.375
77.0800,0.375
77.1200,0.383
77.1600,0.345
77.2000,0.355
77.2400,0.386
77.2800,0.414
77.3200,0.376
77.3600,0.387
77.4000,0.388
77.4400,0.420
77.4800,0.398
77.5200,0.406
77.5600,0.420
77.6000,0.426
77.6400,0.462
77.6800,0.452
77.7200,0.458
77.7600,0.423
77.8000,0.447
77.8400,0.469
77.8800,0.480
77.9200,0.501
77.9600,0.525
78.0000,0.556
78.0400,0.509
78.0800,0.532
78.1200,0.548
78.1600,0.547
78.2000,0.559
78.2400,0.540
78.2800,0.539
78.3200,0.544
78.3600,0.578
78.4000,0.474
78.4400,0.515
78.4800,0.520
78.5200,0.464
78.5600,0.478
78.6000,0.485
78.6400,0.496
78.6800,0.448
78.7200,0.461
78.7600,0.460
78.8000,0.446
78.8400,0.426
78.8800,0.397
78.9200,0.408
78.9600,0.421
79.0000,0.440
79.0400,0.409
79.0800,0.401
79.1200,0.386
79.1600,0.376
79.2000,0.404
79.2400,0.386
79.2800,0.369
79.3200,0.404
79.3600,0.405
79.4000,0.322
79.4400,0.398
79.4800,0.379
79.5200,0.367
79.5600,0.343
79.6000,0.360
79.6400,0.344
79.6800,0.367
79.7200,0.371
79.7600,0.380
79.8000,0.360
79.8400,0.342
79.8800,0.370
79.9200,0.390
79.9600,0.362
80.0000,0.369
