theta,intensity
5.0000,8.442
5.0400,8.368
5.0800,8.343
5.1200,8.388
5.1600,8.307
5.2000,8.081
5.2400,8.040
5.2800,7.970
5.3200,7.850
5.3600,7.846
5.4000,7.940
5.4400,7.801
5.4800,7.548
5.5200,7.606
5.5600,7.321
5.6000,7.358
5.6400,7.336
5.6800,7.221
5.7200,7.046
5.7600,6.986
5.8000,6.956
5.8400,6.630
5.8800,6.598
5.9200,6.548
5.9600,6.521
6.0000,6.423
6.0400,6.216
6.0800,6.034
6.1200,5.912
6.1600,5.816
6.2000,5.773
6.2400,5.675
6.2800,5.578
6.3200,5.456
6.3600,5.291
6.4000,5.186
6.4400,5.054
6.4800,4.948
6.5200,4.972
6.5600,4.891
6.6000,4.857
6.6400,4.715
6.6800,4.698
6.7200,4.694
6.7600,4.625
6.8000,4.514
6.8400,4.462
6.8800,4.548
6.9200,4.440
6.9600,4.402
7.0000,4.307
7.0400,4.266
7.0800,4.368
7.1200,4.389
7.1600,4.322
7.2000,4.329
7.2400,4.203
7.2800,4.272
7.3200,4.159
7.3600,4.257
7.4000,4.239
7.4400,4.417
7.4800,4.201
7.5200,4.056
7.5600,4.249
7.6000,4.193
7.6400,4.166
7.6800,4.175
7.7200,4.153
7.7600,4.142
7.8000,3.930
7.8400,4.109
7.8800,4.061
7.9200,4.120
7.9600,4.044
8.0000,4.023
8.0400,4.058
8.0800,4.078
8.1200,3.932
8.1600,4.003
8.2000,4.093
8.2400,4.031
8.2800,4.033
8.3200,4.018
8.3600,3.948
8.4000,3.986
8.4400,4.087
8.4800,3.973
8.5200,3.957
8.5600,3.982
8.6000,3.962
8.6400,3.984
8.6800,4.051
8.7200,3.975
8.7600,3.975
8.8000,3.872
8.8400,3.884
8.8800,3.846
8.9200,3.943
8.9600,3.869
9.0000,3.927
9.0400,3.921
9.0800,3.845
9.1200,3.856
9.1600,3.873
9.2000,3.899
9.2400,3.888
9.2800,3.834
9.3200,3.926
9.3600,3.878
9.4000,3.760
9.4400,3.888
9.4800,3.823
9.5200,3.824
9.5600,3.838
9.6000,3.800
9.6400,3.858
9.6800,3.763
9.7200,3.754
9.7600,3.688
9.8000,3.782
9.8400,3.812
9.8800,3.814
9.9200,3.862
9.9600,3.836
10.0000,3.786
10.0400,3.845
10.0800,3.765
10.1200,3.802
10.1600,3.709
10.2000,3.759
10.2400,3.667
10.2800,3.634
10.3200,3.866
10.3600,3.615
10.4000,3.648
10.4400,3.679
10.4800,3.692
10.5200,3.699
10.5600,3.689
10.6000,3.697
10.6400,3.627
10.6800,3.592
10.7200,3.732
10.7600,3.665
10.8000,3.731
10.8400,3.748
10.8800,3.543
10.9200,3.444
10.9600,3.608
11.0000,3.761
11.0400,3.556
11.0800,3.654
11.1200,3.754
11.1600,3.698
11.2000,3.610
11.2400,3.651
11.2800,3.635
11.3200,3.664
11.3600,3.588
11.4000,3.535
11.4400,3.600
11.4800,3.516
11.5200,3.517
11.5600,3.626
11.6000,3.513
11.6400,3.548
11.6800,3.535
11.7200,3.577
11.7600,3.599
11.8000,3.456
11.8400,3.614
11.8800,3.546
11.9200,3.481
11.9600,3.396
12.0000,3.490
12.0400,3.504
12.0800,3.551
12.1200,3.531
12.1600,3.543
12.2000,3.440
12.2400,3.425
12.2800,3.554
12.3200,3.429
12.3600,3.451
12.4000,3.493
12.4400,3.478
12.4800,3.556
12.5200,3.529
12.5600,3.553
12.6000,3.544
12.6400,3.355
12.6800,3.436
12.7200,3.436
12.7600,3.481
12.8000,3.522
12.8400,3.496
12.8800,3.470
12.9200,3.383
12.9600,3.453
13.0000,3.384
13.0400,3.453
13.0800,3.409
13.1200,3.435
13.1600,3.538
13.2000,3.487
13.2400,3.395
13.2800,3.359
13.3200,3.427
13.3600,3.422
13.4000,3.405
13.4400,3.426
13.4800,3.471
13.5200,3.438
13.5600,3.417
13.6000,3.323
13.6400,3.457
13.6800,3.381
13.7200,3.268
13.7600,3.260
13.8000,3.321
13.8400,3.279
13.8800,3.420
13.9200,3.391
13.9600,3.317
14.0000,3.248
14.0400,3.335
14.0800,3.320
14.1200,3.473
14.1600,3.291
14.2000,3.278
14.2400,3.327
14.2800,3.304
14.3200,3.415
14.3600,3.303
14.4000,3.278
14.4400,3.274
14.4800,3.272
14.5200,3.290
14.5600,3.333
14.6000,3.255
14.6400,3.239
14.6800,3.279
14.7200,3.291
14.7600,3.232
14.8000,3.220
14.8400,3.319
14.8800,3.219
14.9200,3.224
14.9600,3.347
15.0000,3.274
15.0400,3.279
15.0800,3.217
15.1200,3.227
15.1600,3.251
15.2000,3.228
15.2400,3.274
15.2800,3.271
15.3200,3.208
15.3600,3.215
15.4000,3.221
15.4400,3.179
15.4800,3.202
15.5200,3.150
15.5600,3.232
15.6000,3.213
15.6400,3.227
15.6800,3.193
15.7200,3.180
15.7600,3.156
15.8000,3.086
15.8400,3.147
15.8800,3.206
15.9200,3.090
15.9600,3.249
16.0000,3.189
16.0400,3.115
16.0800,3.123
16.1200,3.091
16.1600,3.096
16.2000,3.071
16.2400,3.145
16.2800,3.156
16.3200,2.997
16.3600,3.149
16.4000,3.070
16.4400,3.098
16.4800,3.150
16.5200,3.075
16.5600,3.089
16.6000,3.142
16.6400,3.136
16.6800,3.070
16.7200,3.049
16.7600,3.068
16.8000,3.059
16.8400,3.154
16.8800,3.155
16.9200,3.005
16.9600,2.967
17.0000,3.136
17.0400,3.072
17.0800,3.087
17.1200,3.054
17.1600,3.063
17.2000,3.052
17.2400,3.053
17.2800,3.001
17.3200,3.076
17.3600,3.017
17.4000,3.009
17.4400,3.077
17.4800,3.071
17.5200,3.056
17.5600,3.007
17.6000,3.022
17.6400,3.027
17.6800,3.013
17.7200,3.001
17.7600,2.961
17.8000,3.007
17.8400,3.009
17.8800,2.960
17.9200,2.914
17.9600,2.969
18.0000,2.957
18.0400,2.990
18.0800,2.951
18.1200,2.889
18.1600,2.974
18.2000,2.987
18.2400,3.032
18.2800,2.948
18.3200,2.919
18.3600,2.943
18.4000,2.949
18.4400,2.950
18.4800,3.015
18.5200,2.920
18.5600,2.858
18.6000,2.878
18.6400,2.979
18.6800,2.924
18.7200,2.923
18.7600,2.863
18.8000,2.961
18.8400,2.936
18.8800,2.925
18.9200,2.896
18.9600,2.818
19.0000,2.851
19.0400,2.946
19.0800,2.886
19.1200,2.912
19.1600,2.813
19.2000,2.954
19.2400,2.868
19.2800,2.932
19.3200,2.904
19.3600,2.921
19.4000,2.937
19.4400,2.766
19.4800,2.869
19.5200,2.889
19.5600,2.833
19.6000,2.880
19.6400,2.851
19.6800,2.777
19.7200,2.903
19.7600,2.787
19.8000,2.784
19.8400,2.900
19.8800,2.852
19.9200,2.827
19.9600,2.805
20.0000,2.767
20.0400,2.751
20.0800,2.827
20.1200,2.815
20.1600,2.864
20.2000,2.822
20.2400,2.839
20.2800,2.830
20.3200,2.868
20.3600,2.781
20.4000,2.784
20.4400,2.727
20.4800,2.855
20.5200,2.764
20.5600,2.734
20.6000,2.817
20.6400,2.732
20.6800,2.771
20.7200,2.726
20.7600,2.710
20.8000,2.886
20.8400,2.719
20.8800,2.742
20.9200,2.689
20.9600,2.788
21.0000,2.778
21.0400,2.705
21.0800,2.787
21.1200,2.770
21.1600,2.735
21.2000,2.733
21.2400,2.674
21.2800,2.774
21.3200,2.742
21.3600,2.773
21.4000,2.644
21.4400,2.682
21.4800,2.741
21.5200,2.744
21.5600,2.682
21.6000,2.715
21.6400,2.738
21.6800,2.644
21.7200,2.701
21.7600,2.776
21.8000,2.722
21.8400,2.689
21.8800,2.711
21.9200,2.738
21.9600,2.736
22.0000,2.694
22.0400,2.646
22.0800,2.626
22.1200,2.738
22.1600,2.649
22.2000,2.702
22.2400,2.682
22.2800,2.688
22.3200,2.721
22.3600,2.661
22.4000,2.652
22.4400,2.698
22.4800,2.707
22.5200,2.601
22.5600,2.622
22.6000,2.660
22.6400,2.690
22.6800,2.599
22.7200,2.609
22.7600,2.570
22.8000,2.607
22.8400,2.625
22.8800,2.636
22.9200,2.637
22.9600,2.636
23.0000,2.648
23.0400,2.598
23.0800,2.725
23.1200,2.545
23.1600,2.540
23.2000,2.697
23.2400,2.655
23.2800,2.615
23.3200,2.543
23.3600,2.648
23.4000,2.543
23.4400,2.634
23.4800,2.662
23.5200,2.611
23.5600,2.598
23.6000,2.565
23.6400,2.599
23.6800,2.610
23.7200,2.638
23.7600,2.621
23.8000,2.523
23.8400,2.526
23.8800,2.540
23.9200,2.607
23.9600,2.542
24.0000,2.531
24.0400,2.546
24.0800,2.643
24.1200,2.556
24.1600,2.633
24.2000,2.569
24.2400,2.552
24.2800,2.487
24.3200,2.571
24.3600,2.529
24.4000,2.534
24.4400,2.611
24.4800,2.484
24.5200,2.561
24.5600,2.513
24.6000,2.563
24.6400,2.554
24.6800,2.533
24.7200,2.447
24.7600,2.499
24.8000,2.506
24.8400,2.484
24.8800,2.623
24.9200,2.528
24.9600,2.502
25.0000,2.598
25.0400,2.507
25.0800,2.497
25.1200,2.463
25.1600,2.478
25.2000,2.449
25.2400,2.541
25.2800,2.520
25.3200,2.530
25.3600,2.520
25.4000,2.427
25.4400,2.459
25.4800,2.397
25.5200,2.420
25.5600,2.507
25.6000,2.534
25.6400,2.503
25.6800,2.447
25.7200,2.476
25.7600,2.408
25.8000,2.380
25.8400,2.464
25.8800,2.343
25.9200,2.558
25.9600,2.440
26.0000,2.472
26.0400,2.476
26.0800,2.466
26.1200,2.429
26.1600,2.423
26.2000,2.439
26.2400,2.420
26.2800,2.541
26.3200,2.507
26.3600,2.282
26.4000,2.437
26.4400,2.446
26.4800,2.458
26.5200,2.418
26.5600,2.376
26.6000,2.418
26.6400,2.427
26.6800,2.459
26.7200,2.453
26.7600,2.437
26.8000,2.361
26.8400,2.487
26.8800,2.405
26.9200,2.458
26.9600,2.332
27.0000,2.414
27.0400,2.400
27.0800,2.378
27.1200,2.375
27.1600,2.484
27.2000,2.347
27.2400,2.402
27.2800,2.399
27.3200,2.436
27.3600,2.312
27.4000,2.371
27.4400,2.407
27.4800,2.369
27.5200,2.364
27.5600,2.341
27.6000,2.323
27.6400,2.309
27.6800,2.366
27.7200,2.310
27.7600,2.339
27.8000,2.327
27.8400,2.319
27.8800,2.410
27.9200,2.317
27.9600,2.299
28.0000,2.450
28.0400,2.338
28.0800,2.326
28.1200,2.409
28.1600,2.353
28.2000,2.355
28.2400,2.508
28.2800,2.364
28.3200,2.342
28.3600,2.362
28.4000,2.310
28.4400,2.333
28.4800,2.397
28.5200,2.246
28.5600,2.271
28.6000,2.354
28.6400,2.266
28.6800,2.337
28.7200,2.295
28.7600,2.326
28.8000,2.394
28.8400,2.308
28.8800,2.297
28.9200,2.348
28.9600,2.309
29.0000,2.254
29.0400,2.306
29.0800,2.236
29.1200,2.303
29.1600,2.246
29.2000,2.173
29.2400,2.259
29.2800,2.300
29.3200,2.315
29.3600,2.291
29.4000,2.233
29.4400,2.311
29.4800,2.338
29.5200,2.209
29.5600,2.214
29.6000,2.249
29.6400,2.187
29.6800,2.350
29.7200,2.306
29.7600,2.323
29.8000,2.223
29.8400,2.240
29.8800,2.251
29.9200,2.241
29.9600,2.300
30.0000,2.281
30.0400,2.172
30.0800,2.304
30.1200,2.277
30.1600,2.234
30.2000,2.176
30.2400,2.243
30.2800,2.207
30.3200,2.234
30.3600,2.337
30.4000,2.296
30.4400,2.312
30.4800,2.271
30.5200,2.106
30.5600,2.213
30.6000,2.158
30.6400,2.191
30.6800,2.203
30.7200,2.269
30.7600,2.258
30.8000,2.270
30.8400,2.160
30.8800,2.169
30.9200,2.220
30.9600,2.170
31.0000,2.137
31.0400,2.212
31.0800,2.231
31.1200,2.177
31.1600,2.221
31.2000,2.207
31.2400,2.222
31.2800,2.153
31.3200,2.106
31.3600,2.229
31.4000,2.244
31.4400,2.148
31.4800,2.204
31.5200,2.194
31.5600,2.198
31.6000,2.190
31.6400,2.234
31.6800,2.191
31.7200,2.203
31.7600,2.118
31.8000,2.169
31.8400,2.121
31.8800,2.160
31.9200,2.189
31.9600,2.139
32.0000,2.090
32.0400,2.087
32.0800,2.128
32.1200,2.204
32.1600,2.199
32.2000,2.125
32.2400,2.086
32.2800,2.173
32.3200,2.119
32.3600,2.142
32.4000,2.172
32.4400,2.180
32.4800,2.210
32.5200,2.070
32.5600,2.166
32.6000,2.115
32.6400,2.179
32.6800,2.160
32.7200,2.163
32.7600,2.150
32.8000,2.182
32.8400,2.122
32.8800,2.177
32.9200,2.139
32.9600,2.377
33.0000,2.698
33.0400,2.798
33.0800,2.514
33.1200,2.189
33.1600,2.108
33.2000,2.086
33.2400,2.167
33.2800,2.204
33.3200,2.099
33.3600,2.103
33.4000,2.036
33.4400,2.036
33.4800,2.102
33.5200,2.040
33.5600,2.103
33.6000,2.090
33.6400,2.030
33.6800,2.116
33.7200,2.059
33.7600,2.163
33.8000,2.019
33.8400,2.090
33.8800,2.129
33.9200,2.041
33.9600,2.157
34.0000,2.054
34.0400,2.122
34.0800,2.089
34.1200,2.058
34.1600,2.073
34.2000,2.061
34.2400,2.056
34.2800,2.049
34.3200,2.114
34.3600,2.087
34.4000,2.024
34.4400,2.098
34.4800,2.080
34.5200,1.949
34.5600,2.001
34.6000,2.017
34.6400,2.086
34.6800,2.102
34.7200,2.062
34.7600,2.046
34.8000,2.074
34.8400,2.071
34.8800,2.076
34.9200,2.068
34.9600,2.082
35.0000,2.021
35.0400,2.067
35.0800,2.083
35.1200,2.062
35.1600,2.001
35.2000,2.077
35.2400,2.012
35.2800,2.045
35.3200,2.078
35.3600,2.052
35.4000,2.111
35.4400,2.092
35.4800,2.190
35.5200,2.245
35.5600,2.089
35.6000,2.031
35.6400,2.003
35.6800,2.010
35.7200,2.056
35.7600,2.026
35.8000,1.974
35.8400,2.069
35.8800,2.045
35.9200,2.013
35.9600,2.005
36.0000,2.095
36.0400,1.978
36.0800,2.114
36.1200,1.945
36.1600,1.977
36.2000,2.052
36.2400,2.032
36.2800,2.042
36.3200,2.070
36.3600,2.005
36.4000,1.967
36.4400,2.015
36.4800,2.029
36.5200,1.973
36.5600,1.938
36.6000,2.005
36.6400,2.038
36.6800,2.017
36.7200,2.011
36.7600,2.074
36.8000,2.056
36.8400,1.972
36.8800,2.022
36.9200,2.051
36.9600,2.033
37.0000,2.131
37.0400,2.122
37.0800,2.033
37.1200,2.073
37.1600,2.052
37.2000,2.095
37.2400,2.153
37.2800,2.183
37.3200,2.149
37.3600,2.123
37.4000,2.145
37.4400,2.178
37.4800,2.235
37.5200,2.316
37.5600,2.360
37.6000,2.363
37.6400,2.547
37.6800,2.536
37.7200,2.497
37.7600,2.698
37.8000,2.944
37.8400,2.917
37.8800,3.260
37.9200,3.251
37.9600,3.395
38.0000,3.477
38.0400,3.686
38.0800,3.936
38.1200,3.729
38.1600,3.519
38.2000,3.570
38.2400,3.393
38.2800,3.228
38.3200,3.018
38.3600,2.854
38.4000,2.856
38.4400,2.612
38.4800,2.525
38.5200,2.525
38.5600,2.341
38.6000,2.290
38.6400,2.220
38.6800,2.099
38.7200,2.133
38.7600,2.072
38.8000,2.006
38.8400,2.044
38.8800,1.988
38.9200,1.916
38.9600,1.946
39.0000,1.930
39.0400,1.938
39.0800,1.917
39.1200,1.842
39.1600,1.879
39.2000,1.790
39.2400,1.732
39.2800,1.756
39.3200,1.687
39.3600,1.606
39.4000,1.690
39.4400,1.677
39.4800,1.671
39.5200,1.682
39.5600,1.637
39.6000,1.592
39.6400,1.592
39.6800,1.623
39.7200,1.666
39.7600,1.586
39.8000,1.505
39.8400,1.603
39.8800,1.540
39.9200,1.580
39.9600,1.564
40.0000,1.580
40.0400,1.576
40.0800,1.619
40.1200,1.543
40.1600,1.627
40.2000,1.530
40.2400,1.461
40.2800,1.533
40.3200,1.420
40.3600,1.431
40.4000,1.494
40.4400,1.467
40.4800,1.455
40.5200,1.482
40.5600,1.486
40.6000,1.458
40.6400,1.542
40.6800,1.767
40.7200,1.853
40.7600,1.633
40.8000,1.630
40.8400,1.603
40.8800,1.480
40.9200,1.466
40.9600,1.491
41.0000,1.414
41.0400,1.476
41.0800,1.409
41.1200,1.484
41.1600,1.396
41.2000,1.432
41.2400,1.428
41.2800,1.400
41.3200,1.411
41.3600,1.381
41.4000,1.409
41.4400,1.332
41.4800,1.394
41.5200,1.339
41.5600,1.373
41.6000,1.354
41.6400,1.356
41.6800,1.355
41.7200,1.395
41.7600,1.374
41.8000,1.351
41.8400,1.386
41.8800,1.343
41.9200,1.386
41.9600,1.346
42.0000,1.297
42.0400,1.392
42.0800,1.357
42.1200,1.380
42.1600,1.368
42.2000,1.361
42.2400,1.438
42.2800,1.388
42.3200,1.347
42.3600,1.364
42.4000,1.353
42.4400,1.340
42.4800,1.350
42.5200,1.318
42.5600,1.325
42.6000,1.313
42.6400,1.294
42.6800,1.346
42.7200,1.344
42.7600,1.349
42.8000,1.334
42.8400,1.344
42.8800,1.351
42.9200,1.313
42.9600,1.354
43.0000,1.326
43.0400,1.323
43.0800,1.316
43.1200,1.351
43.1600,1.289
43.2000,1.378
43.2400,1.439
43.2800,1.390
43.3200,1.371
43.3600,1.382
43.4000,1.434
43.4400,1.358
43.4800,1.420
43.5200,1.412
43.5600,1.454
43.6000,1.496
43.6400,1.446
43.6800,1.465
43.7200,1.422
43.7600,1.484
43.8000,1.459
43.8400,1.498
43.8800,1.524
43.9200,1.506
43.9600,1.592
44.0000,1.485
44.0400,1.577
44.0800,1.575
44.1200,1.629
44.1600,1.601
44.2000,1.642
44.2400,1.625
44.2800,1.622
44.3200,1.610
44.3600,1.625
44.4000,1.575
44.4400,1.627
44.4800,1.514
44.5200,1.506
44.5600,1.492
44.6000,1.480
44.6400,1.434
44.6800,1.384
44.7200,1.421
44.7600,1.343
44.8000,1.406
44.8400,1.360
44.8800,1.308
44.9200,1.409
44.9600,1.248
45.0000,1.220
45.0400,1.215
45.0800,1.234
45.1200,1.279
45.1600,1.223
45.2000,1.272
45.2400,1.209
45.2800,1.206
45.3200,1.226
45.3600,1.224
45.4000,1.159
45.4400,1.231
45.4800,1.134
45.5200,1.160
45.5600,1.137
45.6000,1.174
45.6400,1.153
45.6800,1.207
45.7200,1.123
45.7600,1.158
45.8000,1.146
45.8400,1.182
45.8800,1.165
45.9200,1.103
45.9600,1.132
46.0000,1.114
46.0400,1.046
46.0800,1.053
46.1200,1.066
46.1600,1.109
46.2000,1.056
46.2400,1.031
46.2800,1.079
46.3200,1.035
46.3600,1.154
46.4000,1.083
46.4400,1.073
46.4800,1.068
46.5200,1.027
46.5600,1.017
46.6000,1.094
46.6400,1.058
46.6800,1.042
46.7200,1.000
46.7600,1.034
46.8000,1.018
46.8400,1.028
46.8800,1.041
46.9200,1.039
46.9600,1.016
47.0000,1.033
47.0400,1.016
47.0800,1.001
47.1200,1.015
47.1600,0.953
47.2000,0.995
47.2400,1.017
47.2800,0.973
47.3200,0.996
47.3600,0.993
47.4000,0.986
47.4400,0.978
47.4800,0.982
47.5200,0.979
47.5600,1.013
47.6000,0.973
47.6400,0.951
47.6800,0.998
47.7200,0.994
47.7600,1.019
47.8000,1.013
47.8400,0.998
47.8800,0.972
47.9200,0.980
47.9600,1.029
48.0000,0.998
48.0400,0.990
48.0800,0.985
48.1200,0.999
48.1600,0.940
48.2000,0.876
48.2400,0.956
48.2800,0.976
48.3200,0.973
48.3600,0.928
48.4000,0.946
48.4400,0.883
48.4800,0.882
48.5200,0.885
48.5600,0.982
48.6000,0.952
48.6400,1.000
48.6800,0.891
48.7200,0.966
48.7600,0.963
48.8000,0.920
48.8400,0.954
48.8800,0.911
48.9200,0.984
48.9600,0.872
49.0000,0.950
49.0400,0.939
49.0800,0.909
49.1200,0.950
49.1600,0.895
49.2000,0.907
49.2400,0.931
49.2800,0.918
49.3200,0.910
49.3600,0.943
49.4000,0.935
49.4400,0.956
49.4800,0.910
49.5200,0.897
49.5600,0.909
49.6000,0.905
49.6400,0.846
49.6800,0.889
49.7200,0.863
49.7600,0.915
49.8000,0.930
49.8400,0.925
49.8800,0.993
49.9200,0.892
49.9600,0.918
50.0000,0.900
50.0400,0.901
50.0800,0.882
50.1200,0.930
50.1600,0.873
50.2000,0.866
50.2400,0.859
50.2800,0.891
50.3200,0.932
50.3600,0.904
50.4000,0.866
50.4400,0.865
50.4800,0.848
50.5200,0.864
50.5600,0.885
50.6000,0.848
50.6400,0.847
50.6800,0.860
50.7200,0.856
50.7600,0.851
50.8000,0.837
50.8400,0.858
50.8800,0.847
50.9200,0.900
50.9600,0.896
51.0000,0.900
51.0400,0.898
51.0800,0.918
51.1200,0.845
51.1600,0.855
51.2000,0.830
51.2400,0.822
51.2800,0.870
51.3200,0.857
51.3600,0.846
51.4000,0.883
51.4400,0.816
51.4800,0.837
51.5200,0.825
51.5600,0.851
51.6000,0.850
51.6400,0.818
51.6800,0.839
51.7200,0.849
51.7600,0.836
51.8000,0.827
51.8400,0.844
51.8800,0.825
51.9200,0.891
51.9600,0.828
52.0000,0.848
52.0400,0.791
52.0800,0.876
52.1200,0.818
52.1600,0.832
52.2000,0.857
52.2400,0.806
52.2800,0.813
52.3200,0.842
52.3600,0.826
52.4000,0.817
52.4400,0.842
52.4800,0.845
52.5200,0.843
52.5600,0.812
52.6000,0.809
52.6400,0.854
52.6800,0.870
52.7200,0.822
52.7600,0.838
52.8000,0.788
52.8400,0.859
52.8800,0.856
52.9200,0.851
52.9600,0.828
53.0000,0.858
53.0400,0.804
53.0800,0.784
53.1200,0.816
53.1600,0.766
53.2000,0.777
53.2400,0.817
53.2800,0.808
53.3200,0.821
53.3600,0.834
53.4000,0.846
53.4400,0.723
53.4800,0.782
53.5200,0.813
53.5600,0.803
53.6000,0.776
53.6400,0.821
53.6800,0.791
53.7200,0.768
53.7600,0.798
53.8000,0.825
53.8400,0.826
53.8800,0.850
53.9200,0.800
53.9600,0.845
54.0000,0.805
54.0400,0.833
54.0800,0.786
54.1200,0.797
54.1600,0.793
54.2000,0.820
54.2400,0.885
54.2800,0.827
54.3200,0.774
54.3600,0.825
54.4000,0.780
54.4400,0.805
54.4800,0.784
54.5200,0.838
54.5600,0.798
54.6000,0.773
54.6400,0.757
54.6800,0.781
54.7200,0.773
54.7600,0.771
54.8000,0.829
54.8400,0.727
54.8800,0.804
54.9200,0.762
54.9600,0.766
55.0000,0.808
55.0400,0.772
55.0800,0.813
55.1200,0.824
55.1600,0.782
55.2000,0.838
55.2400,0.778
55.2800,0.782
55.3200,0.769
55.3600,0.758
55.4000,0.756
55.4400,0.771
55.4800,0.759
55.5200,0.828
55.5600,0.775
55.6000,0.818
55.6400,0.786
55.6800,0.790
55.7200,0.734
55.7600,0.800
55.8000,0.750
55.8400,0.766
55.8800,0.783
55.9200,0.782
55.9600,0.790
56.0000,0.754
56.0400,0.736
56.0800,0.752
56.1200,0.794
56.1600,0.775
56.2000,0.738
56.2400,0.772
56.2800,0.795
56.3200,0.786
56.3600,0.793
56.4000,0.742
56.4400,0.784
56.4800,0.786
56.5200,0.739
56.5600,0.786
56.6000,0.773
56.6400,0.768
56.6800,0.726
56.7200,0.767
56.7600,0.785
56.8000,0.736
56.8400,0.804
56.8800,0.766
56.9200,0.776
56.9600,0.740
57.0000,0.724
57.0400,0.703
57.0800,0.742
57.1200,0.760
57.1600,0.734
57.2000,0.771
57.2400,0.767
57.2800,0.774
57.3200,0.752
57.3600,0.767
57.4000,0.735
57.4400,0.775
57.4800,0.748
57.5200,0.728
57.5600,0.797
57.6000,0.762
57.6400,0.748
57.6800,0.746
57.7200,0.708
57.7600,0.764
57.8000,0.738
57.8400,0.700
57.8800,0.716
57.9200,0.738
57.9600,0.758
58.0000,0.767
58.0400,0.758
58.0800,0.755
58.1200,0.767
58.1600,0.739
58.2000,0.775
58.2400,0.759
58.2800,0.769
58.3200,0.745
58.3600,0.761
58.4000,0.722
58.4400,0.712
58.4800,0.721
58.5200,0.767
58.5600,0.768
58.6000,0.730
58.6400,0.744
58.6800,0.704
58.7200,0.797
58.7600,0.718
58.8000,0.755
58.8400,0.722
58.8800,0.749
58.9200,0.739
58.9600,0.748
59.0000,0.706
59.0400,0.700
59.0800,0.727
59.1200,0.731
59.1600,0.723
59.2000,0.723
59.2400,0.733
59.2800,0.725
59.3200,0.717
59.3600,0.753
59.4000,0.768
59.4400,0.709
59.4800,0.695
59.5200,0.719
59.5600,0.721
59.6000,0.764
59.6400,0.709
59.6800,0.682
59.7200,0.707
59.7600,0.713
59.8000,0.762
59.8400,0.739
59.8800,0.744
59.9200,0.711
59.9600,0.691
60.0000,0.737
60.0400,0.666
60.0800,0.683
60.1200,0.689
60.1600,0.710
60.2000,0.713
60.2400,0.736
60.2800,0.720
60.3200,0.731
60.3600,0.714
60.4000,0.692
60.4400,0.720
60.4800,0.687
60.5200,0.668
60.5600,0.691
60.6000,0.672
60.6400,0.671
60.6800,0.716
60.7200,0.704
60.7600,0.732
60.8000,0.714
60.8400,0.709
60.8800,0.740
60.9200,0.732
60.9600,0.681
61.0000,0.746
61.0400,0.676
61.0800,0.697
61.1200,0.681
61.1600,0.753
61.2000,0.698
61.2400,0.737
61.2800,0.692
61.3200,0.723
61.3600,0.716
61.4000,0.690
61.4400,0.694
61.4800,0.660
61.5200,0.677
61.5600,0.710
61.6000,0.795
61.6400,0.802
61.6800,0.728
61.7200,0.708
61.7600,0.711
61.8000,0.713
61.8400,0.647
61.8800,0.681
61.9200,0.746
61.9600,0.694
62.0000,0.666
62.0400,0.726
62.0800,0.674
62.1200,0.694
62.1600,0.691
62.2000,0.683
62.2400,0.683
62.2800,0.676
62.3200,0.690
62.3600,0.738
62.4000,0.692
62.4400,0.699
62.4800,0.705
62.5200,0.757
62.5600,0.715
62.6000,0.670
62.6400,0.727
62.6800,0.683
62.7200,0.735
62.7600,0.747
62.8000,0.689
62.8400,0.709
62.8800,0.695
62.9200,0.702
62.9600,0.698
63.0000,0.689
63.0400,0.705
63.0800,0.690
63.1200,0.697
63.1600,0.736
63.2000,0.713
63.2400,0.719
63.2800,0.720
63.3200,0.752
63.3600,0.770
63.4000,0.722
63.4400,0.721
63.4800,0.774
63.5200,0.692
63.5600,0.743
63.6000,0.761
63.6400,0.768
63.6800,0.755
63.7200,0.847
63.7600,0.755
63.8000,0.784
63.8400,0.804
63.8800,0.814
63.9200,0.796
63.9600,0.821
64.0000,0.831
64.0400,0.822
64.0800,0.849
64.1200,0.854
64.1600,0.855
64.2000,0.913
64.2400,0.919
64.2800,0.908
64.3200,0.977
64.3600,0.908
64.4000,0.942
64.4400,0.948
64.4800,0.973
64.5200,0.996
64.5600,1.002
64.6000,0.930
64.6400,0.945
64.6800,0.932
64.7200,0.892
64.7600,0.899
64.8000,0.894
64.8400,0.897
64.8800,0.865
64.9200,0.848
64.9600,0.837
65.0000,0.909
65.0400,0.891
65.0800,0.823
65.1200,0.825
65.1600,0.808
65.2000,0.811
65.2400,0.787
65.2800,0.816
65.3200,0.858
65.3600,0.842
65.4000,0.817
65.4400,0.857
65.4800,0.818
65.5200,0.810
65.5600,0.782
65.6000,0.789
65.6400,0.847
65.6800,0.804
65.7200,0.798
65.7600,0.833
65.8000,0.839
65.8400,0.843
65.8800,0.824
65.9200,0.849
65.9600,0.819
66.0000,0.826
66.0400,0.843
66.0800,0.907
66.1200,0.826
66.1600,0.862
66.2000,0.847
66.2400,0.875
66.2800,0.926
66.3200,0.876
66.3600,0.930
66.4000,0.918
66.4400,0.924
66.4800,0.862
66.5200,0.881
66.5600,0.960
66.6000,0.946
66.6400,0.966
66.6800,0.952
66.7200,0.965
66.7600,0.938
66.8000,0.961
66.8400,1.019
66.8800,1.023
66.9200,1.029
66.9600,1.010
67.0000,1.041
67.0400,1.095
67.0800,1.098
67.1200,1.075
67.1600,1.079
67.2000,1.082
67.2400,1.136
67.2800,1.133
67.3200,1.203
67.3600,1.202
67.4000,1.217
67.4400,1.272
67.4800,1.236
67.5200,1.263
67.5600,1.281
67.6000,1.362
67.6400,1.434
67.6800,1.363
67.7200,1.449
67.7600,1.441
67.8000,1.402
67.8400,1.528
67.8800,1.499
67.9200,1.492
67.9600,1.575
68.0000,1.648
68.0400,1.598
68.0800,1.737
68.1200,1.777
68.1600,1.839
68.2000,1.852
68.2400,1.984
68.2800,1.999
68.3200,1.998
68.3600,2.140
68.4000,2.268
68.4400,2.288
68.4800,2.481
68.5200,2.608
68.5600,2.828
68.6000,3.210
68.6400,3.573
68.6800,4.407
68.7200,5.561
68.7600,6.804
68.8000,7.089
68.8400,7.413
68.8800,8.494
68.9200,10.751
68.9600,16.484
69.0000,32.456
69.0400,137.366
69.0800,409.656
69.1200,368.227
69.1600,115.034
69.2000,43.877
69.2400,92.455
69.2800,219.478
69.3200,187.165
69.3600,59.474
69.4000,18.954
69.4400,11.166
69.4800,8.247
69.5200,6.503
69.5600,5.482
69.6000,4.774
69.6400,4.143
69.6800,3.736
69.7200,3.447
69.7600,3.177
69.8000,2.907
69.8400,2.796
69.8800,2.617
69.9200,2.439
69.9600,2.389
70.0000,2.357
70.0400,2.290
70.0800,2.083
70.1200,2.043
70.1600,2.034
70.2000,1.910
70.2400,1.897
70.2800,1.796
70.3200,1.759
70.3600,1.729
70.4000,1.608
70.4400,1.557
70.4800,1.631
70.5200,1.539
70.5600,1.516
70.6000,1.414
70.6400,1.386
70.6800,1.368
70.7200,1.398
70.7600,1.316
70.8000,1.223
70.8400,1.278
70.8800,1.247
70.9200,1.181
70.9600,1.210
71.0000,1.114
71.0400,1.097
71.0800,1.067
71.1200,1.090
71.1600,1.044
71.2000,0.996
71.2400,0.996
71.2800,1.021
71.3200,0.955
71.3600,0.921
71.4000,0.917
71.4400,0.963
71.4800,0.899
71.5200,0.927
71.5600,0.889
71.6000,0.812
71.6400,0.805
71.6800,0.783
71.7200,0.852
71.7600,0.817
71.8000,0.796
71.8400,0.819
71.8800,0.737
71.9200,0.756
71.9600,0.776
72.0000,0.758
72.0400,0.775
72.0800,0.763
72.1200,0.754
72.1600,0.716
72.2000,0.710
72.2400,0.709
72.2800,0.693
72.3200,0.686
72.3600,0.652
72.4000,0.697
72.4400,0.632
72.4800,0.623
72.5200,0.607
72.5600,0.606
72.6000,0.628
72.6400,0.613
72.6800,0.641
72.7200,0.633
72.7600,0.614
72.8000,0.590
72.8400,0.671
72.8800,0.582
72.9200,0.609
72.9600,0.607
73.0000,0.553
73.0400,0.560
73.0800,0.548
73.1200,0.567
73.1600,0.551
73.2000,0.550
73.2400,0.536
73.2800,0.538
73.3200,0.545
73.3600,0.520
73.4000,0.565
73.4400,0.519
73.4800,0.477
73.5200,0.528
73.5600,0.478
73.6000,0.540
73.6400,0.480
73.6800,0.516
73.7200,0.540
73.7600,0.522
73.8000,0.512
73.8400,0.496
73.8800,0.484
73.9200,0.499
73.9600,0.485
74.0000,0.474
74.0400,0.510
74.0800,0.536
74.1200,0.472
74.1600,0.489
74.2000,0.481
74.2400,0.505
74.2800,0.487
74.3200,0.476
74.3600,0.477
74.4000,0.478
74.4400,0.495
74.4800,0.502
74.5200,0.467
74.5600,0.447
74.6000,0.463
74.6400,0.448
74.6800,0.489
74.7200,0.455
74.7600,0.406
74.8000,0.445
74.8400,0.471
74.8800,0.439
74.9200,0.461
74.9600,0.457
75.0000,0.445
75.0400,0.432
75.0800,0.456
75.1200,0.453
75.1600,0.486
75.2000,0.437
75.2400,0.435
75.2800,0.448
75.3200,0.429
75.3600,0.447
75.4000,0.421
75.4400,0.415
75.4800,0.473
75.5200,0.411
75.5600,0.433
75.6000,0.426
75.6400,0.417
75.6800,0.455
75.7200,0.461
75.7600,0.399
75.8000,0.405
75.8400,0.401
75.8800,0.448
75.9200,0.427
75.9600,0.437
76.0000,0.414
76.0400,0.438
76.0800,0.416
76.1200,0.433
76.1600,0.424
76.2000,0.463
76.2400,0.429
76.2800,0.413
76.3200,0.437
76.3600,0.418
76.4000,0.474
76.4400,0.452
76.4800,0.440
76.5200,0.451
76.5600,0.510
76.6000,0.443
76.6400,0.494
76.6800,0.485
76.7200,0.499
76.7600,0.464
76.8000,0.475
76.8400,0.500
76.8800,0.494
76.9200,0.489
76.9600,0.484
77.0000,0.528
77.0400,0.527
77.0800,0.505
77.1200,0.542
77.1600,0.602
77.2000,0.572
77.2400,0.581
77.2800,0.559
77.3200,0.584
77.3600,0.598
77.4000,0.560
77.4400,0.615
77.4800,0.653
77.5200,0.566
77.5600,0.605
77.6000,0.575
77.6400,0.563
77.6800,0.540
77.7200,0.574
77.7600,0.553
77.8000,0.487
77.8400,0.477
77.8800,0.487
77.9200,0.476
77.9600,0.448
78.0000,0.460
78.0400,0.471
78.0800,0.455
78.1200,0.440
78.1600,0.427
78.2000,0.405
78.2400,0.419
78.2800,0.436
78.3200,0.424
78.3600,0.433
78.4000,0.393
78.4400,0.420
78.4800,0.401
78.5200,0.383
78.5600,0.413
78.6000,0.398
78.6400,0.389
78.6800,0.397
78.7200,0.393
78.7600,0.406
78.8000,0.390
78.8400,0.367
78.8800,0.344
78.9200,0.393
78.9600,0.381
79.0000,0.410
79.0400,0.376
79.0800,0.336
79.1200,0.365
79.1600,0.368
79.2000,0.365
79.2400,0.374
79.2800,0.337
79.3200,0.366
79.3600,0.357
79.4000,0.333
79.4400,0.327
79.4800,0.332
79.5200,0.324
79.5600,0.301
79.6000,0.313
79.6400,0.328
79.6800,0.338
79.7200,0.328
79.7600,0.330
79.8000,0.368
79.8400,0.328
79.8800,0.375
79.9200,0.318
79.9600,0.330
80.0000,0.315
