theta,intensity
5.0000,4.008
5.0400,3.978
5.0800,3.964
5.1200,3.854
5.1600,3.976
5.2000,3.993
5.2400,3.835
5.2800,3.914
5.3200,3.855
5.3600,3.874
5.4000,3.876
5.4400,3.850
5.4800,3.911
5.5200,3.802
5.5600,3.905
5.6000,3.860
5.6400,3.949
5.6800,3.900
5.7200,3.842
5.7600,3.845
5.8000,3.873
5.8400,3.813
5.8800,3.784
5.9200,3.896
5.9600,3.930
6.0000,3.810
6.0400,3.794
6.0800,3.808
6.1200,3.890
6.1600,3.811
6.2000,3.708
6.2400,3.777
6.2800,3.793
6.3200,3.732
6.3600,3.743
6.4000,3.769
6.4400,3.705
6.4800,3.648
6.5200,3.655
6.5600,3.704
6.6000,3.733
6.6400,3.603
6.6800,3.706
6.7200,3.704
6.7600,3.608
6.8000,3.767
6.8400,3.636
6.8800,3.671
6.9200,3.652
6.9600,3.591
7.0000,3.616
7.0400,3.734
7.0800,3.614
7.1200,3.706
7.1600,3.698
7.2000,3.654
7.2400,3.683
7.2800,3.725
7.3200,3.705
7.3600,3.708
7.4000,3.732
7.4400,3.696
7.4800,3.717
7.5200,3.654
7.5600,3.562
7.6000,3.671
7.6400,3.718
7.6800,3.783
7.7200,3.593
7.7600,3.676
7.8000,3.529
7.8400,3.564
7.8800,3.697
7.9200,3.638
7.9600,3.600
8.0000,3.591
8.0400,3.556
8.0800,3.553
8.1200,3.549
8.1600,3.569
8.2000,3.574
8.2400,3.528
8.2800,3.560
8.3200,3.559
8.3600,3.567
8.4000,3.523
8.4400,3.493
8.4800,3.522
8.5200,3.543
8.5600,3.514
8.6000,3.492
8.6400,3.544
8.6800,3.531
8.7200,3.583
8.7600,3.489
8.8000,3.538
8.8400,3.497
8.8800,3.469
8.9200,3.507
8.9600,3.367
9.0000,3.501
9.0400,3.489
9.0800,3.441
9.1200,3.330
9.1600,3.507
9.2000,3.524
9.2400,3.514
9.2800,3.382
9.3200,3.495
9.3600,3.489
9.4000,3.451
9.4400,3.391
9.4800,3.407
9.5200,3.540
9.5600,3.434
9.6000,3.428
9.6400,3.339
9.6800,3.467
9.7200,3.499
9.7600,3.467
9.8000,3.458
9.8400,3.330
9.8800,3.412
9.9200,3.435
9.9600,3.446
10.0000,3.355
10.0400,3.382
10.0800,3.422
10.1200,3.406
10.1600,3.432
10.2000,3.453
10.2400,3.460
10.2800,3.362
10.3200,3.396
10.3600,3.241
10.4000,3.414
10.4400,3.270
10.4800,3.356
10.5200,3.399
10.5600,3.402
10.6000,3.319
10.6400,3.337
10.6800,3.416
10.7200,3.353
10.7600,3.347
10.8000,3.358
10.8400,3.276
10.8800,3.408
10.9200,3.298
10.9600,3.279
11.0000,3.357
11.0400,3.358
11.0800,3.320
11.1200,3.287
11.1600,3.270
11.2000,3.361
11.2400,3.311
11.2800,3.316
11.3200,3.342
11.3600,3.181
11.4000,3.365
11.4400,3.315
11.4800,3.247
11.5200,3.299
11.5600,3.218
11.6000,3.212
11.6400,3.194
11.6800,3.235
11.7200,3.197
11.7600,3.213
11.8000,3.205
11.8400,3.397
11.8800,3.332
11.9200,3.300
11.9600,3.255
12.0000,3.279
12.0400,3.180
12.0800,3.254
12.1200,3.252
12.1600,3.147
12.2000,3.114
12.2400,3.126
12.2800,3.224
12.3200,3.268
12.3600,3.190
12.4000,3.249
12.4400,3.201
12.4800,3.235
12.5200,3.182
12.5600,3.173
12.6000,3.108
12.6400,3.127
12.6800,3.153
12.7200,3.233
12.7600,3.162
12.8000,3.140
12.8400,3.099
12.8800,3.180
12.9200,3.116
12.9600,3.199
13.0000,3.088
13.0400,3.149
13.0800,3.061
13.1200,3.030
13.1600,3.037
13.2000,3.078
13.2400,3.164
13.2800,3.167
13.3200,3.151
13.3600,3.049
13.4000,3.165
13.4400,3.068
13.4800,3.190
13.5200,3.069
13.5600,3.154
13.6000,3.055
13.6400,3.102
13.6800,3.035
13.7200,3.132
13.7600,3.105
13.8000,3.125
13.8400,3.001
13.8800,3.067
13.9200,3.016
13.9600,3.050
14.0000,3.061
14.0400,3.034
14.0800,3.025
14.1200,3.072
14.1600,3.085
14.2000,3.102
14.2400,3.021
14.2800,3.054
14.3200,3.145
14.3600,3.029
14.4000,3.037
14.4400,3.111
14.4800,3.059
14.5200,3.155
14.5600,3.022
14.6000,2.968
14.6400,3.001
14.6800,3.101
14.7200,2.999
14.7600,3.066
14.8000,2.979
14.8400,2.979
14.8800,2.953
14.9200,2.854
14.9600,2.950
15.0000,3.004
15.0400,2.978
15.0800,2.985
15.1200,3.008
15.1600,2.887
15.2000,2.918
15.2400,2.954
15.2800,2.972
15.3200,2.911
15.3600,2.991
15.4000,2.931
15.4400,2.995
15.4800,2.991
15.5200,2.853
15.5600,2.921
15.6000,2.841
15.6400,2.913
15.6800,2.965
15.7200,2.929
15.7600,2.922
15.8000,2.871
15.8400,2.798
15.8800,2.884
15.9200,2.872
15.9600,2.885
16.0000,2.835
16.0400,2.798
16.0800,2.880
16.1200,2.957
16.1600,2.895
16.2000,2.850
16.2400,2.819
16.2800,2.843
16.3200,2.863
16.3600,2.871
16.4000,2.927
16.4400,2.810
16.4800,2.853
16.5200,2.820
16.5600,2.804
16.6000,2.851
16.6400,2.824
16.6800,2.836
16.7200,2.807
16.7600,2.815
16.8000,2.893
16.8400,2.806
16.8800,2.730
16.9200,2.819
16.9600,2.800
17.0000,2.724
17.0400,2.861
17.0800,2.788
17.1200,2.800
17.1600,2.841
17.2000,2.867
17.2400,2.723
17.2800,2.711
17.3200,2.725
17.3600,2.749
17.4000,2.864
17.4400,2.801
17.4800,2.747
17.5200,2.792
17.5600,2.744
17.6000,2.768
17.6400,2.739
17.6800,2.854
17.7200,2.721
17.7600,2.783
17.8000,2.639
17.8400,2.687
17.8800,2.774
17.9200,2.733
17.9600,2.696
18.0000,2.679
18.0400,2.640
18.0800,2.696
18.1200,2.712
18.1600,2.674
18.2000,2.683
18.2400,2.762
18.2800,2.706
18.3200,2.661
18.3600,2.664
18.4000,2.698
18.4400,2.648
18.4800,2.705
18.5200,2.666
18.5600,2.623
18.6000,2.670
18.6400,2.690
18.6800,2.697
18.7200,2.701
18.7600,2.630
18.8000,2.676
18.8400,2.746
18.8800,2.606
18.9200,2.619
18.9600,2.660
19.0000,2.630
19.0400,2.636
19.0800,2.578
19.1200,2.653
19.1600,2.698
19.2000,2.615
19.2400,2.712
19.2800,2.628
19.3200,2.556
19.3600,2.677
19.4000,2.649
19.4400,2.630
19.4800,2.594
19.5200,2.629
19.5600,2.688
19.6000,2.615
19.6400,2.588
19.6800,2.659
19.7200,2.580
19.7600,2.651
19.8000,2.494
19.8400,2.551
19.8800,2.623
19.9200,2.525
19.9600,2.545
20.0000,2.567
20.0400,2.476
20.0800,2.597
20.1200,2.594
20.1600,2.567
20.2000,2.496
20.2400,2.582
20.2800,2.565
20.3200,2.524
20.3600,2.533
20.4000,2.509
20.4400,2.549
20.4800,2.417
20.5200,2.414
20.5600,2.473
20.6000,2.537
20.6400,2.487
20.6800,2.486
20.7200,2.369
20.7600,2.481
20.8000,2.348
20.8400,2.439
20.8800,2.488
20.9200,2.448
20.9600,2.471
21.0000,2.390
21.0400,2.408
21.0800,2.440
21.1200,2.439
21.1600,2.419
21.2000,2.405
21.2400,2.406
21.2800,2.478
21.3200,2.415
21.3600,2.455
21.4000,2.470
21.4400,2.405
21.4800,2.451
21.5200,2.434
21.5600,2.435
21.6000,2.363
21.6400,2.419
21.6800,2.360
21.7200,2.374
21.7600,2.306
21.8000,2.402
21.8400,2.300
21.8800,2.394
21.9200,2.399
21.9600,2.340
22.0000,2.373
22.0400,2.368
22.0800,2.371
22.1200,2.390
22.1600,2.359
22.2000,2.423
22.2400,2.390
22.2800,2.350
22.3200,2.404
22.3600,2.396
22.4000,2.405
22.4400,2.424
22.4800,2.358
22.5200,2.255
22.5600,2.270
22.6000,2.388
22.6400,2.357
22.6800,2.307
22.7200,2.379
22.7600,2.282
22.8000,2.270
22.8400,2.356
22.8800,2.276
22.9200,2.273
22.9600,2.271
23.0000,2.296
23.0400,2.253
23.0800,2.215
23.1200,2.288
23.1600,2.200
23.2000,2.253
23.2400,2.265
23.2800,2.236
23.3200,2.219
23.3600,2.264
23.4000,2.214
23.4400,2.278
23.4800,2.146
23.5200,2.235
23.5600,2.264
23.6000,2.232
23.6400,2.198
23.6800,2.236
23.7200,2.245
23.7600,2.237
23.8000,2.207
23.8400,2.164
23.8800,2.154
23.9200,2.167
23.9600,2.203
24.0000,2.206
24.0400,2.183
24.0800,2.234
24.1200,2.247
24.1600,2.233
24.2000,2.240
24.2400,2.245
24.2800,2.106
24.3200,2.184
24.3600,2.198
24.4000,2.167
24.4400,2.135
24.4800,2.157
24.5200,2.185
24.5600,2.159
24.6000,2.159
24.6400,2.160
24.6800,2.133
24.7200,2.187
24.7600,2.109
24.8000,2.144
24.8400,2.085
24.8800,2.158
24.9200,2.142
24.9600,2.178
25.0000,2.182
25.0400,2.108
25.0800,2.113
25.1200,2.082
25.1600,2.154
25.2000,2.120
25.2400,2.089
25.2800,2.108
25.3200,2.032
25.3600,2.089
25.4000,2.039
25.4400,2.168
25.4800,2.043
25.5200,2.066
25.5600,2.039
25.6000,2.166
25.6400,2.109
25.6800,2.016
25.7200,2.106
25.7600,2.016
25.8000,1.995
25.8400,2.080
25.8800,1.977
25.9200,2.032
25.9600,2.117
26.0000,2.038
26.0400,2.060
26.0800,1.961
26.1200,2.047
26.1600,2.022
26.2000,1.988
26.2400,1.938
26.2800,2.022
26.3200,1.993
26.3600,2.043
26.4000,1.983
26.4400,2.028
26.4800,2.056
26.5200,1.988
26.5600,2.034
26.6000,1.962
26.6400,2.003
26.6800,2.007
26.7200,1.898
26.7600,1.925
26.8000,1.994
26.8400,1.949
26.8800,1.994
26.9200,1.954
26.9600,2.011
27.0000,1.939
27.0400,1.929
27.0800,1.989
27.1200,2.071
27.1600,1.917
27.2000,1.927
27.2400,1.969
27.2800,1.938
27.3200,1.900
27.3600,1.898
27.4000,1.928
27.4400,1.865
27.4800,1.916
27.5200,1.972
27.5600,1.987
27.6000,1.877
27.6400,1.947
27.6800,1.947
27.7200,1.963
27.7600,1.946
27.8000,1.914
27.8400,1.928
27.8800,1.964
27.9200,2.006
27.9600,1.917
28.0000,1.803
28.0400,1.920
28.0800,1.871
28.1200,1.853
28.1600,1.916
28.2000,1.886
28.2400,1.824
28.2800,1.789
28.3200,1.725
28.3600,1.835
28.4000,1.771
28.4400,1.873
28.4800,1.939
28.5200,1.876
28.5600,1.785
28.6000,1.825
28.6400,1.927
28.6800,1.781
28.7200,1.851
28.7600,1.888
28.8000,1.815
28.8400,1.846
28.8800,1.792
28.9200,1.803
28.9600,1.781
29.0000,1.835
29.0400,1.745
29.0800,1.887
29.1200,1.792
29.1600,1.837
29.2000,1.788
29.2400,1.744
29.2800,1.812
29.3200,1.726
29.3600,1.713
29.4000,1.847
29.4400,1.817
29.4800,1.781
29.5200,1.719
29.5600,1.729
29.6000,1.800
29.6400,1.810
29.6800,1.719
29.7200,1.710
29.7600,1.776
29.8000,1.767
29.8400,1.746
29.8800,1.768
29.9200,1.761
29.9600,1.784
30.0000,1.782
30.0400,1.761
30.0800,1.681
30.1200,1.739
30.1600,1.781
30.2000,1.756
30.2400,1.785
30.2800,1.697
30.3200,1.746
30.3600,1.745
30.4000,1.716
30.4400,1.689
30.4800,1.755
30.5200,1.679
30.5600,1.751
30.6000,1.701
30.6400,1.684
30.6800,1.634
30.7200,1.700
30.7600,1.709
30.8000,1.700
30.8400,1.704
30.8800,1.591
30.9200,1.663
30.9600,1.682
31.0000,1.664
31.0400,1.719
31.0800,1.668
31.1200,1.624
31.1600,1.683
31.2000,1.624
31.2400,1.659
31.2800,1.646
31.3200,1.657
31.3600,1.710
31.4000,1.592
31.4400,1.660
31.4800,1.665
31.5200,1.669
31.5600,1.595
31.6000,1.640
31.6400,1.596
31.6800,1.599
31.7200,1.660
31.7600,1.622
31.8000,1.651
31.8400,1.673
31.8800,1.686
31.9200,1.545
31.9600,1.548
32.0000,1.558
32.0400,1.642
32.0800,1.603
32.1200,1.620
32.1600,1.636
32.2000,1.536
32.2400,1.585
32.2800,1.546
32.3200,1.618
32.3600,1.565
32.4000,1.554
32.4400,1.569
32.4800,1.526
32.5200,1.534
32.5600,1.604
32.6000,1.464
32.6400,1.574
32.6800,1.506
32.7200,1.506
32.7600,1.607
32.8000,1.481
32.8400,1.478
32.8800,1.513
32.9200,1.576
32.9600,1.580
33.0000,1.512
33.0400,1.550
33.0800,1.592
33.1200,1.726
33.1600,1.718
33.2000,1.539
33.2400,1.574
33.2800,1.558
33.3200,1.547
33.3600,1.530
33.4000,1.608
33.4400,1.457
33.4800,1.466
33.5200,1.518
33.5600,1.526
33.6000,1.528
33.6400,1.500
33.6800,1.507
33.7200,1.520
33.7600,1.521
33.8000,1.523
33.8400,1.546
33.8800,1.512
33.9200,1.483
33.9600,1.504
34.0000,1.435
34.0400,1.503
34.0800,1.483
34.1200,1.541
34.1600,1.498
34.2000,1.461
34.2400,1.470
34.2800,1.416
34.3200,1.422
34.3600,1.405
34.4000,1.464
34.4400,1.502
34.4800,1.403
34.5200,1.446
34.5600,1.421
34.6000,1.480
34.6400,1.429
34.6800,1.369
34.7200,1.428
34.7600,1.397
34.8000,1.424
34.8400,1.415
34.8800,1.366
34.9200,1.397
34.9600,1.391
35.0000,1.382
35.0400,1.484
35.0800,1.408
35.1200,1.398
35.1600,1.370
35.2000,1.479
35.2400,1.430
35.2800,1.453
35.3200,1.475
35.3600,1.423
35.4000,1.386
35.4400,1.363
35.4800,1.341
35.5200,1.424
35.5600,1.389
35.6000,1.386
35.6400,1.402
35.6800,1.385
35.7200,1.399
35.7600,1.339
35.8000,1.359
35.8400,1.405
35.8800,1.381
35.9200,1.340
35.9600,1.400
36.0000,1.388
36.0400,1.378
36.0800,1.378
36.1200,1.336
36.1600,1.428
36.2000,1.482
36.2400,1.403
36.2800,1.410
36.3200,1.424
36.3600,1.416
36.4000,1.337
36.4400,1.314
36.4800,1.318
36.5200,1.380
36.5600,1.375
36.6000,1.386
36.6400,1.366
36.6800,1.376
36.7200,1.345
36.7600,1.278
36.8000,1.364
36.8400,1.444
36.8800,1.346
36.9200,1.313
36.9600,1.361
37.0000,1.342
37.0400,1.378
37.0800,1.455
37.1200,1.379
37.1600,1.403
37.2000,1.365
37.2400,1.415
37.2800,1.417
37.3200,1.381
37.3600,1.467
37.4000,1.433
37.4400,1.411
37.4800,1.438
37.5200,1.449
37.5600,1.514
37.6000,1.480
37.6400,1.548
37.6800,1.538
37.7200,1.613
37.7600,1.679
37.8000,1.732
37.8400,1.754
37.8800,1.874
37.9200,2.036
37.9600,2.222
38.0000,2.443
38.0400,2.838
38.0800,3.467
38.1200,4.531
38.1600,6.751
38.2000,10.416
38.2400,13.221
38.2800,13.201
38.3200,11.844
38.3600,9.755
38.4000,6.866
38.4400,4.735
38.4800,3.508
38.5200,2.863
38.5600,2.514
38.6000,2.214
38.6400,1.998
38.6800,1.835
38.7200,1.760
38.7600,1.673
38.8000,1.600
38.8400,1.621
38.8800,1.561
38.9200,1.462
38.9600,1.417
39.0000,1.433
39.0400,1.356
39.0800,1.384
39.1200,1.367
39.1600,1.375
39.2000,1.287
39.2400,1.353
39.2800,1.332
39.3200,1.336
39.3600,1.304
39.4000,1.298
39.4400,1.267
39.4800,1.304
39.5200,1.255
39.5600,1.293
39.6000,1.270
39.6400,1.230
39.6800,1.189
39.7200,1.217
39.7600,1.229
39.8000,1.250
39.8400,1.203
39.8800,1.193
39.9200,1.156
39.9600,1.223
40.0000,1.196
40.0400,1.175
40.0800,1.192
40.1200,1.169
40.1600,1.199
40.2000,1.183
40.2400,1.156
40.2800,1.101
40.3200,1.192
40.3600,1.168
40.4000,1.168
40.4400,1.132
40.4800,1.176
40.5200,1.160
40.5600,1.190
40.6000,1.189
40.6400,1.128
40.6800,1.093
40.7200,1.152
40.7600,1.128
40.8000,1.118
40.8400,1.173
40.8800,1.081
40.9200,1.133
40.9600,1.094
41.0000,1.064
41.0400,1.107
41.0800,1.110
41.1200,1.052
41.1600,1.116
41.2000,1.079
41.2400,1.119
41.2800,1.089
41.3200,1.112
41.3600,1.095
41.4000,1.106
41.4400,1.131
41.4800,1.072
41.5200,1.101
41.5600,1.113
41.6000,1.087
41.6400,1.031
41.6800,1.144
41.7200,1.089
41.7600,1.115
41.8000,1.074
41.8400,1.038
41.8800,1.014
41.9200,1.075
41.9600,1.051
42.0000,1.025
42.0400,1.092
42.0800,1.087
42.1200,1.063
42.1600,1.052
42.2000,1.067
42.2400,1.114
42.2800,1.056
42.3200,1.080
42.3600,1.154
42.4000,1.082
42.4400,1.125
42.4800,1.073
42.5200,1.045
42.5600,1.060
42.6000,1.055
42.6400,1.063
42.6800,1.076
42.7200,1.070
42.7600,1.021
42.8000,1.122
42.8400,1.050
42.8800,1.077
42.9200,1.089
42.9600,1.092
43.0000,1.052
43.0400,1.070
43.0800,1.111
43.1200,1.077
43.1600,1.091
43.2000,1.139
43.2400,1.211
43.2800,1.266
43.3200,1.340
43.3600,1.492
43.4000,1.585
43.4400,1.471
43.4800,1.510
43.5200,1.404
43.5600,1.398
43.6000,1.270
43.6400,1.230
43.6800,1.217
43.7200,1.171
43.7600,1.197
43.8000,1.253
43.8400,1.229
43.8800,1.270
43.9200,1.203
43.9600,1.333
44.0000,1.342
44.0400,1.334
44.0800,1.418
44.1200,1.472
44.1600,1.657
44.2000,1.717
44.2400,1.954
44.2800,2.170
44.3200,2.607
44.3600,3.190
44.4000,3.747
44.4400,4.253
44.4800,4.199
44.5200,4.077
44.5600,3.694
44.6000,3.286
44.6400,2.747
44.6800,2.278
44.7200,2.001
44.7600,1.796
44.8000,1.563
44.8400,1.399
44.8800,1.402
44.9200,1.211
44.9600,1.256
45.0000,1.215
45.0400,1.126
45.0800,1.144
45.1200,1.142
45.1600,1.055
45.2000,1.025
45.2400,1.025
45.2800,1.010
45.3200,0.987
45.3600,1.018
45.4000,0.953
45.4400,1.041
45.4800,1.014
45.5200,0.980
45.5600,0.958
45.6000,0.988
45.6400,0.925
45.6800,0.910
45.7200,0.960
45.7600,0.963
45.8000,0.961
45.8400,0.921
45.8800,0.953
45.9200,0.918
45.9600,0.981
46.0000,0.921
46.0400,0.881
46.0800,0.910
46.1200,0.897
46.1600,0.845
46.2000,0.903
46.2400,0.864
46.2800,0.906
46.3200,0.883
46.3600,0.875
46.4000,0.870
46.4400,0.842
46.4800,0.853
46.5200,0.827
46.5600,0.824
46.6000,0.856
46.6400,0.887
46.6800,0.880
46.7200,0.795
46.7600,0.852
46.8000,0.864
46.8400,0.873
46.8800,0.887
46.9200,0.851
46.9600,0.852
47.0000,0.809
47.0400,0.844
47.0800,0.868
47.1200,0.829
47.1600,0.896
47.2000,0.846
47.2400,0.866
47.2800,0.834
47.3200,0.823
47.3600,0.835
47.4000,0.830
47.4400,0.829
47.4800,0.850
47.5200,0.854
47.5600,0.824
47.6000,0.816
47.6400,0.848
47.6800,0.840
47.7200,0.787
47.7600,0.802
47.8000,0.839
47.8400,0.828
47.8800,0.769
47.9200,0.760
47.9600,0.828
48.0000,0.818
48.0400,0.784
48.0800,0.801
48.1200,0.776
48.1600,0.833
48.2000,0.814
48.2400,0.767
48.2800,0.771
48.3200,0.809
48.3600,0.790
48.4000,0.750
48.4400,0.805
48.4800,0.781
48.5200,0.793
48.5600,0.798
48.6000,0.734
48.6400,0.804
48.6800,0.801
48.7200,0.784
48.7600,0.755
48.8000,0.763
48.8400,0.792
48.8800,0.816
48.9200,0.769
48.9600,0.760
49.0000,0.797
49.0400,0.812
49.0800,0.788
49.1200,0.791
49.1600,0.797
49.2000,0.789
49.2400,0.712
49.2800,0.728
49.3200,0.762
49.3600,0.702
49.4000,0.776
49.4400,0.769
49.4800,0.777
49.5200,0.801
49.5600,0.799
49.6000,0.826
49.6400,0.755
49.6800,0.776
49.7200,0.727
49.7600,0.757
49.8000,0.756
49.8400,0.774
49.8800,0.812
49.9200,0.775
49.9600,0.796
50.0000,0.752
50.0400,0.747
50.0800,0.796
50.1200,0.748
50.1600,0.749
50.2000,0.775
50.2400,0.745
50.2800,0.804
50.3200,0.757
50.3600,0.783
50.4000,0.768
50.4400,0.840
50.4800,0.811
50.5200,0.885
50.5600,0.930
50.6000,0.907
50.6400,0.823
50.6800,0.851
50.7200,0.817
50.7600,0.771
50.8000,0.766
50.8400,0.758
50.8800,0.826
50.9200,0.769
50.9600,0.712
51.0000,0.759
51.0400,0.758
51.0800,0.754
51.1200,0.745
51.1600,0.684
51.2000,0.720
51.2400,0.694
51.2800,0.747
51.3200,0.669
51.3600,0.708
51.4000,0.689
51.4400,0.737
51.4800,0.696
51.5200,0.701
51.5600,0.671
51.6000,0.692
51.6400,0.701
51.6800,0.706
51.7200,0.710
51.7600,0.704
51.8000,0.744
51.8400,0.747
51.8800,0.703
51.9200,0.697
51.9600,0.676
52.0000,0.707
52.0400,0.668
52.0800,0.685
52.1200,0.645
52.1600,0.699
52.2000,0.695
52.2400,0.658
52.2800,0.677
52.3200,0.654
52.3600,0.684
52.4000,0.654
52.4400,0.653
52.4800,0.690
52.5200,0.667
52.5600,0.696
52.6000,0.651
52.6400,0.718
52.6800,0.659
52.7200,0.674
52.7600,0.672
52.8000,0.695
52.8400,0.658
52.8800,0.657
52.9200,0.702
52.9600,0.669
53.0000,0.628
53.0400,0.670
53.0800,0.687
53.1200,0.665
53.1600,0.642
53.2000,0.651
53.2400,0.630
53.2800,0.663
53.3200,0.663
53.3600,0.659
53.4000,0.683
53.4400,0.650
53.4800,0.647
53.5200,0.684
53.5600,0.701
53.6000,0.662
53.6400,0.633
53.6800,0.669
53.7200,0.650
53.7600,0.666
53.8000,0.687
53.8400,0.683
53.8800,0.653
53.9200,0.662
53.9600,0.676
54.0000,0.636
54.0400,0.656
54.0800,0.631
54.1200,0.633
54.1600,0.600
54.2000,0.654
54.2400,0.658
54.2800,0.666
54.3200,0.654
54.3600,0.625
54.4000,0.635
54.4400,0.611
54.4800,0.704
54.5200,0.631
54.5600,0.603
54.6000,0.642
54.6400,0.648
54.6800,0.612
54.7200,0.622
54.7600,0.611
54.8000,0.668
54.8400,0.598
54.8800,0.592
54.9200,0.609
54.9600,0.642
55.0000,0.604
55.0400,0.615
55.0800,0.597
55.1200,0.624
55.1600,0.670
55.2000,0.586
55.2400,0.607
55.2800,0.547
55.3200,0.614
55.3600,0.645
55.4000,0.595
55.4400,0.628
55.4800,0.618
55.5200,0.553
55.5600,0.647
55.6000,0.579
55.6400,0.591
55.6800,0.600
55.7200,0.585
55.7600,0.621
55.8000,0.602
55.8400,0.609
55.8800,0.634
55.9200,0.590
55.9600,0.595
56.0000,0.629
56.0400,0.596
56.0800,0.672
56.1200,0.609
56.1600,0.606
56.2000,0.623
56.2400,0.570
56.2800,0.585
56.3200,0.580
56.3600,0.595
56.4000,0.599
56.4400,0.632
56.4800,0.572
56.5200,0.607
56.5600,0.637
56.6000,0.603
56.6400,0.596
56.6800,0.605
56.7200,0.624
56.7600,0.602
56.8000,0.580
56.8400,0.591
56.8800,0.602
56.9200,0.582
56.9600,0.573
57.0000,0.570
57.0400,0.575
57.0800,0.567
57.1200,0.608
57.1600,0.561
57.2000,0.571
57.2400,0.597
57.2800,0.594
57.3200,0.566
57.3600,0.561
57.4000,0.582
57.4400,0.565
57.4800,0.564
57.5200,0.619
57.5600,0.549
57.6000,0.579
57.6400,0.570
57.6800,0.551
57.7200,0.561
57.7600,0.575
57.8000,0.570
57.8400,0.602
57.8800,0.550
57.9200,0.579
57.9600,0.566
58.0000,0.602
58.0400,0.587
58.0800,0.614
58.1200,0.601
58.1600,0.545
58.2000,0.596
58.2400,0.545
58.2800,0.569
58.3200,0.547
58.3600,0.583
58.4000,0.536
58.4400,0.587
58.4800,0.555
58.5200,0.564
58.5600,0.571
58.6000,0.584
58.6400,0.547
58.6800,0.543
58.7200,0.568
58.7600,0.575
58.8000,0.576
58.8400,0.560
58.8800,0.568
58.9200,0.575
58.9600,0.571
59.0000,0.567
59.0400,0.584
59.0800,0.550
59.1200,0.579
59.1600,0.539
59.2000,0.551
59.2400,0.568
59.2800,0.568
59.3200,0.588
59.3600,0.536
59.4000,0.540
59.4400,0.537
59.4800,0.553
59.5200,0.536
59.5600,0.559
59.6000,0.577
59.6400,0.560
59.6800,0.544
59.7200,0.548
59.7600,0.584
59.8000,0.546
59.8400,0.536
59.8800,0.585
59.9200,0.525
59.9600,0.551
60.0000,0.536
60.0400,0.527
60.0800,0.578
60.1200,0.545
60.1600,0.572
60.2000,0.514
60.2400,0.560
60.2800,0.516
60.3200,0.573
60.3600,0.531
60.4000,0.516
60.4400,0.520
60.4800,0.539
60.5200,0.531
60.5600,0.561
60.6000,0.561
60.6400,0.531
60.6800,0.530
60.7200,0.528
60.7600,0.528
60.8000,0.534
60.8400,0.501
60.8800,0.506
60.9200,0.543
60.9600,0.547
61.0000,0.533
61.0400,0.515
61.0800,0.564
61.1200,0.493
61.1600,0.497
61.2000,0.513
61.2400,0.522
61.2800,0.536
61.3200,0.498
61.3600,0.519
61.4000,0.497
61.4400,0.476
61.4800,0.477
61.5200,0.526
61.5600,0.520
61.6000,0.493
61.6400,0.526
61.6800,0.517
61.7200,0.572
61.7600,0.625
61.8000,0.590
61.8400,0.540
61.8800,0.531
61.9200,0.542
61.9600,0.474
62.0000,0.531
62.0400,0.554
62.0800,0.528
62.1200,0.512
62.1600,0.492
62.2000,0.523
62.2400,0.509
62.2800,0.503
62.3200,0.568
62.3600,0.528
62.4000,0.472
62.4400,0.512
62.4800,0.486
62.5200,0.531
62.5600,0.475
62.6000,0.498
62.6400,0.541
62.6800,0.520
62.7200,0.502
62.7600,0.508
62.8000,0.523
62.8400,0.546
62.8800,0.524
62.9200,0.491
62.9600,0.494
63.0000,0.505
63.0400,0.519
63.0800,0.524
63.1200,0.534
63.1600,0.538
63.2000,0.510
63.2400,0.531
63.2800,0.477
63.3200,0.551
63.3600,0.518
63.4000,0.526
63.4400,0.521
63.4800,0.554
63.5200,0.579
63.5600,0.539
63.6000,0.589
63.6400,0.562
63.6800,0.574
63.7200,0.563
63.7600,0.566
63.8000,0.539
63.8400,0.569
63.8800,0.628
63.9200,0.630
63.9600,0.611
64.0000,0.598
64.0400,0.614
64.0800,0.680
64.1200,0.653
64.1600,0.665
64.2000,0.701
64.2400,0.724
64.2800,0.823
64.3200,0.856
64.3600,0.853
64.4000,0.960
64.4400,1.069
64.4800,1.291
64.5200,1.721
64.5600,2.249
64.6000,2.559
64.6400,2.518
64.6800,2.183
64.7200,1.883
64.7600,1.892
64.8000,1.825
64.8400,1.502
64.8800,1.255
64.9200,1.045
64.9600,0.919
65.0000,0.861
65.0400,0.780
65.0800,0.749
65.1200,0.722
65.1600,0.712
65.2000,0.707
65.2400,0.676
65.2800,0.687
65.3200,0.684
65.3600,0.654
65.4000,0.605
65.4400,0.623
65.4800,0.659
65.5200,0.640
65.5600,0.639
65.6000,0.621
65.6400,0.630
65.6800,0.643
65.7200,0.659
65.7600,0.632
65.8000,0.623
65.8400,0.634
65.8800,0.672
65.9200,0.622
65.9600,0.644
66.0000,0.623
66.0400,0.628
66.0800,0.676
66.1200,0.636
66.1600,0.712
66.2000,0.744
66.2400,0.709
66.2800,0.690
66.3200,0.729
66.3600,0.721
66.4000,0.736
66.4400,0.719
66.4800,0.733
66.5200,0.739
66.5600,0.721
66.6000,0.738
66.6400,0.783
66.6800,0.731
66.7200,0.783
66.7600,0.804
66.8000,0.760
66.8400,0.847
66.8800,0.799
66.9200,0.824
66.9600,0.851
67.0000,0.865
67.0400,0.838
67.0800,0.850
67.1200,0.866
67.1600,0.885
67.2000,0.939
67.2400,0.942
67.2800,0.952
67.3200,0.963
67.3600,0.942
67.4000,1.034
67.4400,0.986
67.4800,1.028
67.5200,1.039
67.5600,1.061
67.6000,1.125
67.6400,1.114
67.6800,1.114
67.7200,1.147
67.7600,1.189
67.8000,1.182
67.8400,1.202
67.8800,1.334
67.9200,1.359
67.9600,1.316
68.0000,1.355
68.0400,1.397
68.0800,1.446
68.1200,1.386
68.1600,1.440
68.2000,1.552
68.2400,1.582
68.2800,1.583
68.3200,1.697
68.3600,1.693
68.4000,1.801
68.4400,1.828
68.4800,1.945
68.5200,2.005
68.5600,2.022
68.6000,2.217
68.6400,2.337
68.6800,2.471
68.7200,2.678
68.7600,3.053
68.8000,3.526
68.8400,4.706
68.8800,5.808
68.9200,6.240
68.9600,6.212
69.0000,6.671
69.0400,8.139
69.0800,11.964
69.1200,22.046
69.1600,72.995
69.2000,318.151
69.2400,436.625
69.2800,195.720
69.3200,50.883
69.3600,58.825
69.4000,178.939
69.4400,223.279
69.4800,96.806
69.5200,24.547
69.5600,11.831
69.6000,8.097
69.6400,6.139
69.6800,5.086
69.7200,4.548
69.7600,4.068
69.8000,3.516
69.8400,3.242
69.8800,3.027
69.9200,2.749
69.9600,2.624
70.0000,2.522
70.0400,2.403
70.0800,2.293
70.1200,2.212
70.1600,2.102
70.2000,1.984
70.2400,1.985
70.2800,1.909
70.3200,1.849
70.3600,1.725
70.4000,1.701
70.4400,1.638
70.4800,1.669
70.5200,1.551
70.5600,1.514
70.6000,1.503
70.6400,1.449
70.6800,1.384
70.7200,1.298
70.7600,1.331
70.8000,1.306
70.8400,1.293
70.8800,1.287
70.9200,1.206
70.9600,1.224
71.0000,1.134
71.0400,1.105
71.0800,1.068
71.1200,1.114
71.1600,1.066
71.2000,1.029
71.2400,0.983
71.2800,1.047
71.3200,0.932
71.3600,0.944
71.4000,0.916
71.4400,0.909
71.4800,0.912
71.5200,0.876
71.5600,0.892
71.6000,0.784
71.6400,0.815
71.6800,0.827
71.7200,0.827
71.7600,0.714
71.8000,0.746
71.8400,0.729
71.8800,0.721
71.9200,0.708
71.9600,0.715
72.0000,0.688
72.0400,0.697
72.0800,0.624
72.1200,0.640
72.1600,0.655
72.2000,0.593
72.2400,0.610
72.2800,0.630
72.3200,0.570
72.3600,0.590
72.4000,0.599
72.4400,0.572
72.4800,0.578
72.5200,0.525
72.5600,0.541
72.6000,0.540
72.6400,0.506
72.6800,0.523
72.7200,0.553
72.7600,0.471
72.8000,0.541
72.8400,0.526
72.8800,0.479
72.9200,0.502
72.9600,0.500
73.0000,0.542
73.0400,0.519
73.0800,0.462
73.1200,0.481
73.1600,0.494
73.2000,0.467
73.2400,0.459
73.2800,0.493
73.3200,0.500
73.3600,0.456
73.4000,0.484
73.4400,0.462
73.4800,0.482
73.5200,0.463
73.5600,0.428
73.6000,0.432
73.6400,0.431
73.6800,0.453
73.7200,0.429
73.7600,0.458
73.8000,0.435
73.8400,0.470
73.8800,0.456
73.9200,0.412
73.9600,0.401
74.0000,0.416
74.0400,0.399
74.0800,0.483
74.1200,0.444
74.1600,0.446
74.2000,0.476
74.2400,0.465
74.2800,0.445
74.3200,0.396
74.3600,0.423
74.4000,0.453
74.4400,0.433
74.4800,0.421
74.5200,0.402
74.5600,0.396
74.6000,0.434
74.6400,0.371
74.6800,0.395
74.7200,0.359
74.7600,0.399
74.8000,0.394
74.8400,0.382
74.8800,0.404
74.9200,0.386
74.9600,0.369
75.0000,0.381
75.0400,0.398
75.0800,0.385
75.1200,0.373
75.1600,0.365
75.2000,0.365
75.2400,0.348
75.2800,0.410
75.3200,0.357
75.3600,0.396
75.4000,0.346
75.4400,0.314
75.4800,0.376
75.5200,0.350
75.5600,0.342
75.6000,0.387
75.6400,0.373
75.6800,0.363
75.7200,0.373
75.7600,0.350
75.8000,0.379
75.8400,0.355
75.8800,0.379
75.9200,0.350
75.9600,0.343
76.0000,0.344
76.0400,0.341
76.0800,0.361
76.1200,0.373
76.1600,0.351
76.2000,0.391
76.2400,0.351
76.2800,0.364
76.3200,0.384
76.3600,0.367
76.4000,0.353
76.4400,0.363
76.4800,0.371
76.5200,0.369
76.5600,0.399
76.6000,0.344
76.6400,0.365
76.6800,0.376
76.7200,0.362
76.7600,0.402
76.8000,0.383
76.8400,0.401
76.8800,0.392
76.9200,0.376
76.9600,0.400
77.0000,0.407
77.0400,0.432
77.0800,0.411
77.1200,0.469
77.1600,0.453
77.2000,0.507
77.2400,0.545
77.2800,0.584
77.3200,0.651
77.3600,0.712
77.4000,0.893
77.4400,1.135
77.4800,1.439
77.5200,1.816
77.5600,2.050
77.6000,2.109
77.6400,1.784
77.6800,1.646
77.7200,1.534
77.7600,1.530
77.8000,1.490
77.8400,1.312
77.8800,1.092
77.9200,0.859
77.9600,0.753
78.0000,0.606
78.0400,0.574
78.0800,0.458
78.1200,0.476
78.1600,0.441
78.2000,0.413
78.2400,0.371
78.2800,0.416
78.3200,0.371
78.3600,0.348
78.4000,0.369
78.4400,0.336
78.4800,0.359
78.5200,0.360
78.5600,0.359
78.6000,0.336
78.6400,0.365
78.6800,0.364
78.7200,0.348
78.7600,0.312
78.8000,0.322
78.8400,0.346
78.8800,0.343
78.9200,0.340
78.9600,0.317
79.0000,0.315
79.0400,0.291
79.0800,0.319
79.1200,0.308
79.1600,0.293
79.2000,0.280
79.2400,0.285
79.2800,0.323
79.3200,0.313
79.3600,0.318
79.4000,0.295
79.4400,0.329
79.4800,0.290
79.5200,0.302
79.5600,0.285
79.6000,0.315
79.6400,0.268
79.6800,0.303
79.7200,0.270
79.7600,0.266
79.8000,0.299
79.8400,0.285
79.8800,0.275
79.9200,0.282
79.9600,0.293
80.0000,0.260
