theta,intensity
5.0000,6.813
5.0400,6.692
5.0800,6.625
5.1200,6.488
5.1600,6.403
5.2000,6.447
5.2400,6.273
5.2800,6.272
5.3200,6.297
5.3600,6.202
5.4000,6.107
5.4400,6.014
5.4800,5.910
5.5200,5.831
5.5600,5.716
5.6000,5.589
5.6400,5.663
5.6800,5.463
5.7200,5.416
5.7600,5.502
5.8000,5.229
5.8400,5.137
5.8800,5.110
5.9200,5.115
5.9600,4.951
6.0000,4.855
6.0400,4.918
6.0800,4.825
6.1200,4.831
6.1600,4.641
6.2000,4.599
6.2400,4.670
6.2800,4.464
6.3200,4.395
6.3600,4.304
6.4000,4.272
6.4400,4.158
6.4800,4.209
6.5200,4.247
6.5600,4.167
6.6000,4.269
6.6400,4.167
6.6800,4.128
6.7200,4.162
6.7600,4.081
6.8000,4.073
6.8400,4.032
6.8800,4.150
6.9200,4.128
6.9600,4.012
7.0000,4.160
7.0400,4.071
7.0800,4.212
7.1200,4.054
7.1600,4.100
7.2000,4.098
7.2400,4.076
7.2800,4.057
7.3200,3.999
7.3600,4.027
7.4000,4.016
7.4400,4.119
7.4800,4.031
7.5200,4.041
7.5600,4.073
7.6000,3.979
7.6400,4.020
7.6800,3.980
7.7200,3.987
7.7600,3.892
7.8000,4.016
7.8400,3.946
7.8800,3.964
7.9200,3.993
7.9600,4.015
8.0000,4.030
8.0400,3.863
8.0800,3.941
8.1200,3.897
8.1600,3.800
8.2000,3.844
8.2400,3.923
8.2800,3.903
8.3200,3.976
8.3600,3.828
8.4000,3.838
8.4400,3.842
8.4800,3.845
8.5200,3.923
8.5600,3.934
8.6000,3.848
8.6400,3.705
8.6800,3.861
8.7200,3.742
8.7600,3.807
8.8000,3.727
8.8400,3.858
8.8800,3.858
8.9200,3.829
8.9600,3.846
9.0000,3.821
9.0400,3.789
9.0800,3.812
9.1200,3.844
9.1600,3.741
9.2000,3.775
9.2400,3.669
9.2800,3.715
9.3200,3.743
9.3600,3.791
9.4000,3.719
9.4400,3.772
9.4800,3.776
9.5200,3.785
9.5600,3.693
9.6000,3.705
9.6400,3.675
9.6800,3.678
9.7200,3.649
9.7600,3.563
9.8000,3.620
9.8400,3.765
9.8800,3.708
9.9200,3.719
9.9600,3.742
10.0000,3.782
10.0400,3.630
10.0800,3.695
10.1200,3.704
10.1600,3.647
10.2000,3.637
10.2400,3.796
10.2800,3.737
10.3200,3.610
10.3600,3.503
10.4000,3.622
10.4400,3.596
10.4800,3.630
10.5200,3.649
10.5600,3.541
10.6000,3.538
10.6400,3.694
10.6800,3.693
10.7200,3.548
10.7600,3.607
10.8000,3.590
10.8400,3.508
10.8800,3.573
10.9200,3.524
10.9600,3.560
11.0000,3.603
11.0400,3.580
11.0800,3.463
11.1200,3.489
11.1600,3.459
11.2000,3.518
11.2400,3.603
11.2800,3.540
11.3200,3.481
11.3600,3.489
11.4000,3.530
11.4400,3.520
11.4800,3.554
11.5200,3.512
11.5600,3.362
11.6000,3.496
11.6400,3.466
11.6800,3.492
11.7200,3.596
11.7600,3.497
11.8000,3.452
11.8400,3.385
11.8800,3.479
11.9200,3.519
11.9600,3.394
12.0000,3.404
12.0400,3.313
12.0800,3.535
12.1200,3.421
12.1600,3.466
12.2000,3.368
12.2400,3.521
12.2800,3.507
12.3200,3.365
12.3600,3.218
12.4000,3.309
12.4400,3.423
12.4800,3.437
12.5200,3.402
12.5600,3.379
12.6000,3.472
12.6400,3.320
12.6800,3.286
12.7200,3.316
12.7600,3.362
12.8000,3.354
12.8400,3.382
12.8800,3.246
12.9200,3.328
12.9600,3.395
13.0000,3.472
13.0400,3.265
13.0800,3.334
13.1200,3.458
13.1600,3.245
13.2000,3.347
13.2400,3.377
13.2800,3.268
13.3200,3.316
13.3600,3.317
13.4000,3.357
13.4400,3.358
13.4800,3.316
13.5200,3.268
13.5600,3.335
13.6000,3.328
13.6400,3.350
13.6800,3.134
13.7200,3.267
13.7600,3.264
13.8000,3.267
13.8400,3.302
13.8800,3.389
13.9200,3.227
13.9600,3.238
14.0000,3.191
14.0400,3.242
14.0800,3.188
14.1200,3.220
14.1600,3.260
14.2000,3.264
14.2400,3.252
14.2800,3.130
14.3200,3.196
14.3600,3.178
14.4000,3.291
14.4400,3.213
14.4800,3.277
14.5200,3.216
14.5600,3.209
14.6000,3.281
14.6400,3.215
14.6800,3.258
14.7200,3.156
14.7600,3.143
14.8000,3.139
14.8400,3.118
14.8800,3.129
14.9200,3.133
14.9600,3.146
15.0000,3.247
15.0400,3.170
15.0800,3.138
15.1200,3.145
15.1600,3.153
15.2000,3.088
15.2400,3.038
15.2800,3.067
15.3200,3.171
15.3600,3.124
15.4000,3.111
15.4400,3.130
15.4800,3.120
15.5200,3.098
15.5600,3.152
15.6000,2.989
15.6400,3.156
15.6800,3.135
15.7200,3.006
15.7600,3.034
15.8000,3.152
15.8400,3.147
15.8800,3.130
15.9200,3.014
15.9600,3.140
16.0000,3.112
16.0400,3.014
16.0800,3.082
16.1200,3.087
16.1600,3.033
16.2000,2.997
16.2400,3.073
16.2800,3.088
16.3200,3.077
16.3600,3.115
16.4000,3.040
16.4400,2.955
16.4800,2.981
16.5200,3.035
16.5600,3.048
16.6000,3.089
16.6400,3.014
16.6800,3.039
16.7200,3.076
16.7600,3.034
16.8000,3.026
16.8400,2.936
16.8800,2.938
16.9200,3.033
16.9600,3.022
17.0000,2.942
17.0400,2.973
17.0800,2.946
17.1200,3.006
17.1600,2.919
17.2000,2.881
17.2400,2.893
17.2800,2.996
17.3200,2.881
17.3600,2.930
17.4000,2.948
17.4400,2.943
17.4800,2.901
17.5200,2.898
17.5600,2.882
17.6000,2.840
17.6400,2.978
17.6800,2.962
17.7200,2.925
17.7600,2.845
17.8000,2.881
17.8400,2.876
17.8800,2.960
17.9200,2.921
17.9600,2.901
18.0000,2.925
18.0400,2.784
18.0800,2.815
18.1200,2.839
18.1600,2.887
18.2000,2.881
18.2400,2.938
18.2800,2.847
18.3200,2.887
18.3600,2.878
18.4000,2.828
18.4400,2.873
18.4800,2.862
18.5200,2.825
18.5600,2.837
18.6000,2.804
18.6400,2.788
18.6800,2.894
18.7200,2.762
18.7600,2.817
18.8000,2.800
18.8400,2.770
18.8800,2.768
18.9200,2.805
18.9600,2.767
19.0000,2.836
19.0400,2.786
19.0800,2.813
19.1200,2.766
19.1600,2.789
19.2000,2.815
19.2400,2.771
19.2800,2.699
19.3200,2.839
19.3600,2.807
19.4000,2.811
19.4400,2.770
19.4800,2.800
19.5200,2.805
19.5600,2.745
19.6000,2.755
19.6400,2.688
19.6800,2.779
19.7200,2.700
19.7600,2.720
19.8000,2.678
19.8400,2.712
19.8800,2.734
19.9200,2.745
19.9600,2.689
20.0000,2.717
20.0400,2.691
20.0800,2.654
20.1200,2.671
20.1600,2.651
20.2000,2.611
20.2400,2.751
20.2800,2.631
20.3200,2.629
20.3600,2.597
20.4000,2.658
20.4400,2.679
20.4800,2.685
20.5200,2.599
20.5600,2.601
20.6000,2.633
20.6400,2.710
20.6800,2.640
20.7200,2.666
20.7600,2.624
20.8000,2.607
20.8400,2.627
20.8800,2.610
20.9200,2.629
20.9600,2.618
21.0000,2.504
21.0400,2.628
21.0800,2.574
21.1200,2.618
21.1600,2.635
21.2000,2.591
21.2400,2.657
21.2800,2.683
21.3200,2.610
21.3600,2.619
21.4000,2.537
21.4400,2.621
21.4800,2.687
21.5200,2.640
21.5600,2.566
21.6000,2.509
21.6400,2.575
21.6800,2.455
21.7200,2.535
21.7600,2.511
21.8000,2.555
21.8400,2.463
21.8800,2.511
21.9200,2.531
21.9600,2.516
22.0000,2.504
22.0400,2.510
22.0800,2.536
22.1200,2.472
22.1600,2.511
22.2000,2.390
22.2400,2.471
22.2800,2.503
22.3200,2.492
22.3600,2.474
22.4000,2.498
22.4400,2.474
22.4800,2.595
22.5200,2.496
22.5600,2.497
22.6000,2.510
22.6400,2.540
22.6800,2.394
22.7200,2.442
22.7600,2.459
22.8000,2.456
22.8400,2.462
22.8800,2.447
22.9200,2.424
22.9600,2.468
23.0000,2.463
23.0400,2.422
23.0800,2.408
23.1200,2.453
23.1600,2.438
23.2000,2.370
23.2400,2.442
23.2800,2.421
23.3200,2.513
23.3600,2.422
23.4000,2.463
23.4400,2.334
23.4800,2.347
23.5200,2.437
23.5600,2.345
23.6000,2.383
23.6400,2.433
23.6800,2.400
23.7200,2.375
23.7600,2.401
23.8000,2.423
23.8400,2.395
23.8800,2.379
23.9200,2.298
23.9600,2.365
24.0000,2.365
24.0400,2.438
24.0800,2.399
24.1200,2.357
24.1600,2.366
24.2000,2.392
24.2400,2.366
24.2800,2.394
24.3200,2.351
24.3600,2.316
24.4000,2.270
24.4400,2.384
24.4800,2.317
24.5200,2.331
24.5600,2.373
24.6000,2.364
24.6400,2.346
24.6800,2.364
24.7200,2.449
24.7600,2.338
24.8000,2.323
24.8400,2.333
24.8800,2.318
24.9200,2.412
24.9600,2.341
25.0000,2.307
25.0400,2.266
25.0800,2.325
25.1200,2.217
25.1600,2.257
25.2000,2.354
25.2400,2.324
25.2800,2.347
25.3200,2.299
25.3600,2.284
25.4000,2.338
25.4400,2.306
25.4800,2.274
25.5200,2.264
25.5600,2.290
25.6000,2.324
25.6400,2.273
25.6800,2.192
25.7200,2.303
25.7600,2.240
25.8000,2.349
25.8400,2.249
25.8800,2.267
25.9200,2.253
25.9600,2.150
26.0000,2.219
26.0400,2.252
26.0800,2.143
26.1200,2.208
26.1600,2.262
26.2000,2.230
26.2400,2.169
26.2800,2.218
26.3200,2.140
26.3600,2.234
26.4000,2.189
26.4400,2.242
26.4800,2.159
26.5200,2.191
26.5600,2.172
26.6000,2.125
26.6400,2.173
26.6800,2.124
26.7200,2.132
26.7600,2.191
26.8000,2.155
26.8400,2.146
26.8800,2.162
26.9200,2.247
26.9600,2.136
27.0000,2.136
27.0400,2.179
27.0800,2.215
27.1200,2.166
27.1600,2.110
27.2000,2.174
27.2400,2.108
27.2800,2.063
27.3200,2.038
27.3600,2.204
27.4000,2.193
27.4400,2.181
27.4800,2.059
27.5200,2.072
27.5600,2.118
27.6000,2.052
27.6400,2.087
27.6800,2.111
27.7200,2.089
27.7600,2.090
27.8000,2.089
27.8400,2.045
27.8800,2.061
27.9200,2.112
27.9600,2.140
28.0000,2.145
28.0400,2.051
28.0800,2.142
28.1200,2.112
28.1600,2.140
28.2000,2.171
28.2400,2.009
28.2800,2.125
28.3200,2.044
28.3600,1.990
28.4000,1.984
28.4400,2.042
28.4800,2.012
28.5200,2.103
28.5600,2.021
28.6000,2.052
28.6400,2.074
28.6800,2.067
28.7200,2.041
28.7600,2.029
28.8000,1.944
28.8400,1.989
28.8800,1.958
28.9200,2.045
28.9600,2.031
29.0000,2.039
29.0400,2.015
29.0800,2.012
29.1200,1.979
29.1600,2.067
29.2000,1.875
29.2400,1.980
29.2800,1.992
29.3200,1.922
29.3600,2.000
29.4000,1.938
29.4400,1.955
29.4800,2.095
29.5200,2.089
29.5600,2.007
29.6000,1.993
29.6400,2.051
29.6800,2.085
29.7200,2.050
29.7600,2.044
29.8000,2.017
29.8400,1.987
29.8800,1.990
29.9200,1.955
29.9600,1.956
30.0000,1.989
30.0400,1.937
30.0800,1.963
30.1200,1.971
30.1600,1.983
30.2000,1.913
30.2400,1.932
30.2800,1.906
30.3200,1.919
30.3600,1.931
30.4000,2.003
30.4400,1.908
30.4800,1.885
30.5200,1.904
30.5600,1.941
30.6000,1.883
30.6400,1.815
30.6800,1.886
30.7200,1.879
30.7600,1.944
30.8000,1.915
30.8400,1.861
30.8800,1.870
30.9200,1.859
30.9600,1.869
31.0000,1.778
31.0400,1.984
31.0800,1.805
31.1200,1.895
31.1600,1.818
31.2000,1.885
31.2400,1.776
31.2800,1.930
31.3200,1.760
31.3600,1.838
31.4000,1.788
31.4400,1.829
31.4800,1.844
31.5200,1.816
31.5600,1.965
31.6000,1.821
31.6400,1.754
31.6800,1.796
31.7200,1.734
31.7600,1.838
31.8000,1.851
31.8400,1.840
31.8800,1.755
31.9200,1.733
31.9600,1.747
32.0000,1.863
32.0400,1.836
32.0800,1.750
32.1200,1.832
32.1600,1.815
32.2000,1.813
32.2400,1.786
32.2800,1.740
32.3200,1.791
32.3600,1.772
32.4000,1.823
32.4400,1.763
32.4800,1.741
32.5200,1.755
32.5600,1.753
32.6000,1.748
32.6400,1.795
32.6800,1.699
32.7200,1.663
32.7600,1.774
32.8000,1.711
32.8400,1.678
32.8800,1.714
32.9200,1.768
32.9600,1.738
33.0000,1.810
33.0400,1.755
33.0800,1.772
33.1200,1.706
33.1600,1.763
33.2000,1.735
33.2400,1.711
33.2800,1.836
33.3200,1.805
33.3600,1.739
33.4000,1.752
33.4400,1.644
33.4800,1.584
33.5200,1.687
33.5600,1.743
33.6000,1.643
33.6400,1.653
33.6800,1.620
33.7200,1.652
33.7600,1.717
33.8000,1.706
33.8400,1.676
33.8800,1.702
33.9200,1.688
33.9600,1.692
34.0000,1.754
34.0400,1.651
34.0800,1.647
34.1200,1.649
34.1600,1.623
34.2000,1.657
34.2400,1.656
34.2800,1.698
34.3200,1.673
34.3600,1.744
34.4000,1.707
34.4400,1.645
34.4800,1.737
34.5200,1.627
34.5600,1.743
34.6000,1.675
34.6400,1.667
34.6800,1.671
34.7200,1.628
34.7600,1.624
34.8000,1.563
34.8400,1.592
34.8800,1.698
34.9200,1.640
34.9600,1.683
35.0000,1.629
35.0400,1.644
35.0800,1.630
35.1200,1.701
35.1600,1.683
35.2000,1.652
35.2400,1.712
35.2800,1.669
35.3200,1.700
35.3600,1.772
35.4000,1.698
35.4400,1.616
35.4800,1.736
35.5200,1.773
35.5600,1.695
35.6000,1.764
35.6400,1.857
35.6800,1.906
35.7200,1.895
35.7600,2.087
35.8000,1.973
35.8400,2.078
35.8800,2.092
35.9200,2.039
35.9600,1.939
36.0000,1.963
36.0400,1.886
36.0800,1.899
36.1200,1.799
36.1600,1.753
36.2000,1.718
36.2400,1.678
36.2800,1.668
36.3200,1.695
36.3600,1.677
36.4000,1.637
36.4400,1.634
36.4800,1.644
36.5200,1.734
36.5600,1.558
36.6000,1.668
36.6400,1.646
36.6800,1.582
36.7200,1.604
36.7600,1.581
36.8000,1.510
36.8400,1.571
36.8800,1.607
36.9200,1.624
36.9600,1.612
37.0000,1.569
37.0400,1.521
37.0800,1.612
37.1200,1.657
37.1600,1.620
37.2000,1.570
37.2400,1.665
37.2800,1.620
37.3200,1.681
37.3600,1.661
37.4000,1.692
37.4400,1.661
37.4800,1.652
37.5200,1.726
37.5600,1.791
37.6000,1.720
37.6400,1.785
37.6800,1.838
37.7200,1.834
37.7600,1.915
37.8000,1.920
37.8400,1.945
37.8800,2.083
37.9200,2.126
37.9600,2.232
38.0000,2.309
38.0400,2.417
38.0800,2.521
38.1200,2.779
38.1600,2.932
38.2000,3.217
38.2400,3.346
38.2800,3.418
38.3200,3.568
38.3600,3.434
38.4000,3.477
38.4400,3.519
38.4800,3.353
38.5200,3.230
38.5600,3.015
38.6000,2.848
38.6400,2.673
38.6800,2.539
38.7200,2.442
38.7600,2.268
38.8000,2.196
38.8400,2.116
38.8800,2.038
38.9200,2.033
38.9600,2.029
39.0000,1.985
39.0400,1.999
39.0800,1.943
39.1200,1.767
39.1600,1.900
39.2000,1.869
39.2400,1.878
39.2800,2.012
39.3200,2.032
39.3600,2.101
39.4000,2.221
39.4400,2.331
39.4800,2.465
39.5200,2.723
39.5600,2.890
39.6000,2.951
39.6400,2.926
39.6800,2.872
39.7200,2.779
39.7600,2.637
39.8000,2.528
39.8400,2.449
39.8800,2.302
39.9200,2.131
39.9600,2.161
40.0000,2.232
40.0400,2.179
40.0800,2.208
40.1200,2.256
40.1600,2.220
40.2000,2.196
40.2400,2.029
40.2800,2.010
40.3200,1.936
40.3600,1.897
40.4000,1.828
40.4400,1.835
40.4800,1.853
40.5200,1.787
40.5600,1.749
40.6000,1.835
40.6400,1.745
40.6800,1.872
40.7200,1.902
40.7600,1.924
40.8000,2.027
40.8400,2.143
40.8800,2.310
40.9200,2.566
40.9600,2.692
41.0000,2.986
41.0400,3.265
41.0800,3.490
41.1200,3.733
41.1600,4.044
41.2000,4.172
41.2400,4.193
41.2800,4.020
41.3200,4.057
41.3600,3.785
41.4000,3.501
41.4400,3.253
41.4800,2.904
41.5200,2.568
41.5600,2.306
41.6000,2.045
41.6400,1.958
41.6800,1.816
41.7200,1.764
41.7600,1.604
41.8000,1.539
41.8400,1.437
41.8800,1.443
41.9200,1.417
41.9600,1.383
42.0000,1.366
42.0400,1.417
42.0800,1.347
42.1200,1.273
42.1600,1.270
42.2000,1.264
42.2400,1.246
42.2800,1.255
42.3200,1.313
42.3600,1.274
42.4000,1.196
42.4400,1.187
42.4800,1.239
42.5200,1.143
42.5600,1.220
42.6000,1.273
42.6400,1.281
42.6800,1.185
42.7200,1.212
42.7600,1.180
42.8000,1.224
42.8400,1.165
42.8800,1.178
42.9200,1.237
42.9600,1.169
43.0000,1.192
43.0400,1.254
43.0800,1.166
43.1200,1.210
43.1600,1.224
43.2000,1.204
43.2400,1.222
43.2800,1.190
43.3200,1.235
43.3600,1.185
43.4000,1.178
43.4400,1.229
43.4800,1.218
43.5200,1.231
43.5600,1.172
43.6000,1.181
43.6400,1.207
43.6800,1.278
43.7200,1.337
43.7600,1.201
43.8000,1.325
43.8400,1.246
43.8800,1.274
43.9200,1.299
43.9600,1.384
44.0000,1.341
44.0400,1.341
44.0800,1.464
44.1200,1.467
44.1600,1.578
44.2000,1.590
44.2400,1.662
44.2800,1.776
44.3200,1.915
44.3600,1.979
44.4000,2.135
44.4400,2.273
44.4800,2.518
44.5200,2.545
44.5600,2.838
44.6000,2.770
44.6400,2.718
44.6800,2.605
44.7200,2.499
44.7600,2.286
44.8000,2.131
44.8400,1.958
44.8800,1.853
44.9200,1.728
44.9600,1.594
45.0000,1.496
45.0400,1.464
45.0800,1.441
45.1200,1.387
45.1600,1.362
45.2000,1.304
45.2400,1.291
45.2800,1.223
45.3200,1.227
45.3600,1.213
45.4000,1.149
45.4400,1.142
45.4800,1.168
45.5200,1.167
45.5600,1.096
45.6000,1.110
45.6400,1.077
45.6800,1.094
45.7200,1.072
45.7600,1.067
45.8000,1.060
45.8400,1.009
45.8800,1.057
45.9200,1.063
45.9600,1.017
46.0000,1.019
46.0400,1.038
46.0800,1.048
46.1200,1.008
46.1600,0.975
46.2000,0.991
46.2400,0.945
46.2800,1.083
46.3200,0.996
46.3600,0.982
46.4000,0.952
46.4400,0.970
46.4800,0.970
46.5200,1.030
46.5600,1.014
46.6000,0.954
46.6400,0.975
46.6800,0.975
46.7200,0.943
46.7600,0.997
46.8000,0.943
46.8400,0.950
46.8800,0.947
46.9200,0.970
46.9600,0.935
47.0000,0.961
47.0400,0.966
47.0800,0.985
47.1200,0.942
47.1600,0.966
47.2000,0.987
47.2400,0.945
47.2800,0.957
47.3200,0.921
47.3600,0.958
47.4000,0.958
47.4400,0.937
47.4800,0.990
47.5200,0.891
47.5600,0.942
47.6000,1.019
47.6400,0.939
47.6800,1.026
47.7200,0.952
47.7600,0.975
47.8000,1.022
47.8400,1.049
47.8800,1.035
47.9200,1.101
47.9600,1.129
48.0000,1.155
48.0400,1.187
48.0800,1.300
48.1200,1.271
48.1600,1.276
48.2000,1.284
48.2400,1.232
48.2800,1.252
48.3200,1.217
48.3600,1.150
48.4000,1.141
48.4400,1.021
48.4800,1.018
48.5200,0.993
48.5600,0.958
48.6000,0.997
48.6400,0.927
48.6800,0.916
48.7200,0.939
48.7600,0.922
48.8000,0.879
48.8400,0.877
48.8800,0.871
48.9200,0.900
48.9600,0.858
49.0000,0.896
49.0400,0.911
49.0800,0.882
49.1200,0.915
49.1600,0.863
49.2000,0.847
49.2400,0.880
49.2800,0.875
49.3200,0.832
49.3600,0.816
49.4000,0.847
49.4400,0.819
49.4800,0.849
49.5200,0.851
49.5600,0.858
49.6000,0.849
49.6400,0.771
49.6800,0.862
49.7200,0.824
49.7600,0.874
49.8000,0.865
49.8400,0.848
49.8800,0.857
49.9200,0.781
49.9600,0.781
50.0000,0.839
50.0400,0.834
50.0800,0.793
50.1200,0.801
50.1600,0.815
50.2000,0.765
50.2400,0.795
50.2800,0.800
50.3200,0.791
50.3600,0.808
50.4000,0.834
50.4400,0.782
50.4800,0.823
50.5200,0.758
50.5600,0.786
50.6000,0.746
50.6400,0.842
50.6800,0.798
50.7200,0.815
50.7600,0.834
50.8000,0.839
50.8400,0.776
50.8800,0.816
50.9200,0.776
50.9600,0.770
51.0000,0.808
51.0400,0.856
51.0800,0.814
51.1200,0.809
51.1600,0.876
51.2000,0.784
51.2400,0.828
51.2800,0.791
51.3200,0.827
51.3600,0.834
51.4000,0.844
51.4400,0.831
51.4800,0.807
51.5200,0.809
51.5600,0.772
51.6000,0.781
51.6400,0.744
51.6800,0.815
51.7200,0.773
51.7600,0.765
51.8000,0.783
51.8400,0.724
51.8800,0.699
51.9200,0.786
51.9600,0.775
52.0000,0.785
52.0400,0.736
52.0800,0.772
52.1200,0.787
52.1600,0.793
52.2000,0.786
52.2400,0.776
52.2800,0.820
52.3200,0.736
52.3600,0.706
52.4000,0.754
52.4400,0.763
52.4800,0.754
52.5200,0.747
52.5600,0.746
52.6000,0.752
52.6400,0.712
52.6800,0.755
52.7200,0.738
52.7600,0.714
52.8000,0.704
52.8400,0.755
52.8800,0.734
52.9200,0.770
52.9600,0.772
53.0000,0.713
53.0400,0.716
53.0800,0.746
53.1200,0.696
53.1600,0.767
53.2000,0.705
53.2400,0.699
53.2800,0.712
53.3200,0.754
53.3600,0.752
53.4000,0.669
53.4400,0.749
53.4800,0.784
53.5200,0.746
53.5600,0.746
53.6000,0.722
53.6400,0.745
53.6800,0.720
53.7200,0.741
53.7600,0.713
53.8000,0.761
53.8400,0.719
53.8800,0.741
53.9200,0.701
53.9600,0.744
54.0000,0.753
54.0400,0.714
54.0800,0.719
54.1200,0.703
54.1600,0.741
54.2000,0.706
54.2400,0.725
54.2800,0.688
54.3200,0.731
54.3600,0.650
54.4000,0.689
54.4400,0.693
54.4800,0.690
54.5200,0.722
54.5600,0.698
54.6000,0.685
54.6400,0.734
54.6800,0.704
54.7200,0.712
54.7600,0.720
54.8000,0.711
54.8400,0.725
54.8800,0.736
54.9200,0.739
54.9600,0.697
55.0000,0.670
55.0400,0.710
55.0800,0.679
55.1200,0.723
55.1600,0.777
55.2000,0.713
55.2400,0.739
55.2800,0.781
55.3200,0.738
55.3600,0.749
55.4000,0.759
55.4400,0.728
55.4800,0.734
55.5200,0.699
55.5600,0.687
55.6000,0.737
55.6400,0.728
55.6800,0.707
55.7200,0.678
55.7600,0.665
55.8000,0.670
55.8400,0.683
55.8800,0.679
55.9200,0.630
55.9600,0.669
56.0000,0.645
56.0400,0.650
56.0800,0.702
56.1200,0.666
56.1600,0.660
56.2000,0.682
56.2400,0.687
56.2800,0.651
56.3200,0.653
56.3600,0.670
56.4000,0.675
56.4400,0.620
56.4800,0.647
56.5200,0.674
56.5600,0.644
56.6000,0.664
56.6400,0.674
56.6800,0.687
56.7200,0.626
56.7600,0.696
56.8000,0.694
56.8400,0.655
56.8800,0.622
56.9200,0.651
56.9600,0.640
57.0000,0.644
57.0400,0.656
57.0800,0.656
57.1200,0.691
57.1600,0.688
57.2000,0.619
57.2400,0.656
57.2800,0.616
57.3200,0.674
57.3600,0.670
57.4000,0.664
57.4400,0.638
57.4800,0.662
57.5200,0.618
57.5600,0.653
57.6000,0.661
57.6400,0.659
57.6800,0.661
57.7200,0.631
57.7600,0.682
57.8000,0.703
57.8400,0.675
57.8800,0.725
57.9200,0.733
57.9600,0.699
58.0000,0.706
58.0400,0.708
58.0800,0.708
58.1200,0.668
58.1600,0.669
58.2000,0.663
58.2400,0.688
58.2800,0.634
58.3200,0.669
58.3600,0.683
58.4000,0.621
58.4400,0.649
58.4800,0.635
58.5200,0.591
58.5600,0.627
58.6000,0.644
58.6400,0.642
58.6800,0.599
58.7200,0.623
58.7600,0.654
58.8000,0.603
58.8400,0.655
58.8800,0.637
58.9200,0.630
58.9600,0.599
59.0000,0.567
59.0400,0.587
59.0800,0.643
59.1200,0.669
59.1600,0.641
59.2000,0.628
59.2400,0.633
59.2800,0.630
59.3200,0.604
59.3600,0.612
59.4000,0.620
59.4400,0.641
59.4800,0.682
59.5200,0.642
59.5600,0.623
59.6000,0.611
59.6400,0.612
59.6800,0.626
59.7200,0.640
59.7600,0.582
59.8000,0.657
59.8400,0.655
59.8800,0.596
59.9200,0.650
59.9600,0.681
60.0000,0.649
60.0400,0.628
60.0800,0.691
60.1200,0.684
60.1600,0.747
60.2000,0.670
60.2400,0.697
60.2800,0.707
60.3200,0.671
60.3600,0.686
60.4000,0.665
60.4400,0.669
60.4800,0.656
60.5200,0.656
60.5600,0.657
60.6000,0.601
60.6400,0.632
60.6800,0.635
60.7200,0.632
60.7600,0.622
60.8000,0.630
60.8400,0.624
60.8800,0.585
60.9200,0.613
60.9600,0.615
61.0000,0.609
61.0400,0.599
61.0800,0.612
61.1200,0.617
61.1600,0.617
61.2000,0.659
61.2400,0.671
61.2800,0.620
61.3200,0.669
61.3600,0.677
61.4000,0.703
61.4400,0.767
61.4800,0.752
61.5200,0.824
61.5600,0.800
61.6000,0.800
61.6400,0.871
61.6800,0.815
61.7200,0.823
61.7600,0.723
61.8000,0.709
61.8400,0.735
61.8800,0.711
61.9200,0.734
61.9600,0.658
62.0000,0.652
62.0400,0.651
62.0800,0.610
62.1200,0.625
62.1600,0.606
62.2000,0.619
62.2400,0.574
62.2800,0.597
62.3200,0.592
62.3600,0.590
62.4000,0.568
62.4400,0.568
62.4800,0.571
62.5200,0.643
62.5600,0.605
62.6000,0.560
62.6400,0.596
62.6800,0.562
62.7200,0.626
62.7600,0.610
62.8000,0.585
62.8400,0.572
62.8800,0.589
62.9200,0.618
62.9600,0.593
63.0000,0.583
63.0400,0.589
63.0800,0.582
63.1200,0.563
63.1600,0.551
63.2000,0.620
63.2400,0.543
63.2800,0.571
63.3200,0.571
63.3600,0.595
63.4000,0.604
63.4400,0.566
63.4800,0.532
63.5200,0.561
63.5600,0.574
63.6000,0.564
63.6400,0.570
63.6800,0.596
63.7200,0.590
63.7600,0.633
63.8000,0.600
63.8400,0.585
63.8800,0.577
63.9200,0.593
63.9600,0.621
64.0000,0.612
64.0400,0.589
64.0800,0.624
64.1200,0.600
64.1600,0.646
64.2000,0.635
64.2400,0.664
64.2800,0.648
64.3200,0.710
64.3600,0.696
64.4000,0.724
64.4400,0.721
64.4800,0.695
64.5200,0.756
64.5600,0.804
64.6000,0.770
64.6400,0.807
64.6800,0.778
64.7200,0.808
64.7600,0.811
64.8000,0.796
64.8400,0.799
64.8800,0.852
64.9200,0.857
64.9600,0.845
65.0000,0.808
65.0400,0.863
65.0800,0.822
65.1200,0.828
65.1600,0.810
65.2000,0.815
65.2400,0.834
65.2800,0.796
65.3200,0.783
65.3600,0.790
65.4000,0.753
65.4400,0.741
65.4800,0.750
65.5200,0.749
65.5600,0.731
65.6000,0.691
65.6400,0.787
65.6800,0.764
65.7200,0.760
65.7600,0.745
65.8000,0.752
65.8400,0.741
65.8800,0.738
65.9200,0.682
65.9600,0.704
66.0000,0.738
66.0400,0.792
66.0800,0.800
66.1200,0.781
66.1600,0.714
66.2000,0.778
66.2400,0.796
66.2800,0.795
66.3200,0.810
66.3600,0.793
66.4000,0.801
66.4400,0.824
66.4800,0.827
66.5200,0.868
66.5600,0.837
66.6000,0.858
66.6400,0.916
66.6800,0.876
66.7200,0.872
66.7600,0.916
66.8000,0.921
66.8400,0.895
66.8800,0.925
66.9200,0.934
66.9600,0.954
67.0000,0.978
67.0400,0.974
67.0800,1.003
67.1200,1.018
67.1600,1.013
67.2000,1.032
67.2400,1.007
67.2800,1.099
67.3200,1.147
67.3600,1.098
67.4000,1.157
67.4400,1.235
67.4800,1.255
67.5200,1.310
67.5600,1.298
67.6000,1.370
67.6400,1.424
67.6800,1.444
67.7200,1.481
67.7600,1.538
67.8000,1.546
67.8400,1.538
67.8800,1.625
67.9200,1.570
67.9600,1.564
68.0000,1.685
68.0400,1.686
68.0800,1.659
68.1200,1.712
68.1600,1.662
68.2000,1.777
68.2400,1.840
68.2800,1.895
68.3200,1.988
68.3600,1.949
68.4000,2.169
68.4400,2.168
68.4800,2.339
68.5200,2.412
68.5600,2.597
68.6000,2.836
68.6400,3.041
68.6800,3.481
68.7200,4.430
68.7600,5.588
68.8000,6.626
68.8400,6.983
68.8800,7.197
68.9200,8.530
68.9600,10.997
69.0000,17.313
69.0400,35.691
69.0800,154.324
69.1200,419.091
69.1600,352.341
69.2000,103.762
69.2400,45.018
69.2800,101.810
69.3200,224.274
69.3600,177.855
69.4000,53.280
69.4400,18.293
69.4800,10.855
69.5200,7.965
69.5600,6.337
69.6000,5.443
69.6400,4.579
69.6800,4.078
69.7200,3.621
69.7600,3.378
69.8000,3.040
69.8400,2.899
69.8800,2.765
69.9200,2.621
69.9600,2.545
70.0000,2.391
70.0400,2.298
70.0800,2.154
70.1200,2.171
70.1600,2.034
70.2000,1.910
70.2400,1.967
70.2800,1.860
70.3200,1.772
70.3600,1.806
70.4000,1.643
70.4400,1.672
70.4800,1.624
70.5200,1.521
70.5600,1.493
70.6000,1.497
70.6400,1.447
70.6800,1.409
70.7200,1.313
70.7600,1.279
70.8000,1.229
70.8400,1.254
70.8800,1.217
70.9200,1.215
70.9600,1.143
71.0000,1.121
71.0400,1.071
71.0800,1.070
71.1200,1.074
71.1600,1.052
71.2000,0.973
71.2400,0.979
71.2800,0.995
71.3200,0.930
71.3600,0.937
71.4000,0.962
71.4400,0.904
71.4800,0.826
71.5200,0.877
71.5600,0.891
71.6000,0.823
71.6400,0.799
71.6800,0.777
71.7200,0.822
71.7600,0.802
71.8000,0.752
71.8400,0.759
71.8800,0.767
71.9200,0.733
71.9600,0.730
72.0000,0.708
72.0400,0.721
72.0800,0.697
72.1200,0.676
72.1600,0.675
72.2000,0.651
72.2400,0.661
72.2800,0.653
72.3200,0.655
72.3600,0.598
72.4000,0.631
72.4400,0.604
72.4800,0.593
72.5200,0.627
72.5600,0.621
72.6000,0.650
72.6400,0.611
72.6800,0.622
72.7200,0.630
72.7600,0.600
72.8000,0.599
72.8400,0.589
72.8800,0.570
72.9200,0.596
72.9600,0.590
73.0000,0.560
73.0400,0.567
73.0800,0.555
73.1200,0.574
73.1600,0.593
73.2000,0.542
73.2400,0.522
73.2800,0.562
73.3200,0.539
73.3600,0.502
73.4000,0.515
73.4400,0.533
73.4800,0.564
73.5200,0.510
73.5600,0.517
73.6000,0.551
73.6400,0.481
73.6800,0.516
73.7200,0.545
73.7600,0.512
73.8000,0.508
73.8400,0.508
73.8800,0.536
73.9200,0.497
73.9600,0.484
74.0000,0.536
74.0400,0.488
74.0800,0.500
74.1200,0.473
74.1600,0.484
74.2000,0.477
74.2400,0.512
74.2800,0.471
74.3200,0.483
74.3600,0.477
74.4000,0.487
74.4400,0.451
74.4800,0.480
74.5200,0.448
74.5600,0.435
74.6000,0.495
74.6400,0.458
74.6800,0.502
74.7200,0.499
74.7600,0.527
74.8000,0.514
74.8400,0.525
74.8800,0.525
74.9200,0.508
74.9600,0.479
75.0000,0.504
75.0400,0.519
75.0800,0.483
75.1200,0.493
75.1600,0.461
75.2000,0.462
75.2400,0.448
75.2800,0.445
75.3200,0.454
75.3600,0.418
75.4000,0.427
75.4400,0.458
75.4800,0.402
75.5200,0.454
75.5600,0.438
75.6000,0.394
75.6400,0.426
75.6800,0.414
75.7200,0.428
75.7600,0.397
75.8000,0.450
75.8400,0.425
75.8800,0.436
75.9200,0.418
75.9600,0.437
76.0000,0.410
76.0400,0.419
76.0800,0.454
76.1200,0.440
76.1600,0.465
76.2000,0.447
76.2400,0.403
76.2800,0.414
76.3200,0.469
76.3600,0.443
76.4000,0.436
76.4400,0.407
76.4800,0.428
76.5200,0.393
76.5600,0.428
76.6000,0.427
76.6400,0.386
76.6800,0.404
76.7200,0.420
76.7600,0.453
76.8000,0.407
76.8400,0.414
76.8800,0.424
76.9200,0.396
76.9600,0.423
77.0000,0.452
77.0400,0.436
77.0800,0.463
77.1200,0.476
77.1600,0.457
77.2000,0.455
77.2400,0.494
77.2800,0.451
77.3200,0.488
77.3600,0.510
77.4000,0.489
77.4400,0.549
77.4800,0.496
77.5200,0.575
77.5600,0.555
77.6000,0.535
77.6400,0.581
77.6800,0.537
77.7200,0.574
77.7600,0.555
77.8000,0.539
77.8400,0.578
77.8800,0.568
77.9200,0.591
77.9600,0.563
78.0000,0.592
78.0400,0.554
78.0800,0.562
78.1200,0.535
78.1600,0.537
78.2000,0.547
78.2400,0.514
78.2800,0.536
78.3200,0.521
78.3600,0.485
78.4000,0.466
78.4400,0.506
78.4800,0.518
78.5200,0.457
78.5600,0.438
78.6000,0.456
78.6400,0.491
78.6800,0.473
78.7200,0.507
78.7600,0.462
78.8000,0.489
78.8400,0.481
78.8800,0.473
78.9200,0.498
78.9600,0.485
79.0000,0.520
79.0400,0.518
79.0800,0.477
79.1200,0.510
79.1600,0.512
79.2000,0.489
79.2400,0.474
79.2800,0.523
79.3200,0.460
79.3600,0.481
79.4000,0.489
79.4400,0.487
79.4800,0.512
79.5200,0.445
79.5600,0.494
79.6000,0.520
79.6400,0.497
79.6800,0.497
79.7200,0.497
79.7600,0.534
79.8000,0.520
79.8400,0.508
79.8800,0.528
79.9200,0.496
79.9600,0.480
80.0000,0.511
