theta,intensity
5.0000,4.152
5.0400,4.234
5.0800,4.154
5.1200,4.290
5.1600,4.090
5.2000,4.092
5.2400,4.211
5.2800,4.252
5.3200,4.206
5.3600,4.150
5.4000,4.124
5.4400,4.148
5.4800,4.168
5.5200,4.096
5.5600,4.050
5.6000,4.184
5.6400,4.087
5.6800,4.075
5.7200,4.087
5.7600,4.132
5.8000,4.067
5.8400,3.970
5.8800,4.069
5.9200,4.065
5.9600,3.895
6.0000,3.986
6.0400,3.848
6.0800,3.950
6.1200,4.017
6.1600,4.029
6.2000,4.030
6.2400,4.025
6.2800,4.025
6.3200,4.132
6.3600,3.951
6.4000,3.950
6.4400,3.991
6.4800,3.885
6.5200,4.016
6.5600,3.937
6.6000,3.873
6.6400,3.916
6.6800,4.013
6.7200,4.013
6.7600,3.828
6.8000,3.893
6.8400,3.850
6.8800,3.897
6.9200,3.949
6.9600,3.947
7.0000,3.904
7.0400,3.931
7.0800,3.863
7.1200,3.857
7.1600,3.849
7.2000,3.960
7.2400,3.901
7.2800,3.968
7.3200,3.874
7.3600,3.841
7.4000,3.950
7.4400,3.786
7.4800,3.830
7.5200,3.798
7.5600,3.830
7.6000,3.847
7.6400,3.896
7.6800,3.838
7.7200,3.813
7.7600,3.797
7.8000,3.770
7.8400,3.793
7.8800,3.759
7.9200,3.705
7.9600,3.894
8.0000,3.744
8.0400,3.731
8.0800,3.776
8.1200,3.837
8.1600,3.690
8.2000,3.775
8.2400,3.672
8.2800,3.787
8.3200,3.878
8.3600,3.752
8.4000,3.673
8.4400,3.782
8.4800,3.766
8.5200,3.701
8.5600,3.777
8.6000,3.881
8.6400,3.806
8.6800,3.749
8.7200,3.710
8.7600,3.685
8.8000,3.673
8.8400,3.696
8.8800,3.717
8.9200,3.676
8.9600,3.742
9.0000,3.724
9.0400,3.652
9.0800,3.697
9.1200,3.685
9.1600,3.686
9.2000,3.699
9.2400,3.654
9.2800,3.578
9.3200,3.671
9.3600,3.687
9.4000,3.634
9.4400,3.710
9.4800,3.668
9.5200,3.568
9.5600,3.557
9.6000,3.643
9.6400,3.675
9.6800,3.623
9.7200,3.602
9.7600,3.691
9.8000,3.590
9.8400,3.623
9.8800,3.732
9.9200,3.565
9.9600,3.499
10.0000,3.563
10.0400,3.592
10.0800,3.544
10.1200,3.471
10.1600,3.527
10.2000,3.580
10.2400,3.593
10.2800,3.512
10.3200,3.532
10.3600,3.528
10.4000,3.550
10.4400,3.496
10.4800,3.610
10.5200,3.520
10.5600,3.449
10.6000,3.503
10.6400,3.528
10.6800,3.495
10.7200,3.509
10.7600,3.546
10.8000,3.465
10.8400,3.578
10.8800,3.542
10.9200,3.530
10.9600,3.545
11.0000,3.524
11.0400,3.489
11.0800,3.384
11.1200,3.386
11.1600,3.475
11.2000,3.446
11.2400,3.396
11.2800,3.529
11.3200,3.459
11.3600,3.366
11.4000,3.565
11.4400,3.401
11.4800,3.471
11.5200,3.470
11.5600,3.422
11.6000,3.443
11.6400,3.447
11.6800,3.365
11.7200,3.376
11.7600,3.378
11.8000,3.324
11.8400,3.308
11.8800,3.308
11.9200,3.492
11.9600,3.309
12.0000,3.429
12.0400,3.330
12.0800,3.395
12.1200,3.280
12.1600,3.391
12.2000,3.442
12.2400,3.304
12.2800,3.304
12.3200,3.286
12.3600,3.357
12.4000,3.414
12.4400,3.296
12.4800,3.246
12.5200,3.331
12.5600,3.462
12.6000,3.427
12.6400,3.332
12.6800,3.293
12.7200,3.185
12.7600,3.336
12.8000,3.222
12.8400,3.308
12.8800,3.375
12.9200,3.361
12.9600,3.354
13.0000,3.245
13.0400,3.304
13.0800,3.274
13.1200,3.273
13.1600,3.283
13.2000,3.351
13.2400,3.282
13.2800,3.136
13.3200,3.307
13.3600,3.217
13.4000,3.293
13.4400,3.287
13.4800,3.205
13.5200,3.257
13.5600,3.248
13.6000,3.332
13.6400,3.142
13.6800,3.305
13.7200,3.303
13.7600,3.329
13.8000,3.215
13.8400,3.233
13.8800,3.347
13.9200,3.278
13.9600,3.236
14.0000,3.150
14.0400,3.202
14.0800,3.214
14.1200,3.173
14.1600,3.214
14.2000,3.189
14.2400,3.109
14.2800,3.203
14.3200,3.211
14.3600,3.178
14.4000,3.218
14.4400,3.041
14.4800,3.234
14.5200,3.210
14.5600,3.099
14.6000,3.184
14.6400,3.085
14.6800,3.181
14.7200,3.173
14.7600,3.080
14.8000,3.102
14.8400,3.162
14.8800,3.132
14.9200,3.120
14.9600,3.117
15.0000,3.152
15.0400,3.175
15.0800,3.157
15.1200,3.118
15.1600,3.022
15.2000,3.005
15.2400,3.046
15.2800,3.007
15.3200,3.142
15.3600,3.123
15.4000,3.087
15.4400,3.084
15.4800,3.041
15.5200,3.087
15.5600,3.108
15.6000,3.088
15.6400,3.054
15.6800,2.954
15.7200,3.103
15.7600,2.959
15.8000,3.090
15.8400,3.063
15.8800,3.025
15.9200,3.072
15.9600,3.031
16.0000,3.019
16.0400,2.989
16.0800,3.096
16.1200,3.019
16.1600,2.948
16.2000,2.967
16.2400,3.145
16.2800,2.990
16.3200,2.949
16.3600,2.976
16.4000,2.920
16.4400,2.959
16.4800,3.015
16.5200,3.015
16.5600,3.041
16.6000,2.938
16.6400,2.907
16.6800,2.994
16.7200,2.873
16.7600,3.002
16.8000,2.889
16.8400,2.993
16.8800,2.980
16.9200,2.911
16.9600,2.955
17.0000,2.957
17.0400,2.947
17.0800,2.920
17.1200,2.934
17.1600,2.971
17.2000,2.834
17.2400,2.876
17.2800,2.898
17.3200,2.819
17.3600,2.947
17.4000,2.872
17.4400,2.825
17.4800,2.799
17.5200,2.849
17.5600,2.992
17.6000,2.934
17.6400,2.824
17.6800,2.861
17.7200,2.837
17.7600,2.864
17.8000,2.869
17.8400,2.851
17.8800,2.973
17.9200,2.826
17.9600,2.759
18.0000,2.883
18.0400,2.925
18.0800,2.920
18.1200,2.820
18.1600,2.805
18.2000,2.717
18.2400,2.864
18.2800,2.766
18.3200,2.792
18.3600,2.759
18.4000,2.744
18.4400,2.759
18.4800,2.780
18.5200,2.815
18.5600,2.810
18.6000,2.768
18.6400,2.837
18.6800,2.801
18.7200,2.758
18.7600,2.795
18.8000,2.806
18.8400,2.778
18.8800,2.810
18.9200,2.680
18.9600,2.715
19.0000,2.841
19.0400,2.715
19.0800,2.703
19.1200,2.770
19.1600,2.821
19.2000,2.799
19.2400,2.691
19.2800,2.735
19.3200,2.687
19.3600,2.719
19.4000,2.719
19.4400,2.708
19.4800,2.804
19.5200,2.638
19.5600,2.764
19.6000,2.687
19.6400,2.698
19.6800,2.742
19.7200,2.628
19.7600,2.655
19.8000,2.678
19.8400,2.750
19.8800,2.671
19.9200,2.649
19.9600,2.739
20.0000,2.559
20.0400,2.697
20.0800,2.635
20.1200,2.690
20.1600,2.625
20.2000,2.605
20.2400,2.675
20.2800,2.708
20.3200,2.602
20.3600,2.670
20.4000,2.718
20.4400,2.644
20.4800,2.634
20.5200,2.648
20.5600,2.658
20.6000,2.669
20.6400,2.607
20.6800,2.552
20.7200,2.619
20.7600,2.602
20.8000,2.524
20.8400,2.601
20.8800,2.643
20.9200,2.722
20.9600,2.571
21.0000,2.609
21.0400,2.576
21.0800,2.680
21.1200,2.513
21.1600,2.659
21.2000,2.600
21.2400,2.521
21.2800,2.507
21.3200,2.561
21.3600,2.600
21.4000,2.600
21.4400,2.690
21.4800,2.678
21.5200,2.663
21.5600,2.689
21.6000,2.587
21.6400,2.678
21.6800,2.563
21.7200,2.629
21.7600,2.594
21.8000,2.435
21.8400,2.648
21.8800,2.593
21.9200,2.514
21.9600,2.527
22.0000,2.552
22.0400,2.418
22.0800,2.487
22.1200,2.475
22.1600,2.508
22.2000,2.485
22.2400,2.411
22.2800,2.490
22.3200,2.448
22.3600,2.530
22.4000,2.396
22.4400,2.480
22.4800,2.453
22.5200,2.395
22.5600,2.392
22.6000,2.426
22.6400,2.393
22.6800,2.477
22.7200,2.406
22.7600,2.496
22.8000,2.515
22.8400,2.412
22.8800,2.406
22.9200,2.394
22.9600,2.436
23.0000,2.325
23.0400,2.392
23.0800,2.346
23.1200,2.350
23.1600,2.442
23.2000,2.403
23.2400,2.381
23.2800,2.368
23.3200,2.301
23.3600,2.356
23.4000,2.372
23.4400,2.404
23.4800,2.333
23.5200,2.405
23.5600,2.356
23.6000,2.341
23.6400,2.242
23.6800,2.382
23.7200,2.267
23.7600,2.341
23.8000,2.304
23.8400,2.407
23.8800,2.306
23.9200,2.324
23.9600,2.332
24.0000,2.334
24.0400,2.255
24.0800,2.359
24.1200,2.263
24.1600,2.212
24.2000,2.352
24.2400,2.286
24.2800,2.355
24.3200,2.268
24.3600,2.298
24.4000,2.309
24.4400,2.281
24.4800,2.240
24.5200,2.258
24.5600,2.272
24.6000,2.154
24.6400,2.259
24.6800,2.273
24.7200,2.291
24.7600,2.202
24.8000,2.311
24.8400,2.252
24.8800,2.259
24.9200,2.244
24.9600,2.195
25.0000,2.221
25.0400,2.281
25.0800,2.234
25.1200,2.216
25.1600,2.232
25.2000,2.190
25.2400,2.247
25.2800,2.216
25.3200,2.248
25.3600,2.127
25.4000,2.201
25.4400,2.226
25.4800,2.226
25.5200,2.203
25.5600,2.210
25.6000,2.172
25.6400,2.250
25.6800,2.201
25.7200,2.178
25.7600,2.155
25.8000,2.106
25.8400,2.152
25.8800,2.196
25.9200,2.169
25.9600,2.069
26.0000,2.133
26.0400,2.124
26.0800,2.092
26.1200,2.152
26.1600,2.158
26.2000,2.073
26.2400,2.147
26.2800,2.196
26.3200,2.143
26.3600,2.086
26.4000,2.099
26.4400,2.120
26.4800,2.122
26.5200,2.117
26.5600,2.112
26.6000,2.096
26.6400,2.012
26.6800,2.006
26.7200,2.091
26.7600,2.185
26.8000,2.087
26.8400,2.157
26.8800,2.135
26.9200,2.109
26.9600,2.060
27.0000,2.113
27.0400,2.016
27.0800,2.133
27.1200,2.039
27.1600,2.016
27.2000,2.031
27.2400,2.046
27.2800,1.986
27.3200,2.042
27.3600,2.066
27.4000,2.049
27.4400,1.993
27.4800,1.991
27.5200,2.053
27.5600,2.055
27.6000,2.016
27.6400,1.950
27.6800,1.990
27.7200,1.993
27.7600,2.028
27.8000,2.038
27.8400,1.971
27.8800,1.952
27.9200,1.971
27.9600,2.016
28.0000,1.993
28.0400,2.026
28.0800,1.992
28.1200,1.969
28.1600,2.005
28.2000,1.977
28.2400,1.958
28.2800,1.935
28.3200,1.952
28.3600,1.909
28.4000,1.973
28.4400,2.031
28.4800,2.004
28.5200,1.956
28.5600,1.984
28.6000,1.988
28.6400,1.926
28.6800,1.962
28.7200,1.903
28.7600,1.902
28.8000,1.961
28.8400,1.943
28.8800,1.914
28.9200,1.955
28.9600,1.941
29.0000,1.895
29.0400,1.902
29.0800,1.896
29.1200,1.886
29.1600,1.876
29.2000,1.904
29.2400,1.870
29.2800,1.928
29.3200,1.882
29.3600,1.850
29.4000,1.909
29.4400,1.979
29.4800,1.911
29.5200,1.884
29.5600,1.859
29.6000,1.930
29.6400,1.946
29.6800,1.994
29.7200,1.960
29.7600,1.976
29.8000,1.934
29.8400,1.865
29.8800,1.959
29.9200,2.003
29.9600,1.902
30.0000,1.968
30.0400,1.970
30.0800,1.970
30.1200,2.028
30.1600,2.110
30.2000,2.116
30.2400,2.144
30.2800,2.226
30.3200,2.315
30.3600,2.279
30.4000,2.415
30.4400,2.549
30.4800,2.475
30.5200,2.680
30.5600,2.615
30.6000,2.780
30.6400,2.778
30.6800,2.831
30.7200,2.833
30.7600,2.819
30.8000,2.750
30.8400,2.609
30.8800,2.544
30.9200,2.515
30.9600,2.397
31.0000,2.312
31.0400,2.186
31.0800,2.197
31.1200,2.181
31.1600,2.113
31.2000,2.064
31.2400,2.082
31.2800,1.925
31.3200,1.967
31.3600,1.887
31.4000,1.919
31.4400,1.839
31.4800,1.900
31.5200,1.873
31.5600,1.807
31.6000,1.787
31.6400,1.811
31.6800,1.722
31.7200,1.823
31.7600,1.736
31.8000,1.780
31.8400,1.740
31.8800,1.735
31.9200,1.786
31.9600,1.696
32.0000,1.697
32.0400,1.675
32.0800,1.646
32.1200,1.720
32.1600,1.713
32.2000,1.706
32.2400,1.690
32.2800,1.766
32.3200,1.752
32.3600,1.615
32.4000,1.674
32.4400,1.652
32.4800,1.664
32.5200,1.658
32.5600,1.660
32.6000,1.655
32.6400,1.685
32.6800,1.679
32.7200,1.716
32.7600,1.781
32.8000,1.782
32.8400,1.776
32.8800,1.716
32.9200,1.600
32.9600,1.642
33.0000,1.666
33.0400,1.677
33.0800,1.689
33.1200,1.623
33.1600,1.632
33.2000,1.679
33.2400,1.616
33.2800,1.647
33.3200,1.640
33.3600,1.630
33.4000,1.625
33.4400,1.646
33.4800,1.704
33.5200,1.622
33.5600,1.545
33.6000,1.635
33.6400,1.604
33.6800,1.568
33.7200,1.545
33.7600,1.603
33.8000,1.649
33.8400,1.549
33.8800,1.585
33.9200,1.627
33.9600,1.622
34.0000,1.547
34.0400,1.609
34.0800,1.581
34.1200,1.541
34.1600,1.640
34.2000,1.590
34.2400,1.538
34.2800,1.585
34.3200,1.560
34.3600,1.629
34.4000,1.617
34.4400,1.503
34.4800,1.595
34.5200,1.517
34.5600,1.505
34.6000,1.612
34.6400,1.574
34.6800,1.626
34.7200,1.583
34.7600,1.625
34.8000,1.628
34.8400,1.606
34.8800,1.679
34.9200,1.634
34.9600,1.607
35.0000,1.598
35.0400,1.612
35.0800,1.658
35.1200,1.686
35.1600,1.770
35.2000,1.736
35.2400,1.828
35.2800,1.884
35.3200,1.948
35.3600,2.071
35.4000,2.140
35.4400,2.334
35.4800,2.424
35.5200,2.626
35.5600,2.838
35.6000,2.868
35.6400,2.997
35.6800,3.079
35.7200,3.133
35.7600,3.150
35.8000,3.184
35.8400,3.182
35.8800,2.978
35.9200,2.818
35.9600,2.664
36.0000,2.587
36.0400,2.413
36.0800,2.334
36.1200,2.154
36.1600,2.054
36.2000,2.024
36.2400,1.975
36.2800,1.932
36.3200,1.843
36.3600,1.825
36.4000,1.876
36.4400,1.697
36.4800,1.686
36.5200,1.684
36.5600,1.693
36.6000,1.655
36.6400,1.721
36.6800,1.662
36.7200,1.690
36.7600,1.588
36.8000,1.574
36.8400,1.587
36.8800,1.617
36.9200,1.612
36.9600,1.596
37.0000,1.609
37.0400,1.595
37.0800,1.652
37.1200,1.637
37.1600,1.708
37.2000,1.628
37.2400,1.689
37.2800,1.666
37.3200,1.774
37.3600,1.775
37.4000,1.729
37.4400,1.948
37.4800,2.077
37.5200,2.278
37.5600,2.608
37.6000,2.915
37.6400,3.260
37.6800,3.655
37.7200,3.780
37.7600,3.856
37.8000,3.660
37.8400,3.358
37.8800,3.266
37.9200,2.955
37.9600,2.641
38.0000,2.469
38.0400,2.297
38.0800,2.247
38.1200,2.058
38.1600,1.892
38.2000,1.924
38.2400,1.796
38.2800,1.709
38.3200,1.728
38.3600,1.639
38.4000,1.615
38.4400,1.661
38.4800,1.559
38.5200,1.610
38.5600,1.671
38.6000,1.507
38.6400,1.551
38.6800,1.519
38.7200,1.587
38.7600,1.523
38.8000,1.485
38.8400,1.553
38.8800,1.440
38.9200,1.485
38.9600,1.491
39.0000,1.536
39.0400,1.543
39.0800,1.584
39.1200,1.516
39.1600,1.504
39.2000,1.525
39.2400,1.556
39.2800,1.535
39.3200,1.542
39.3600,1.571
39.4000,1.614
39.4400,1.618
39.4800,1.581
39.5200,1.707
39.5600,1.717
39.6000,1.686
39.6400,1.832
39.6800,1.857
39.7200,1.809
39.7600,1.933
39.8000,1.906
39.8400,1.907
39.8800,1.936
39.9200,2.058
39.9600,2.091
40.0000,2.141
40.0400,2.116
40.0800,2.201
40.1200,2.301
40.1600,2.395
40.2000,2.415
40.2400,2.717
40.2800,2.903
40.3200,3.135
40.3600,3.384
40.4000,3.739
40.4400,3.984
40.4800,4.350
40.5200,4.583
40.5600,4.872
40.6000,4.876
40.6400,4.829
40.6800,4.666
40.7200,4.287
40.7600,3.928
40.8000,3.551
40.8400,3.247
40.8800,2.975
40.9200,2.740
40.9600,2.553
41.0000,2.469
41.0400,2.305
41.0800,2.176
41.1200,2.172
41.1600,2.027
41.2000,2.018
41.2400,1.973
41.2800,1.947
41.3200,1.873
41.3600,1.859
41.4000,1.749
41.4400,1.782
41.4800,1.730
41.5200,1.646
41.5600,1.677
41.6000,1.631
41.6400,1.696
41.6800,1.562
41.7200,1.527
41.7600,1.580
41.8000,1.595
41.8400,1.515
41.8800,1.449
41.9200,1.452
41.9600,1.352
42.0000,1.359
42.0400,1.353
42.0800,1.404
42.1200,1.347
42.1600,1.263
42.2000,1.285
42.2400,1.279
42.2800,1.340
42.3200,1.265
42.3600,1.279
42.4000,1.256
42.4400,1.226
42.4800,1.158
42.5200,1.201
42.5600,1.233
42.6000,1.233
42.6400,1.137
42.6800,1.228
42.7200,1.173
42.7600,1.187
42.8000,1.181
42.8400,1.183
42.8800,1.174
42.9200,1.172
42.9600,1.193
43.0000,1.140
43.0400,1.096
43.0800,1.165
43.1200,1.159
43.1600,1.181
43.2000,1.099
43.2400,1.070
43.2800,1.148
43.3200,1.081
43.3600,1.077
43.4000,1.102
43.4400,1.125
43.4800,1.094
43.5200,1.123
43.5600,1.087
43.6000,1.103
43.6400,1.060
43.6800,1.074
43.7200,1.117
43.7600,1.080
43.8000,1.124
43.8400,1.045
43.8800,1.059
43.9200,1.057
43.9600,1.068
44.0000,1.082
44.0400,1.069
44.0800,1.000
44.1200,1.083
44.1600,1.028
44.2000,1.075
44.2400,1.079
44.2800,1.025
44.3200,1.017
44.3600,1.052
44.4000,1.020
44.4400,1.043
44.4800,1.010
44.5200,1.025
44.5600,1.008
44.6000,1.045
44.6400,1.015
44.6800,1.009
44.7200,1.051
44.7600,1.000
44.8000,1.069
44.8400,1.040
44.8800,1.008
44.9200,1.032
44.9600,0.940
45.0000,1.042
45.0400,0.987
45.0800,0.957
45.1200,0.977
45.1600,0.971
45.2000,1.008
45.2400,0.977
45.2800,0.946
45.3200,1.013
45.3600,0.945
45.4000,0.965
45.4400,1.022
45.4800,1.011
45.5200,1.003
45.5600,1.052
45.6000,1.027
45.6400,1.061
45.6800,1.137
45.7200,1.006
45.7600,1.017
45.8000,1.062
45.8400,1.001
45.8800,1.048
45.9200,1.097
45.9600,1.027
46.0000,1.032
46.0400,0.980
46.0800,1.061
46.1200,0.943
46.1600,0.900
46.2000,0.939
46.2400,0.957
46.2800,0.956
46.3200,1.011
46.3600,0.945
46.4000,0.993
46.4400,0.945
46.4800,0.980
46.5200,0.958
46.5600,0.951
46.6000,0.996
46.6400,0.970
46.6800,0.952
46.7200,0.930
46.7600,0.909
46.8000,0.939
46.8400,0.976
46.8800,0.934
46.9200,0.947
46.9600,0.910
47.0000,0.931
47.0400,0.866
47.0800,0.911
47.1200,0.831
47.1600,0.892
47.2000,0.902
47.2400,0.954
47.2800,0.907
47.3200,0.885
47.3600,0.943
47.4000,0.907
47.4400,0.858
47.4800,0.877
47.5200,0.927
47.5600,0.950
47.6000,0.916
47.6400,0.871
47.6800,0.906
47.7200,0.838
47.7600,0.875
47.8000,0.897
47.8400,0.890
47.8800,0.890
47.9200,0.889
47.9600,0.918
48.0000,0.911
48.0400,0.835
48.0800,0.853
48.1200,0.918
48.1600,0.894
48.2000,0.872
48.2400,0.863
48.2800,0.828
48.3200,0.856
48.3600,0.887
48.4000,0.834
48.4400,0.893
48.4800,0.886
48.5200,0.840
48.5600,0.816
48.6000,0.872
48.6400,0.886
48.6800,0.862
48.7200,0.868
48.7600,0.855
48.8000,0.879
48.8400,0.861
48.8800,0.848
48.9200,0.818
48.9600,0.837
49.0000,0.855
49.0400,0.840
49.0800,0.820
49.1200,0.853
49.1600,0.880
49.2000,0.860
49.2400,0.818
49.2800,0.883
49.3200,0.843
49.3600,0.860
49.4000,0.857
49.4400,0.865
49.4800,0.866
49.5200,0.905
49.5600,0.883
49.6000,0.829
49.6400,0.799
49.6800,0.840
49.7200,0.846
49.7600,0.835
49.8000,0.807
49.8400,0.844
49.8800,0.915
49.9200,0.872
49.9600,0.825
50.0000,0.831
50.0400,0.835
50.0800,0.876
50.1200,0.819
50.1600,0.827
50.2000,0.812
50.2400,0.784
50.2800,0.887
50.3200,0.861
50.3600,0.817
50.4000,0.911
50.4400,0.809
50.4800,0.865
50.5200,0.873
50.5600,0.860
50.6000,0.898
50.6400,0.914
50.6800,0.999
50.7200,0.929
50.7600,0.950
50.8000,0.955
50.8400,0.954
50.8800,0.976
50.9200,1.017
50.9600,1.095
51.0000,1.061
51.0400,1.082
51.0800,1.096
51.1200,1.079
51.1600,1.045
51.2000,1.078
51.2400,1.048
51.2800,1.072
51.3200,1.052
51.3600,0.988
51.4000,1.031
51.4400,0.947
51.4800,0.958
51.5200,0.909
51.5600,0.920
51.6000,0.909
51.6400,0.857
51.6800,0.874
51.7200,0.851
51.7600,0.807
51.8000,0.829
51.8400,0.833
51.8800,0.867
51.9200,0.815
51.9600,0.901
52.0000,0.792
52.0400,0.863
52.0800,0.817
52.1200,0.859
52.1600,0.809
52.2000,0.834
52.2400,0.804
52.2800,0.809
52.3200,0.790
52.3600,0.805
52.4000,0.855
52.4400,0.905
52.4800,0.848
52.5200,0.855
52.5600,0.938
52.6000,0.820
52.6400,0.925
52.6800,0.940
52.7200,0.967
52.7600,0.969
52.8000,1.006
52.8400,1.056
52.8800,1.044
52.9200,1.051
52.9600,1.063
53.0000,0.954
53.0400,0.970
53.0800,0.917
53.1200,0.939
53.1600,0.885
53.2000,0.886
53.2400,0.850
53.2800,0.830
53.3200,0.816
53.3600,0.784
53.4000,0.811
53.4400,0.786
53.4800,0.792
53.5200,0.806
53.5600,0.799
53.6000,0.761
53.6400,0.763
53.6800,0.758
53.7200,0.733
53.7600,0.779
53.8000,0.716
53.8400,0.730
53.8800,0.709
53.9200,0.710
53.9600,0.723
54.0000,0.712
54.0400,0.726
54.0800,0.728
54.1200,0.700
54.1600,0.708
54.2000,0.767
54.2400,0.718
54.2800,0.709
54.3200,0.730
54.3600,0.721
54.4000,0.698
54.4400,0.698
54.4800,0.693
54.5200,0.762
54.5600,0.704
54.6000,0.685
54.6400,0.682
54.6800,0.705
54.7200,0.719
54.7600,0.681
54.8000,0.661
54.8400,0.686
54.8800,0.693
54.9200,0.701
54.9600,0.668
55.0000,0.734
55.0400,0.691
55.0800,0.689
55.1200,0.743
55.1600,0.695
55.2000,0.674
55.2400,0.724
55.2800,0.695
55.3200,0.707
55.3600,0.678
55.4000,0.709
55.4400,0.676
55.4800,0.679
55.5200,0.657
55.5600,0.667
55.6000,0.706
55.6400,0.696
55.6800,0.696
55.7200,0.741
55.7600,0.690
55.8000,0.680
55.8400,0.695
55.8800,0.732
55.9200,0.716
55.9600,0.668
56.0000,0.703
56.0400,0.712
56.0800,0.675
56.1200,0.706
56.1600,0.688
56.2000,0.675
56.2400,0.722
56.2800,0.692
56.3200,0.708
56.3600,0.714
56.4000,0.657
56.4400,0.669
56.4800,0.685
56.5200,0.662
56.5600,0.668
56.6000,0.692
56.6400,0.664
56.6800,0.660
56.7200,0.699
56.7600,0.701
56.8000,0.635
56.8400,0.676
56.8800,0.665
56.9200,0.668
56.9600,0.630
57.0000,0.653
57.0400,0.636
57.0800,0.619
57.1200,0.655
57.1600,0.672
57.2000,0.611
57.2400,0.642
57.2800,0.656
57.3200,0.645
57.3600,0.629
57.4000,0.606
57.4400,0.631
57.4800,0.621
57.5200,0.635
57.5600,0.637
57.6000,0.653
57.6400,0.620
57.6800,0.632
57.7200,0.693
57.7600,0.613
57.8000,0.599
57.8400,0.620
57.8800,0.606
57.9200,0.643
57.9600,0.612
58.0000,0.619
58.0400,0.627
58.0800,0.630
58.1200,0.656
58.1600,0.619
58.2000,0.573
58.2400,0.599
58.2800,0.605
58.3200,0.618
58.3600,0.606
58.4000,0.619
58.4400,0.647
58.4800,0.589
58.5200,0.590
58.5600,0.659
58.6000,0.604
58.6400,0.608
58.6800,0.620
58.7200,0.614
58.7600,0.617
58.8000,0.643
58.8400,0.609
58.8800,0.563
58.9200,0.628
58.9600,0.564
59.0000,0.641
59.0400,0.658
59.0800,0.605
59.1200,0.635
59.1600,0.623
59.2000,0.611
59.2400,0.638
59.2800,0.608
59.3200,0.603
59.3600,0.657
59.4000,0.601
59.4400,0.640
59.4800,0.647
59.5200,0.642
59.5600,0.586
59.6000,0.654
59.6400,0.587
59.6800,0.602
59.7200,0.610
59.7600,0.619
59.8000,0.546
59.8400,0.595
59.8800,0.630
59.9200,0.650
59.9600,0.637
60.0000,0.619
60.0400,0.619
60.0800,0.607
60.1200,0.593
60.1600,0.626
60.2000,0.630
60.2400,0.646
60.2800,0.650
60.3200,0.651
60.3600,0.664
60.4000,0.690
60.4400,0.717
60.4800,0.707
60.5200,0.701
60.5600,0.768
60.6000,0.739
60.6400,0.731
60.6800,0.753
60.7200,0.725
60.7600,0.730
60.8000,0.731
60.8400,0.755
60.8800,0.700
60.9200,0.698
60.9600,0.685
61.0000,0.706
61.0400,0.692
61.0800,0.652
61.1200,0.703
61.1600,0.648
61.2000,0.658
61.2400,0.626
61.2800,0.616
61.3200,0.631
61.3600,0.622
61.4000,0.618
61.4400,0.584
61.4800,0.631
61.5200,0.568
61.5600,0.603
61.6000,0.574
61.6400,0.569
61.6800,0.611
61.7200,0.663
61.7600,0.707
61.8000,0.629
61.8400,0.601
61.8800,0.581
61.9200,0.557
61.9600,0.567
62.0000,0.613
62.0400,0.568
62.0800,0.593
62.1200,0.604
62.1600,0.606
62.2000,0.612
62.2400,0.624
62.2800,0.619
62.3200,0.555
62.3600,0.591
62.4000,0.614
62.4400,0.564
62.4800,0.625
62.5200,0.573
62.5600,0.555
62.6000,0.534
62.6400,0.569
62.6800,0.584
62.7200,0.573
62.7600,0.583
62.8000,0.577
62.8400,0.593
62.8800,0.586
62.9200,0.609
62.9600,0.636
63.0000,0.600
63.0400,0.595
63.0800,0.570
63.1200,0.578
63.1600,0.597
63.2000,0.603
63.2400,0.604
63.2800,0.580
63.3200,0.636
63.3600,0.603
63.4000,0.614
63.4400,0.688
63.4800,0.649
63.5200,0.698
63.5600,0.706
63.6000,0.712
63.6400,0.766
63.6800,0.741
63.7200,0.777
63.7600,0.821
63.8000,0.876
63.8400,0.887
63.8800,0.979
63.9200,0.954
63.9600,0.995
64.0000,1.089
64.0400,1.069
64.0800,1.102
64.1200,1.126
64.1600,1.112
64.2000,1.162
64.2400,1.192
64.2800,1.171
64.3200,1.182
64.3600,1.086
64.4000,1.023
64.4400,0.950
64.4800,0.883
64.5200,0.864
64.5600,0.816
64.6000,0.792
64.6400,0.767
64.6800,0.754
64.7200,0.690
64.7600,0.689
64.8000,0.684
64.8400,0.676
64.8800,0.649
64.9200,0.662
64.9600,0.668
65.0000,0.658
65.0400,0.597
65.0800,0.641
65.1200,0.622
65.1600,0.637
65.2000,0.663
65.2400,0.684
65.2800,0.682
65.3200,0.634
65.3600,0.636
65.4000,0.640
65.4400,0.693
65.4800,0.691
65.5200,0.629
65.5600,0.645
65.6000,0.660
65.6400,0.690
65.6800,0.674
65.7200,0.652
65.7600,0.668
65.8000,0.715
65.8400,0.688
65.8800,0.731
65.9200,0.683
65.9600,0.662
66.0000,0.688
66.0400,0.688
66.0800,0.724
66.1200,0.683
66.1600,0.731
66.2000,0.775
66.2400,0.764
66.2800,0.750
66.3200,0.753
66.3600,0.781
66.4000,0.796
66.4400,0.790
66.4800,0.796
66.5200,0.815
66.5600,0.834
66.6000,0.815
66.6400,0.836
66.6800,0.836
66.7200,0.893
66.7600,0.883
66.8000,0.809
66.8400,0.893
66.8800,0.878
66.9200,0.900
66.9600,0.913
67.0000,0.894
67.0400,0.977
67.0800,0.946
67.1200,0.989
67.1600,0.980
67.2000,1.029
67.2400,1.004
67.2800,1.020
67.3200,1.051
67.3600,1.115
67.4000,1.081
67.4400,1.035
67.4800,1.152
67.5200,1.146
67.5600,1.189
67.6000,1.185
67.6400,1.210
67.6800,1.258
67.7200,1.241
67.7600,1.339
67.8000,1.337
67.8400,1.349
67.8800,1.409
67.9200,1.435
67.9600,1.522
68.0000,1.522
68.0400,1.549
68.0800,1.579
68.1200,1.629
68.1600,1.664
68.2000,1.769
68.2400,1.790
68.2800,1.771
68.3200,1.843
68.3600,1.939
68.4000,1.989
68.4400,2.020
68.4800,2.168
68.5200,2.248
68.5600,2.395
68.6000,2.527
68.6400,2.673
68.6800,2.832
68.7200,3.052
68.7600,3.359
68.8000,4.071
68.8400,5.380
68.8800,6.705
68.9200,7.422
68.9600,7.684
69.0000,8.162
69.0400,10.031
69.0800,14.693
69.1200,26.236
69.1600,80.362
69.2000,356.775
69.2400,518.568
69.2800,244.918
69.3200,63.212
69.3600,66.804
69.4000,202.300
69.4400,263.906
69.4800,120.780
69.5200,30.818
69.5600,14.663
69.6000,9.910
69.6400,7.632
69.6800,6.317
69.7200,5.515
69.7600,4.856
69.8000,4.446
69.8400,4.079
69.8800,3.635
69.9200,3.491
69.9600,3.274
70.0000,2.989
70.0400,2.899
70.0800,2.762
70.1200,2.749
70.1600,2.681
70.2000,2.550
70.2400,2.360
70.2800,2.203
70.3200,2.182
70.3600,2.111
70.4000,1.962
70.4400,2.019
70.4800,1.840
70.5200,1.800
70.5600,1.751
70.6000,1.639
70.6400,1.647
70.6800,1.513
70.7200,1.584
70.7600,1.502
70.8000,1.486
70.8400,1.391
70.8800,1.383
70.9200,1.265
70.9600,1.288
71.0000,1.210
71.0400,1.214
71.0800,1.249
71.1200,1.202
71.1600,1.236
71.2000,1.113
71.2400,1.112
71.2800,1.080
71.3200,1.070
71.3600,1.023
71.4000,1.073
71.4400,0.965
71.4800,0.938
71.5200,0.906
71.5600,0.894
71.6000,0.924
71.6400,0.913
71.6800,0.862
71.7200,0.819
71.7600,0.850
71.8000,0.873
71.8400,0.869
71.8800,0.825
71.9200,0.794
71.9600,0.765
72.0000,0.762
72.0400,0.729
72.0800,0.751
72.1200,0.689
72.1600,0.689
72.2000,0.697
72.2400,0.681
72.2800,0.673
72.3200,0.681
72.3600,0.637
72.4000,0.646
72.4400,0.612
72.4800,0.639
72.5200,0.599
72.5600,0.602
72.6000,0.610
72.6400,0.593
72.6800,0.573
72.7200,0.600
72.7600,0.609
72.8000,0.604
72.8400,0.582
72.8800,0.540
72.9200,0.534
72.9600,0.558
73.0000,0.526
73.0400,0.562
73.0800,0.557
73.1200,0.541
73.1600,0.539
73.2000,0.550
73.2400,0.526
73.2800,0.516
73.3200,0.537
73.3600,0.534
73.4000,0.520
73.4400,0.513
73.4800,0.477
73.5200,0.502
73.5600,0.472
73.6000,0.497
73.6400,0.504
73.6800,0.452
73.7200,0.503
73.7600,0.501
73.8000,0.464
73.8400,0.448
73.8800,0.470
73.9200,0.503
73.9600,0.466
74.0000,0.447
74.0400,0.472
74.0800,0.439
74.1200,0.508
74.1600,0.458
74.2000,0.439
74.2400,0.435
74.2800,0.458
74.3200,0.444
74.3600,0.454
74.4000,0.425
74.4400,0.427
74.4800,0.449
74.5200,0.449
74.5600,0.461
74.6000,0.443
74.6400,0.471
74.6800,0.476
74.7200,0.416
74.7600,0.419
74.8000,0.435
74.8400,0.472
74.8800,0.451
74.9200,0.453
74.9600,0.460
75.0000,0.467
75.0400,0.502
75.0800,0.492
75.1200,0.478
75.1600,0.534
75.2000,0.498
75.2400,0.499
75.2800,0.479
75.3200,0.522
75.3600,0.505
75.4000,0.478
75.4400,0.518
75.4800,0.504
75.5200,0.514
75.5600,0.485
75.6000,0.458
75.6400,0.494
75.6800,0.485
75.7200,0.473
75.7600,0.511
75.8000,0.512
75.8400,0.485
75.8800,0.489
75.9200,0.485
75.9600,0.475
76.0000,0.460
76.0400,0.479
76.0800,0.475
76.1200,0.444
76.1600,0.495
76.2000,0.513
76.2400,0.468
76.2800,0.501
76.3200,0.530
76.3600,0.505
76.4000,0.565
76.4400,0.589
76.4800,0.549
76.5200,0.608
76.5600,0.693
76.6000,0.656
76.6400,0.739
76.6800,0.684
76.7200,0.793
76.7600,0.809
76.8000,0.760
76.8400,0.864
76.8800,0.810
76.9200,0.801
76.9600,0.762
77.0000,0.738
77.0400,0.727
77.0800,0.745
77.1200,0.654
77.1600,0.631
77.2000,0.624
77.2400,0.606
77.2800,0.522
77.3200,0.561
77.3600,0.512
77.4000,0.513
77.4400,0.484
77.4800,0.476
77.5200,0.442
77.5600,0.432
77.6000,0.497
77.6400,0.484
77.6800,0.445
77.7200,0.463
77.7600,0.442
77.8000,0.424
77.8400,0.451
77.8800,0.463
77.9200,0.457
77.9600,0.494
78.0000,0.529
78.0400,0.522
78.0800,0.538
78.1200,0.549
78.1600,0.557
78.2000,0.553
78.2400,0.565
78.2800,0.636
78.3200,0.632
78.3600,0.648
78.4000,0.677
78.4400,0.689
78.4800,0.683
78.5200,0.720
78.5600,0.705
78.6000,0.659
78.6400,0.684
78.6800,0.705
78.7200,0.665
78.7600,0.662
78.8000,0.622
78.8400,0.636
78.8800,0.578
78.9200,0.597
78.9600,0.590
79.0000,0.569
79.0400,0.508
79.0800,0.513
79.1200,0.462
79.1600,0.485
79.2000,0.464
79.2400,0.450
79.2800,0.389
79.3200,0.438
79.3600,0.375
79.4000,0.421
79.4400,0.398
79.4800,0.377
79.5200,0.373
79.5600,0.386
79.6000,0.397
79.6400,0.356
79.6800,0.377
79.7200,0.329
79.7600,0.347
79.8000,0.332
79.8400,0.313
79.8800,0.374
79.9200,0.327
79.9600,0.332
80.0000,0.345
