theta,intensity
5.0000,6.332
5.0400,6.339
5.0800,6.267
5.1200,6.364
5.1600,6.160
5.2000,6.276
5.2400,6.243
5.2800,6.068
5.3200,6.051
5.3600,6.079
5.4000,6.003
5.4400,5.976
5.4800,5.831
5.5200,5.870
5.5600,5.770
5.6000,5.812
5.6400,5.816
5.6800,5.648
5.7200,5.701
5.7600,5.488
5.8000,5.621
5.8400,5.512
5.8800,5.332
5.9200,5.305
5.9600,5.207
6.0000,5.049
6.0400,5.049
6.0800,4.954
6.1200,4.938
6.1600,4.830
6.2000,4.858
6.2400,4.651
6.2800,4.592
6.3200,4.546
6.3600,4.377
6.4000,4.495
6.4400,4.310
6.4800,4.167
6.5200,4.170
6.5600,4.208
6.6000,4.181
6.6400,4.236
6.6800,4.174
6.7200,4.173
6.7600,4.086
6.8000,4.004
6.8400,4.148
6.8800,4.103
6.9200,4.072
6.9600,4.116
7.0000,4.045
7.0400,4.089
7.0800,4.202
7.1200,4.025
7.1600,4.108
7.2000,4.055
7.2400,3.927
7.2800,4.060
7.3200,4.026
7.3600,3.997
7.4000,4.013
7.4400,3.958
7.4800,3.875
7.5200,3.982
7.5600,4.071
7.6000,3.837
7.6400,3.915
7.6800,3.977
7.7200,3.947
7.7600,3.919
7.8000,3.902
7.8400,3.951
7.8800,3.873
7.9200,3.838
7.9600,3.970
8.0000,3.829
8.0400,3.853
8.0800,4.002
8.1200,3.807
8.1600,3.837
8.2000,3.861
8.2400,3.815
8.2800,3.832
8.3200,3.855
8.3600,3.752
8.4000,3.783
8.4400,3.861
8.4800,3.792
8.5200,3.845
8.5600,3.754
8.6000,3.836
8.6400,3.792
8.6800,3.742
8.7200,3.765
8.7600,3.874
8.8000,3.679
8.8400,3.783
8.8800,3.881
8.9200,3.821
8.9600,3.681
9.0000,3.736
9.0400,3.770
9.0800,3.866
9.1200,3.686
9.1600,3.742
9.2000,3.754
9.2400,3.655
9.2800,3.651
9.3200,3.834
9.3600,3.696
9.4000,3.746
9.4400,3.706
9.4800,3.802
9.5200,3.752
9.5600,3.712
9.6000,3.731
9.6400,3.602
9.6800,3.707
9.7200,3.715
9.7600,3.693
9.8000,3.648
9.8400,3.610
9.8800,3.697
9.9200,3.559
9.9600,3.662
10.0000,3.581
10.0400,3.617
10.0800,3.727
10.1200,3.677
10.1600,3.681
10.2000,3.666
10.2400,3.618
10.2800,3.605
10.3200,3.568
10.3600,3.557
10.4000,3.560
10.4400,3.650
10.4800,3.622
10.5200,3.570
10.5600,3.669
10.6000,3.589
10.6400,3.587
10.6800,3.465
10.7200,3.550
10.7600,3.513
10.8000,3.559
10.8400,3.535
10.8800,3.540
10.9200,3.531
10.9600,3.464
11.0000,3.593
11.0400,3.656
11.0800,3.554
11.1200,3.484
11.1600,3.574
11.2000,3.453
11.2400,3.507
11.2800,3.474
11.3200,3.534
11.3600,3.431
11.4000,3.446
11.4400,3.575
11.4800,3.546
11.5200,3.572
11.5600,3.604
11.6000,3.513
11.6400,3.554
11.6800,3.506
11.7200,3.459
11.7600,3.489
11.8000,3.399
11.8400,3.451
11.8800,3.492
11.9200,3.497
11.9600,3.408
12.0000,3.513
12.0400,3.480
12.0800,3.334
12.1200,3.472
12.1600,3.287
12.2000,3.358
12.2400,3.507
12.2800,3.450
12.3200,3.373
12.3600,3.261
12.4000,3.451
12.4400,3.359
12.4800,3.501
12.5200,3.372
12.5600,3.405
12.6000,3.390
12.6400,3.334
12.6800,3.293
12.7200,3.427
12.7600,3.404
12.8000,3.354
12.8400,3.219
12.8800,3.327
12.9200,3.272
12.9600,3.356
13.0000,3.330
13.0400,3.347
13.0800,3.400
13.1200,3.321
13.1600,3.375
13.2000,3.400
13.2400,3.338
13.2800,3.387
13.3200,3.370
13.3600,3.307
13.4000,3.260
13.4400,3.279
13.4800,3.476
13.5200,3.411
13.5600,3.290
13.6000,3.321
13.6400,3.262
13.6800,3.287
13.7200,3.264
13.7600,3.244
13.8000,3.297
13.8400,3.175
13.8800,3.243
13.9200,3.199
13.9600,3.310
14.0000,3.351
14.0400,3.189
14.0800,3.166
14.1200,3.183
14.1600,3.211
14.2000,3.250
14.2400,3.162
14.2800,3.170
14.3200,3.226
14.3600,3.149
14.4000,3.212
14.4400,3.090
14.4800,3.178
14.5200,3.175
14.5600,3.214
14.6000,3.163
14.6400,3.138
14.6800,3.204
14.7200,3.112
14.7600,3.312
14.8000,3.193
14.8400,3.219
14.8800,3.113
14.9200,3.136
14.9600,3.150
15.0000,3.030
15.0400,2.997
15.0800,3.039
15.1200,3.159
15.1600,3.027
15.2000,3.135
15.2400,3.114
15.2800,3.035
15.3200,3.186
15.3600,3.064
15.4000,3.175
15.4400,3.099
15.4800,3.154
15.5200,3.203
15.5600,3.058
15.6000,3.178
15.6400,3.068
15.6800,3.107
15.7200,3.006
15.7600,3.059
15.8000,3.067
15.8400,3.097
15.8800,3.073
15.9200,3.026
15.9600,3.158
16.0000,2.952
16.0400,3.023
16.0800,3.041
16.1200,3.048
16.1600,3.015
16.2000,3.031
16.2400,3.010
16.2800,2.929
16.3200,3.036
16.3600,2.956
16.4000,3.077
16.4400,2.973
16.4800,3.033
16.5200,3.085
16.5600,3.030
16.6000,3.060
16.6400,3.061
16.6800,3.069
16.7200,3.130
16.7600,2.975
16.8000,2.951
16.8400,2.914
16.8800,3.005
16.9200,2.951
16.9600,2.866
17.0000,3.017
17.0400,2.891
17.0800,2.948
17.1200,3.002
17.1600,2.960
17.2000,2.990
17.2400,3.017
17.2800,2.887
17.3200,3.004
17.3600,3.003
17.4000,2.925
17.4400,2.964
17.4800,2.793
17.5200,2.881
17.5600,2.975
17.6000,2.897
17.6400,2.818
17.6800,2.895
17.7200,2.914
17.7600,2.909
17.8000,2.869
17.8400,2.987
17.8800,2.903
17.9200,2.835
17.9600,2.909
18.0000,2.877
18.0400,2.902
18.0800,2.914
18.1200,2.890
18.1600,2.830
18.2000,2.879
18.2400,2.851
18.2800,2.898
18.3200,2.850
18.3600,2.784
18.4000,2.813
18.4400,2.870
18.4800,2.839
18.5200,2.823
18.5600,2.897
18.6000,2.809
18.6400,2.885
18.6800,2.770
18.7200,2.757
18.7600,2.816
18.8000,2.818
18.8400,2.771
18.8800,2.797
18.9200,2.822
18.9600,2.857
19.0000,2.878
19.0400,2.742
19.0800,2.830
19.1200,2.776
19.1600,2.780
19.2000,2.752
19.2400,2.731
19.2800,2.798
19.3200,2.717
19.3600,2.744
19.4000,2.672
19.4400,2.705
19.4800,2.753
19.5200,2.715
19.5600,2.685
19.6000,2.801
19.6400,2.771
19.6800,2.725
19.7200,2.704
19.7600,2.746
19.8000,2.794
19.8400,2.678
19.8800,2.684
19.9200,2.618
19.9600,2.695
20.0000,2.717
20.0400,2.802
20.0800,2.651
20.1200,2.671
20.1600,2.654
20.2000,2.678
20.2400,2.680
20.2800,2.613
20.3200,2.689
20.3600,2.652
20.4000,2.712
20.4400,2.712
20.4800,2.683
20.5200,2.591
20.5600,2.615
20.6000,2.640
20.6400,2.645
20.6800,2.587
20.7200,2.540
20.7600,2.650
20.8000,2.479
20.8400,2.671
20.8800,2.665
20.9200,2.677
20.9600,2.619
21.0000,2.608
21.0400,2.657
21.0800,2.593
21.1200,2.615
21.1600,2.599
21.2000,2.615
21.2400,2.582
21.2800,2.601
21.3200,2.662
21.3600,2.576
21.4000,2.536
21.4400,2.602
21.4800,2.543
21.5200,2.585
21.5600,2.537
21.6000,2.567
21.6400,2.553
21.6800,2.582
21.7200,2.577
21.7600,2.510
21.8000,2.632
21.8400,2.586
21.8800,2.510
21.9200,2.518
21.9600,2.572
22.0000,2.546
22.0400,2.626
22.0800,2.540
22.1200,2.531
22.1600,2.543
22.2000,2.503
22.2400,2.491
22.2800,2.569
22.3200,2.418
22.3600,2.520
22.4000,2.522
22.4400,2.545
22.4800,2.603
22.5200,2.491
22.5600,2.434
22.6000,2.562
22.6400,2.444
22.6800,2.564
22.7200,2.562
22.7600,2.560
22.8000,2.530
22.8400,2.382
22.8800,2.523
22.9200,2.531
22.9600,2.504
23.0000,2.494
23.0400,2.539
23.0800,2.442
23.1200,2.485
23.1600,2.384
23.2000,2.403
23.2400,2.458
23.2800,2.455
23.3200,2.468
23.3600,2.467
23.4000,2.476
23.4400,2.419
23.4800,2.446
23.5200,2.476
23.5600,2.401
23.6000,2.377
23.6400,2.394
23.6800,2.387
23.7200,2.352
23.7600,2.460
23.8000,2.455
23.8400,2.321
23.8800,2.398
23.9200,2.419
23.9600,2.313
24.0000,2.412
24.0400,2.391
24.0800,2.461
24.1200,2.379
24.1600,2.427
24.2000,2.368
24.2400,2.363
24.2800,2.395
24.3200,2.472
24.3600,2.412
24.4000,2.302
24.4400,2.382
24.4800,2.326
24.5200,2.315
24.5600,2.338
24.6000,2.381
24.6400,2.373
24.6800,2.270
24.7200,2.376
24.7600,2.265
24.8000,2.294
24.8400,2.355
24.8800,2.264
24.9200,2.323
24.9600,2.416
25.0000,2.277
25.0400,2.372
25.0800,2.352
25.1200,2.338
25.1600,2.351
25.2000,2.306
25.2400,2.305
25.2800,2.226
25.3200,2.392
25.3600,2.260
25.4000,2.340
25.4400,2.285
25.4800,2.216
25.5200,2.291
25.5600,2.281
25.6000,2.261
25.6400,2.273
25.6800,2.298
25.7200,2.275
25.7600,2.316
25.8000,2.297
25.8400,2.267
25.8800,2.285
25.9200,2.279
25.9600,2.196
26.0000,2.315
26.0400,2.210
26.0800,2.245
26.1200,2.189
26.1600,2.306
26.2000,2.225
26.2400,2.230
26.2800,2.202
26.3200,2.237
26.3600,2.238
26.4000,2.241
26.4400,2.206
26.4800,2.130
26.5200,2.245
26.5600,2.270
26.6000,2.184
26.6400,2.202
26.6800,2.268
26.7200,2.204
26.7600,2.240
26.8000,2.218
26.8400,2.253
26.8800,2.237
26.9200,2.216
26.9600,2.158
27.0000,2.184
27.0400,2.193
27.0800,2.244
27.1200,2.227
27.1600,2.190
27.2000,2.148
27.2400,2.219
27.2800,2.198
27.3200,2.162
27.3600,2.123
27.4000,2.179
27.4400,2.184
27.4800,2.192
27.5200,2.156
27.5600,2.089
27.6000,2.213
27.6400,2.140
27.6800,2.220
27.7200,2.148
27.7600,2.160
27.8000,2.142
27.8400,2.111
27.8800,2.194
27.9200,2.062
27.9600,2.142
28.0000,2.193
28.0400,2.171
28.0800,2.133
28.1200,2.089
28.1600,2.096
28.2000,2.042
28.2400,2.091
28.2800,2.159
28.3200,2.032
28.3600,2.113
28.4000,2.060
28.4400,2.052
28.4800,2.035
28.5200,2.098
28.5600,2.087
28.6000,2.115
28.6400,2.113
28.6800,2.126
28.7200,2.054
28.7600,2.127
28.8000,2.002
28.8400,2.016
28.8800,2.032
28.9200,2.000
28.9600,2.053
29.0000,2.048
29.0400,2.027
29.0800,2.037
29.1200,2.071
29.1600,2.041
29.2000,2.008
29.2400,2.045
29.2800,1.895
29.3200,1.988
29.3600,1.999
29.4000,2.065
29.4400,2.010
29.4800,2.018
29.5200,2.063
29.5600,1.979
29.6000,2.035
29.6400,2.007
29.6800,2.011
29.7200,2.009
29.7600,2.007
29.8000,2.026
29.8400,2.029
29.8800,1.978
29.9200,2.076
29.9600,2.025
30.0000,1.940
30.0400,1.989
30.0800,1.924
30.1200,1.980
30.1600,1.991
30.2000,1.972
30.2400,1.992
30.2800,2.043
30.3200,1.898
30.3600,1.928
30.4000,1.981
30.4400,1.874
30.4800,1.963
30.5200,1.993
30.5600,1.887
30.6000,1.904
30.6400,1.954
30.6800,1.933
30.7200,1.976
30.7600,1.964
30.8000,1.893
30.8400,1.897
30.8800,1.990
30.9200,1.914
30.9600,1.997
31.0000,1.940
31.0400,1.902
31.0800,1.964
31.1200,1.921
31.1600,1.896
31.2000,2.005
31.2400,1.900
31.2800,1.957
31.3200,1.899
31.3600,1.865
31.4000,1.851
31.4400,1.869
31.4800,1.866
31.5200,1.924
31.5600,1.952
31.6000,1.931
31.6400,1.942
31.6800,1.870
31.7200,1.876
31.7600,1.881
31.8000,1.907
31.8400,1.915
31.8800,1.845
31.9200,1.881
31.9600,1.898
32.0000,1.794
32.0400,1.909
32.0800,1.915
32.1200,1.864
32.1600,1.888
32.2000,1.895
32.2400,1.900
32.2800,1.854
32.3200,1.821
32.3600,1.866
32.4000,1.865
32.4400,1.869
32.4800,1.911
32.5200,1.776
32.5600,1.779
32.6000,1.856
32.6400,1.835
32.6800,1.919
32.7200,1.901
32.7600,1.881
32.8000,1.873
32.8400,1.920
32.8800,1.866
32.9200,1.925
32.9600,1.948
33.0000,2.501
33.0400,3.791
33.0800,3.435
33.1200,2.302
33.1600,1.938
33.2000,1.922
33.2400,1.832
33.2800,1.804
33.3200,1.870
33.3600,1.882
33.4000,1.828
33.4400,1.799
33.4800,1.756
33.5200,1.829
33.5600,1.801
33.6000,1.727
33.6400,1.775
33.6800,1.805
33.7200,1.740
33.7600,1.782
33.8000,1.823
33.8400,1.848
33.8800,1.703
33.9200,1.714
33.9600,1.757
34.0000,1.751
34.0400,1.792
34.0800,1.777
34.1200,1.779
34.1600,1.794
34.2000,1.769
34.2400,1.686
34.2800,1.742
34.3200,1.719
34.3600,1.725
34.4000,1.738
34.4400,1.765
34.4800,1.769
34.5200,1.781
34.5600,1.711
34.6000,1.753
34.6400,1.678
34.6800,1.805
34.7200,1.796
34.7600,1.764
34.8000,1.804
34.8400,1.736
34.8800,1.729
34.9200,1.765
34.9600,1.693
35.0000,1.810
35.0400,1.686
35.0800,1.724
35.1200,1.764
35.1600,1.761
35.2000,1.709
35.2400,1.737
35.2800,1.756
35.3200,1.704
35.3600,1.786
35.4000,1.719
35.4400,1.756
35.4800,1.797
35.5200,1.738
35.5600,1.649
35.6000,1.785
35.6400,1.758
35.6800,1.707
35.7200,1.689
35.7600,1.748
35.8000,1.689
35.8400,1.769
35.8800,1.725
35.9200,1.725
35.9600,1.782
36.0000,1.844
36.0400,1.790
36.0800,1.821
36.1200,1.860
36.1600,1.850
36.2000,1.753
36.2400,1.759
36.2800,1.714
36.3200,1.758
36.3600,1.754
36.4000,1.739
36.4400,1.824
36.4800,1.786
36.5200,1.801
36.5600,1.881
36.6000,1.783
36.6400,1.762
36.6800,1.819
36.7200,1.728
36.7600,1.808
36.8000,1.815
36.8400,1.779
36.8800,1.858
36.9200,1.817
36.9600,1.928
37.0000,1.872
37.0400,1.991
37.0800,1.920
37.1200,1.967
37.1600,1.983
37.2000,2.029
37.2400,2.013
37.2800,2.129
37.3200,2.081
37.3600,2.086
37.4000,2.167
37.4400,2.263
37.4800,2.364
37.5200,2.437
37.5600,2.571
37.6000,2.551
37.6400,2.775
37.6800,2.982
37.7200,3.144
37.7600,3.515
37.8000,3.721
37.8400,4.181
37.8800,4.724
37.9200,5.496
37.9600,6.344
38.0000,7.313
38.0400,8.655
38.0800,9.534
38.1200,9.861
38.1600,9.742
38.2000,8.969
38.2400,7.978
38.2800,7.151
38.3200,6.139
38.3600,5.174
38.4000,4.604
38.4400,4.090
38.4800,3.688
38.5200,3.352
38.5600,3.098
38.6000,2.984
38.6400,2.758
38.6800,2.498
38.7200,2.528
38.7600,2.382
38.8000,2.347
38.8400,2.260
38.8800,2.194
38.9200,2.290
38.9600,2.128
39.0000,2.077
39.0400,1.963
39.0800,1.865
39.1200,1.868
39.1600,1.783
39.2000,1.718
39.2400,1.752
39.2800,1.727
39.3200,1.668
39.3600,1.674
39.4000,1.632
39.4400,1.664
39.4800,1.645
39.5200,1.621
39.5600,1.661
39.6000,1.609
39.6400,1.559
39.6800,1.553
39.7200,1.541
39.7600,1.545
39.8000,1.569
39.8400,1.544
39.8800,1.603
39.9200,1.470
39.9600,1.558
40.0000,1.469
40.0400,1.507
40.0800,1.555
40.1200,1.564
40.1600,1.614
40.2000,1.558
40.2400,1.557
40.2800,1.533
40.3200,1.481
40.3600,1.459
40.4000,1.416
40.4400,1.508
40.4800,1.365
40.5200,1.417
40.5600,1.418
40.6000,1.376
40.6400,1.426
40.6800,1.408
40.7200,1.444
40.7600,1.447
40.8000,1.375
40.8400,1.422
40.8800,1.381
40.9200,1.409
40.9600,1.397
41.0000,1.393
41.0400,1.404
41.0800,1.354
41.1200,1.361
41.1600,1.328
41.2000,1.358
41.2400,1.401
41.2800,1.304
41.3200,1.371
41.3600,1.316
41.4000,1.351
41.4400,1.294
41.4800,1.331
41.5200,1.377
41.5600,1.334
41.6000,1.252
41.6400,1.267
41.6800,1.304
41.7200,1.333
41.7600,1.345
41.8000,1.301
41.8400,1.313
41.8800,1.357
41.9200,1.335
41.9600,1.292
42.0000,1.362
42.0400,1.336
42.0800,1.373
42.1200,1.363
42.1600,1.328
42.2000,1.278
42.2400,1.275
42.2800,1.289
42.3200,1.289
42.3600,1.315
42.4000,1.361
42.4400,1.311
42.4800,1.256
42.5200,1.349
42.5600,1.359
42.6000,1.363
42.6400,1.304
42.6800,1.338
42.7200,1.319
42.7600,1.304
42.8000,1.325
42.8400,1.367
42.8800,1.324
42.9200,1.275
42.9600,1.296
43.0000,1.417
43.0400,1.392
43.0800,1.371
43.1200,1.315
43.1600,1.398
43.2000,1.433
43.2400,1.380
43.2800,1.339
43.3200,1.409
43.3600,1.478
43.4000,1.406
43.4400,1.525
43.4800,1.494
43.5200,1.521
43.5600,1.565
43.6000,1.561
43.6400,1.613
43.6800,1.648
43.7200,1.692
43.7600,1.736
43.8000,1.777
43.8400,1.861
43.8800,1.896
43.9200,1.986
43.9600,2.170
44.0000,2.172
44.0400,2.248
44.0800,2.383
44.1200,2.511
44.1600,2.646
44.2000,2.701
44.2400,2.861
44.2800,2.880
44.3200,3.027
44.3600,2.947
44.4000,2.872
44.4400,2.759
44.4800,2.596
44.5200,2.539
44.5600,2.278
44.6000,2.135
44.6400,2.076
44.6800,1.963
44.7200,1.819
44.7600,1.829
44.8000,1.714
44.8400,1.645
44.8800,1.509
44.9200,1.492
44.9600,1.474
45.0000,1.392
45.0400,1.324
45.0800,1.382
45.1200,1.320
45.1600,1.268
45.2000,1.251
45.2400,1.215
45.2800,1.217
45.3200,1.204
45.3600,1.174
45.4000,1.251
45.4400,1.214
45.4800,1.180
45.5200,1.140
45.5600,1.135
45.6000,1.178
45.6400,1.124
45.6800,1.086
45.7200,1.107
45.7600,1.061
45.8000,1.060
45.8400,1.077
45.8800,1.115
45.9200,1.073
45.9600,1.051
46.0000,1.004
46.0400,0.999
46.0800,1.019
46.1200,1.045
46.1600,1.020
46.2000,1.028
46.2400,1.004
46.2800,0.953
46.3200,1.050
46.3600,1.040
46.4000,0.990
46.4400,1.037
46.4800,0.985
46.5200,1.010
46.5600,0.978
46.6000,0.959
46.6400,1.009
46.6800,0.979
46.7200,0.995
46.7600,0.950
46.8000,0.971
46.8400,0.965
46.8800,1.012
46.9200,0.995
46.9600,0.960
47.0000,0.951
47.0400,0.953
47.0800,0.930
47.1200,0.942
47.1600,0.927
47.2000,0.934
47.2400,0.943
47.2800,0.933
47.3200,0.949
47.3600,0.926
47.4000,0.935
47.4400,0.882
47.4800,0.936
47.5200,0.981
47.5600,0.908
47.6000,0.942
47.6400,0.894
47.6800,0.861
47.7200,0.880
47.7600,0.854
47.8000,0.935
47.8400,0.871
47.8800,0.940
47.9200,0.912
47.9600,0.862
48.0000,0.916
48.0400,0.933
48.0800,0.902
48.1200,0.876
48.1600,0.831
48.2000,0.866
48.2400,0.894
48.2800,0.936
48.3200,0.914
48.3600,0.893
48.4000,0.886
48.4400,0.856
48.4800,0.855
48.5200,0.862
48.5600,0.884
48.6000,0.884
48.6400,0.808
48.6800,0.842
48.7200,0.874
48.7600,0.862
48.8000,0.862
48.8400,0.845
48.8800,0.822
48.9200,0.851
48.9600,0.883
49.0000,0.913
49.0400,0.919
49.0800,0.904
49.1200,0.888
49.1600,0.825
49.2000,0.845
49.2400,0.826
49.2800,0.835
49.3200,0.859
49.3600,0.828
49.4000,0.796
49.4400,0.785
49.4800,0.802
49.5200,0.875
49.5600,0.832
49.6000,0.847
49.6400,0.813
49.6800,0.833
49.7200,0.854
49.7600,0.854
49.8000,0.836
49.8400,0.814
49.8800,0.844
49.9200,0.845
49.9600,0.832
50.0000,0.837
50.0400,0.850
50.0800,0.856
50.1200,0.807
50.1600,0.819
50.2000,0.786
50.2400,0.788
50.2800,0.853
50.3200,0.861
50.3600,0.827
50.4000,0.821
50.4400,0.837
50.4800,0.849
50.5200,0.741
50.5600,0.773
50.6000,0.784
50.6400,0.801
50.6800,0.764
50.7200,0.788
50.7600,0.798
50.8000,0.777
50.8400,0.820
50.8800,0.796
50.9200,0.801
50.9600,0.809
51.0000,0.826
51.0400,0.791
51.0800,0.788
51.1200,0.770
51.1600,0.775
51.2000,0.781
51.2400,0.802
51.2800,0.800
51.3200,0.801
51.3600,0.757
51.4000,0.771
51.4400,0.751
51.4800,0.785
51.5200,0.777
51.5600,0.798
51.6000,0.799
51.6400,0.755
51.6800,0.774
51.7200,0.791
51.7600,0.738
51.8000,0.758
51.8400,0.745
51.8800,0.771
51.9200,0.771
51.9600,0.789
52.0000,0.749
52.0400,0.717
52.0800,0.777
52.1200,0.751
52.1600,0.773
52.2000,0.783
52.2400,0.747
52.2800,0.757
52.3200,0.741
52.3600,0.743
52.4000,0.749
52.4400,0.805
52.4800,0.782
52.5200,0.740
52.5600,0.758
52.6000,0.797
52.6400,0.745
52.6800,0.748
52.7200,0.728
52.7600,0.719
52.8000,0.709
52.8400,0.697
52.8800,0.759
52.9200,0.724
52.9600,0.728
53.0000,0.759
53.0400,0.793
53.0800,0.708
53.1200,0.686
53.1600,0.712
53.2000,0.741
53.2400,0.777
53.2800,0.713
53.3200,0.744
53.3600,0.753
53.4000,0.742
53.4400,0.704
53.4800,0.754
53.5200,0.705
53.5600,0.710
53.6000,0.708
53.6400,0.737
53.6800,0.759
53.7200,0.728
53.7600,0.740
53.8000,0.694
53.8400,0.720
53.8800,0.679
53.9200,0.722
53.9600,0.738
54.0000,0.716
54.0400,0.735
54.0800,0.733
54.1200,0.691
54.1600,0.678
54.2000,0.732
54.2400,0.745
54.2800,0.759
54.3200,0.758
54.3600,0.682
54.4000,0.682
54.4400,0.762
54.4800,0.718
54.5200,0.759
54.5600,0.702
54.6000,0.697
54.6400,0.783
54.6800,0.705
54.7200,0.744
54.7600,0.724
54.8000,0.692
54.8400,0.700
54.8800,0.665
54.9200,0.738
54.9600,0.722
55.0000,0.683
55.0400,0.680
55.0800,0.705
55.1200,0.675
55.1600,0.698
55.2000,0.649
55.2400,0.691
55.2800,0.703
55.3200,0.623
55.3600,0.675
55.4000,0.660
55.4400,0.698
55.4800,0.672
55.5200,0.732
55.5600,0.735
55.6000,0.689
55.6400,0.703
55.6800,0.707
55.7200,0.726
55.7600,0.671
55.8000,0.639
55.8400,0.655
55.8800,0.710
55.9200,0.702
55.9600,0.686
56.0000,0.671
56.0400,0.716
56.0800,0.694
56.1200,0.677
56.1600,0.677
56.2000,0.632
56.2400,0.675
56.2800,0.702
56.3200,0.676
56.3600,0.656
56.4000,0.688
56.4400,0.680
56.4800,0.625
56.5200,0.658
56.5600,0.718
56.6000,0.692
56.6400,0.646
56.6800,0.682
56.7200,0.638
56.7600,0.694
56.8000,0.661
56.8400,0.666
56.8800,0.689
56.9200,0.662
56.9600,0.665
57.0000,0.636
57.0400,0.672
57.0800,0.661
57.1200,0.688
57.1600,0.667
57.2000,0.669
57.2400,0.690
57.2800,0.678
57.3200,0.660
57.3600,0.664
57.4000,0.662
57.4400,0.664
57.4800,0.694
57.5200,0.692
57.5600,0.689
57.6000,0.661
57.6400,0.684
57.6800,0.609
57.7200,0.664
57.7600,0.689
57.8000,0.632
57.8400,0.649
57.8800,0.640
57.9200,0.668
57.9600,0.636
58.0000,0.673
58.0400,0.636
58.0800,0.663
58.1200,0.632
58.1600,0.659
58.2000,0.661
58.2400,0.650
58.2800,0.670
58.3200,0.631
58.3600,0.696
58.4000,0.673
58.4400,0.660
58.4800,0.608
58.5200,0.676
58.5600,0.657
58.6000,0.710
58.6400,0.632
58.6800,0.673
58.7200,0.654
58.7600,0.639
58.8000,0.668
58.8400,0.672
58.8800,0.605
58.9200,0.644
58.9600,0.669
59.0000,0.658
59.0400,0.687
59.0800,0.621
59.1200,0.614
59.1600,0.624
59.2000,0.688
59.2400,0.611
59.2800,0.649
59.3200,0.650
59.3600,0.639
59.4000,0.614
59.4400,0.605
59.4800,0.655
59.5200,0.603
59.5600,0.604
59.6000,0.652
59.6400,0.615
59.6800,0.639
59.7200,0.585
59.7600,0.615
59.8000,0.626
59.8400,0.662
59.8800,0.594
59.9200,0.607
59.9600,0.609
60.0000,0.656
60.0400,0.632
60.0800,0.614
60.1200,0.634
60.1600,0.612
60.2000,0.640
60.2400,0.649
60.2800,0.645
60.3200,0.627
60.3600,0.641
60.4000,0.637
60.4400,0.635
60.4800,0.624
60.5200,0.580
60.5600,0.611
60.6000,0.655
60.6400,0.622
60.6800,0.604
60.7200,0.638
60.7600,0.599
60.8000,0.574
60.8400,0.679
60.8800,0.641
60.9200,0.634
60.9600,0.640
61.0000,0.621
61.0400,0.654
61.0800,0.634
61.1200,0.610
61.1600,0.623
61.2000,0.603
61.2400,0.616
61.2800,0.609
61.3200,0.638
61.3600,0.568
61.4000,0.591
61.4400,0.610
61.4800,0.624
61.5200,0.612
61.5600,0.611
61.6000,0.677
61.6400,0.691
61.6800,0.685
61.7200,0.637
61.7600,0.603
61.8000,0.597
61.8400,0.598
61.8800,0.600
61.9200,0.575
61.9600,0.592
62.0000,0.614
62.0400,0.602
62.0800,0.569
62.1200,0.640
62.1600,0.659
62.2000,0.638
62.2400,0.639
62.2800,0.667
62.3200,0.613
62.3600,0.623
62.4000,0.582
62.4400,0.630
62.4800,0.604
62.5200,0.607
62.5600,0.580
62.6000,0.555
62.6400,0.596
62.6800,0.612
62.7200,0.609
62.7600,0.626
62.8000,0.565
62.8400,0.660
62.8800,0.631
62.9200,0.589
62.9600,0.632
63.0000,0.617
63.0400,0.646
63.0800,0.706
63.1200,0.613
63.1600,0.652
63.2000,0.635
63.2400,0.637
63.2800,0.667
63.3200,0.645
63.3600,0.658
63.4000,0.673
63.4400,0.681
63.4800,0.716
63.5200,0.717
63.5600,0.728
63.6000,0.716
63.6400,0.665
63.6800,0.729
63.7200,0.738
63.7600,0.686
63.8000,0.740
63.8400,0.801
63.8800,0.849
63.9200,0.823
63.9600,0.809
64.0000,0.860
64.0400,0.906
64.0800,0.908
64.1200,1.015
64.1600,1.022
64.2000,1.096
64.2400,1.196
64.2800,1.234
64.3200,1.359
64.3600,1.441
64.4000,1.527
64.4400,1.585
64.4800,1.570
64.5200,1.586
64.5600,1.549
64.6000,1.534
64.6400,1.498
64.6800,1.338
64.7200,1.301
64.7600,1.248
64.8000,1.171
64.8400,1.061
64.8800,1.036
64.9200,1.012
64.9600,0.951
65.0000,0.895
65.0400,0.867
65.0800,0.902
65.1200,0.814
65.1600,0.848
65.2000,0.846
65.2400,0.815
65.2800,0.757
65.3200,0.797
65.3600,0.763
65.4000,0.801
65.4400,0.767
65.4800,0.763
65.5200,0.709
65.5600,0.712
65.6000,0.737
65.6400,0.767
65.6800,0.807
65.7200,0.745
65.7600,0.828
65.8000,0.769
65.8400,0.737
65.8800,0.742
65.9200,0.767
65.9600,0.771
66.0000,0.770
66.0400,0.754
66.0800,0.763
66.1200,0.733
66.1600,0.763
66.2000,0.760
66.2400,0.776
66.2800,0.770
66.3200,0.783
66.3600,0.808
66.4000,0.840
66.4400,0.825
66.4800,0.867
66.5200,0.825
66.5600,0.811
66.6000,0.831
66.6400,0.832
66.6800,0.840
66.7200,0.873
66.7600,0.843
66.8000,0.846
66.8400,0.857
66.8800,0.857
66.9200,0.896
66.9600,0.886
67.0000,0.923
67.0400,0.890
67.0800,0.944
67.1200,0.965
67.1600,0.963
67.2000,1.002
67.2400,1.022
67.2800,1.003
67.3200,0.997
67.3600,1.035
67.4000,1.061
67.4400,1.083
67.4800,1.074
67.5200,1.076
67.5600,1.185
67.6000,1.098
67.6400,1.195
67.6800,1.216
67.7200,1.242
67.7600,1.236
67.8000,1.288
67.8400,1.359
67.8800,1.318
67.9200,1.331
67.9600,1.331
68.0000,1.405
68.0400,1.511
68.0800,1.554
68.1200,1.548
68.1600,1.588
68.2000,1.600
68.2400,1.632
68.2800,1.741
68.3200,1.851
68.3600,1.893
68.4000,2.005
68.4400,1.984
68.4800,2.100
68.5200,2.274
68.5600,2.347
68.6000,2.576
68.6400,2.886
68.6800,3.215
68.7200,4.125
68.7600,5.319
68.8000,5.978
68.8400,6.370
68.8800,6.661
68.9200,7.835
68.9600,10.696
69.0000,16.964
69.0400,36.831
69.0800,163.564
69.1200,393.023
69.1600,299.184
69.2000,85.990
69.2400,42.954
69.2800,104.829
69.3200,210.142
69.3600,151.926
69.4000,43.993
69.4400,15.813
69.4800,9.754
69.5200,7.215
69.5600,5.745
69.6000,4.872
69.6400,4.170
69.6800,3.683
69.7200,3.343
69.7600,3.049
69.8000,2.884
69.8400,2.687
69.8800,2.532
69.9200,2.402
69.9600,2.169
70.0000,2.233
70.0400,2.144
70.0800,2.015
70.1200,1.978
70.1600,1.831
70.2000,1.851
70.2400,1.725
70.2800,1.690
70.3200,1.624
70.3600,1.574
70.4000,1.547
70.4400,1.492
70.4800,1.447
70.5200,1.445
70.5600,1.332
70.6000,1.400
70.6400,1.290
70.6800,1.300
70.7200,1.226
70.7600,1.183
70.8000,1.246
70.8400,1.182
70.8800,1.067
70.9200,1.103
70.9600,1.060
71.0000,1.063
71.0400,0.988
71.0800,1.031
71.1200,0.928
71.1600,0.993
71.2000,0.946
71.2400,0.949
71.2800,0.891
71.3200,0.897
71.3600,0.854
71.4000,0.844
71.4400,0.826
71.4800,0.815
71.5200,0.843
71.5600,0.849
71.6000,0.779
71.6400,0.755
71.6800,0.779
71.7200,0.730
71.7600,0.763
71.8000,0.728
71.8400,0.725
71.8800,0.726
71.9200,0.692
71.9600,0.743
72.0000,0.637
72.0400,0.650
72.0800,0.655
72.1200,0.629
72.1600,0.665
72.2000,0.654
72.2400,0.643
72.2800,0.599
72.3200,0.605
72.3600,0.572
72.4000,0.591
72.4400,0.612
72.4800,0.598
72.5200,0.604
72.5600,0.540
72.6000,0.569
72.6400,0.546
72.6800,0.516
72.7200,0.550
72.7600,0.571
72.8000,0.583
72.8400,0.513
72.8800,0.505
72.9200,0.563
72.9600,0.518
73.0000,0.512
73.0400,0.492
73.0800,0.511
73.1200,0.464
73.1600,0.485
73.2000,0.501
73.2400,0.487
73.2800,0.491
73.3200,0.483
73.3600,0.488
73.4000,0.479
73.4400,0.472
73.4800,0.486
73.5200,0.508
73.5600,0.461
73.6000,0.495
73.6400,0.479
73.6800,0.433
73.7200,0.480
73.7600,0.486
73.8000,0.492
73.8400,0.474
73.8800,0.433
73.9200,0.430
73.9600,0.465
74.0000,0.465
74.0400,0.416
74.0800,0.466
74.1200,0.422
74.1600,0.439
74.2000,0.417
74.2400,0.425
74.2800,0.411
74.3200,0.437
74.3600,0.419
74.4000,0.399
74.4400,0.434
74.4800,0.431
74.5200,0.383
74.5600,0.424
74.6000,0.396
74.6400,0.401
74.6800,0.429
74.7200,0.454
74.7600,0.433
74.8000,0.434
74.8400,0.454
74.8800,0.408
74.9200,0.407
74.9600,0.404
75.0000,0.427
75.0400,0.449
75.0800,0.400
75.1200,0.405
75.1600,0.421
75.2000,0.404
75.2400,0.413
75.2800,0.362
75.3200,0.448
75.3600,0.410
75.4000,0.408
75.4400,0.385
75.4800,0.408
75.5200,0.396
75.5600,0.446
75.6000,0.437
75.6400,0.418
75.6800,0.391
75.7200,0.430
75.7600,0.425
75.8000,0.415
75.8400,0.441
75.8800,0.388
75.9200,0.421
75.9600,0.451
76.0000,0.409
76.0400,0.454
76.0800,0.448
76.1200,0.406
76.1600,0.437
76.2000,0.462
76.2400,0.428
76.2800,0.448
76.3200,0.444
76.3600,0.463
76.4000,0.475
76.4400,0.446
76.4800,0.480
76.5200,0.483
76.5600,0.481
76.6000,0.454
76.6400,0.488
76.6800,0.492
76.7200,0.503
76.7600,0.559
76.8000,0.594
76.8400,0.554
76.8800,0.572
76.9200,0.606
76.9600,0.666
77.0000,0.671
77.0400,0.707
77.0800,0.708
77.1200,0.777
77.1600,0.850
77.2000,0.871
77.2400,0.959
77.2800,0.995
77.3200,1.107
77.3600,1.161
77.4000,1.163
77.4400,1.164
77.4800,1.219
77.5200,1.126
77.5600,1.138
77.6000,1.094
77.6400,1.035
77.6800,0.989
77.7200,0.990
77.7600,0.885
77.8000,0.790
77.8400,0.727
77.8800,0.713
77.9200,0.623
77.9600,0.617
78.0000,0.570
78.0400,0.566
78.0800,0.528
78.1200,0.524
78.1600,0.525
78.2000,0.496
78.2400,0.490
78.2800,0.495
78.3200,0.463
78.3600,0.459
78.4000,0.425
78.4400,0.401
78.4800,0.416
78.5200,0.435
78.5600,0.430
78.6000,0.397
78.6400,0.417
78.6800,0.422
78.7200,0.404
78.7600,0.401
78.8000,0.389
78.8400,0.392
78.8800,0.362
78.9200,0.404
78.9600,0.381
79.0000,0.381
79.0400,0.393
79.0800,0.384
79.1200,0.340
79.1600,0.363
79.2000,0.400
79.2400,0.370
79.2800,0.319
79.3200,0.362
79.3600,0.350
79.4000,0.336
79.4400,0.329
79.4800,0.340
79.5200,0.342
79.5600,0.356
79.6000,0.354
79.6400,0.358
79.6800,0.345
79.7200,0.317
79.7600,0.349
79.8000,0.317
79.8400,0.301
79.8800,0.356
79.9200,0.341
79.9600,0.330
80.0000,0.335
