theta,intensity
5.0000,5.589
5.0400,5.497
5.0800,5.504
5.1200,5.533
5.1600,5.478
5.2000,5.498
5.2400,5.346
5.2800,5.183
5.3200,5.386
5.3600,5.272
5.4000,5.160
5.4400,5.111
5.4800,5.195
5.5200,5.030
5.5600,5.048
5.6000,4.941
5.6400,4.899
5.6800,4.916
5.7200,4.790
5.7600,4.776
5.8000,4.681
5.8400,4.533
5.8800,4.563
5.9200,4.456
5.9600,4.513
6.0000,4.368
6.0400,4.248
6.0800,4.219
6.1200,4.171
6.1600,4.261
6.2000,4.248
6.2400,4.229
6.2800,4.276
6.3200,4.193
6.3600,4.242
6.4000,4.173
6.4400,4.264
6.4800,4.255
6.5200,4.146
6.5600,4.130
6.6000,4.164
6.6400,4.120
6.6800,4.189
6.7200,4.005
6.7600,4.234
6.8000,4.108
6.8400,4.013
6.8800,4.016
6.9200,4.044
6.9600,4.055
7.0000,4.028
7.0400,4.037
7.0800,4.045
7.1200,4.058
7.1600,4.029
7.2000,4.057
7.2400,4.109
7.2800,4.049
7.3200,3.936
7.3600,3.895
7.4000,3.942
7.4400,3.982
7.4800,4.020
7.5200,4.007
7.5600,3.906
7.6000,3.986
7.6400,4.050
7.6800,3.971
7.7200,3.910
7.7600,4.068
7.8000,4.045
7.8400,4.033
7.8800,4.075
7.9200,4.031
7.9600,3.945
8.0000,3.851
8.0400,3.915
8.0800,3.844
8.1200,3.927
8.1600,3.906
8.2000,3.839
8.2400,3.894
8.2800,3.817
8.3200,3.879
8.3600,3.821
8.4000,3.943
8.4400,3.851
8.4800,3.822
8.5200,3.818
8.5600,3.863
8.6000,3.888
8.6400,3.808
8.6800,3.866
8.7200,3.851
8.7600,3.871
8.8000,3.951
8.8400,3.783
8.8800,3.858
8.9200,3.854
8.9600,3.755
9.0000,3.714
9.0400,3.698
9.0800,3.750
9.1200,3.786
9.1600,3.705
9.2000,3.723
9.2400,3.687
9.2800,3.769
9.3200,3.815
9.3600,3.772
9.4000,3.718
9.4400,3.680
9.4800,3.719
9.5200,3.790
9.5600,3.787
9.6000,3.764
9.6400,3.828
9.6800,3.680
9.7200,3.680
9.7600,3.775
9.8000,3.708
9.8400,3.716
9.8800,3.588
9.9200,3.703
9.9600,3.658
10.0000,3.669
10.0400,3.722
10.0800,3.770
10.1200,3.604
10.1600,3.652
10.2000,3.643
10.2400,3.721
10.2800,3.540
10.3200,3.560
10.3600,3.517
10.4000,3.706
10.4400,3.714
10.4800,3.633
10.5200,3.674
10.5600,3.609
10.6000,3.627
10.6400,3.702
10.6800,3.572
10.7200,3.577
10.7600,3.687
10.8000,3.540
10.8400,3.600
10.8800,3.609
10.9200,3.547
10.9600,3.596
11.0000,3.537
11.0400,3.580
11.0800,3.581
11.1200,3.522
11.1600,3.552
11.2000,3.558
11.2400,3.534
11.2800,3.500
11.3200,3.531
11.3600,3.495
11.4000,3.506
11.4400,3.581
11.4800,3.581
11.5200,3.582
11.5600,3.401
11.6000,3.482
11.6400,3.423
11.6800,3.456
11.7200,3.536
11.7600,3.595
11.8000,3.513
11.8400,3.363
11.8800,3.479
11.9200,3.517
11.9600,3.539
12.0000,3.497
12.0400,3.448
12.0800,3.396
12.1200,3.450
12.1600,3.542
12.2000,3.441
12.2400,3.465
12.2800,3.612
12.3200,3.504
12.3600,3.499
12.4000,3.402
12.4400,3.395
12.4800,3.455
12.5200,3.379
12.5600,3.471
12.6000,3.461
12.6400,3.322
12.6800,3.491
12.7200,3.313
12.7600,3.428
12.8000,3.411
12.8400,3.457
12.8800,3.383
12.9200,3.319
12.9600,3.402
13.0000,3.420
13.0400,3.331
13.0800,3.353
13.1200,3.392
13.1600,3.380
13.2000,3.390
13.2400,3.335
13.2800,3.357
13.3200,3.334
13.3600,3.311
13.4000,3.349
13.4400,3.335
13.4800,3.365
13.5200,3.309
13.5600,3.295
13.6000,3.296
13.6400,3.419
13.6800,3.356
13.7200,3.307
13.7600,3.346
13.8000,3.158
13.8400,3.304
13.8800,3.282
13.9200,3.354
13.9600,3.217
14.0000,3.267
14.0400,3.199
14.0800,3.127
14.1200,3.379
14.1600,3.366
14.2000,3.255
14.2400,3.255
14.2800,3.188
14.3200,3.279
14.3600,3.224
14.4000,3.225
14.4400,3.313
14.4800,3.227
14.5200,3.189
14.5600,3.251
14.6000,3.340
14.6400,3.233
14.6800,3.217
14.7200,3.244
14.7600,3.171
14.8000,3.180
14.8400,3.214
14.8800,3.260
14.9200,3.244
14.9600,3.148
15.0000,3.173
15.0400,3.127
15.0800,3.146
15.1200,3.246
15.1600,3.199
15.2000,3.178
15.2400,3.196
15.2800,3.153
15.3200,3.221
15.3600,3.221
15.4000,3.134
15.4400,3.193
15.4800,3.149
15.5200,3.144
15.5600,3.119
15.6000,3.145
15.6400,3.116
15.6800,3.265
15.7200,3.132
15.7600,3.173
15.8000,3.109
15.8400,3.084
15.8800,3.144
15.9200,3.099
15.9600,3.105
16.0000,3.107
16.0400,3.000
16.0800,3.161
16.1200,3.141
16.1600,3.057
16.2000,3.014
16.2400,3.118
16.2800,2.976
16.3200,3.002
16.3600,3.123
16.4000,3.123
16.4400,3.057
16.4800,3.048
16.5200,3.013
16.5600,3.059
16.6000,3.072
16.6400,3.134
16.6800,2.989
16.7200,3.008
16.7600,3.098
16.8000,2.998
16.8400,2.964
16.8800,3.029
16.9200,3.028
16.9600,3.009
17.0000,2.959
17.0400,3.066
17.0800,3.008
17.1200,2.945
17.1600,2.962
17.2000,3.056
17.2400,2.980
17.2800,2.984
17.3200,2.937
17.3600,2.963
17.4000,2.927
17.4400,2.983
17.4800,2.996
17.5200,2.976
17.5600,2.957
17.6000,2.829
17.6400,3.006
17.6800,3.016
17.7200,2.873
17.7600,2.950
17.8000,2.840
17.8400,2.937
17.8800,2.893
17.9200,2.759
17.9600,2.852
18.0000,2.890
18.0400,2.829
18.0800,2.899
18.1200,2.894
18.1600,2.713
18.2000,2.898
18.2400,2.934
18.2800,2.855
18.3200,2.886
18.3600,2.792
18.4000,2.929
18.4400,2.890
18.4800,2.892
18.5200,2.814
18.5600,2.855
18.6000,2.902
18.6400,2.795
18.6800,2.871
18.7200,2.804
18.7600,2.921
18.8000,2.882
18.8400,2.805
18.8800,2.821
18.9200,2.886
18.9600,2.891
19.0000,2.799
19.0400,2.867
19.0800,2.799
19.1200,2.724
19.1600,2.814
19.2000,2.843
19.2400,2.861
19.2800,2.825
19.3200,2.749
19.3600,2.832
19.4000,2.710
19.4400,2.877
19.4800,2.766
19.5200,2.770
19.5600,2.728
19.6000,2.788
19.6400,2.773
19.6800,2.679
19.7200,2.708
19.7600,2.737
19.8000,2.768
19.8400,2.720
19.8800,2.826
19.9200,2.727
19.9600,2.711
20.0000,2.698
20.0400,2.768
20.0800,2.715
20.1200,2.745
20.1600,2.762
20.2000,2.757
20.2400,2.713
20.2800,2.668
20.3200,2.713
20.3600,2.696
20.4000,2.650
20.4400,2.696
20.4800,2.732
20.5200,2.616
20.5600,2.685
20.6000,2.636
20.6400,2.697
20.6800,2.699
20.7200,2.732
20.7600,2.732
20.8000,2.639
20.8400,2.670
20.8800,2.603
20.9200,2.720
20.9600,2.624
21.0000,2.741
21.0400,2.619
21.0800,2.595
21.1200,2.704
21.1600,2.642
21.2000,2.568
21.2400,2.618
21.2800,2.604
21.3200,2.634
21.3600,2.605
21.4000,2.616
21.4400,2.663
21.4800,2.508
21.5200,2.531
21.5600,2.611
21.6000,2.522
21.6400,2.609
21.6800,2.608
21.7200,2.525
21.7600,2.608
21.8000,2.643
21.8400,2.616
21.8800,2.534
21.9200,2.608
21.9600,2.491
22.0000,2.506
22.0400,2.489
22.0800,2.610
22.1200,2.572
22.1600,2.491
22.2000,2.573
22.2400,2.508
22.2800,2.460
22.3200,2.570
22.3600,2.521
22.4000,2.590
22.4400,2.528
22.4800,2.450
22.5200,2.537
22.5600,2.572
22.6000,2.498
22.6400,2.377
22.6800,2.500
22.7200,2.467
22.7600,2.448
22.8000,2.499
22.8400,2.489
22.8800,2.480
22.9200,2.495
22.9600,2.531
23.0000,2.442
23.0400,2.437
23.0800,2.507
23.1200,2.426
23.1600,2.474
23.2000,2.475
23.2400,2.427
23.2800,2.435
23.3200,2.444
23.3600,2.401
23.4000,2.477
23.4400,2.413
23.4800,2.433
23.5200,2.404
23.5600,2.368
23.6000,2.410
23.6400,2.394
23.6800,2.377
23.7200,2.378
23.7600,2.384
23.8000,2.445
23.8400,2.338
23.8800,2.449
23.9200,2.398
23.9600,2.435
24.0000,2.422
24.0400,2.359
24.0800,2.267
24.1200,2.378
24.1600,2.402
24.2000,2.339
24.2400,2.317
24.2800,2.335
24.3200,2.371
24.3600,2.337
24.4000,2.355
24.4400,2.384
24.4800,2.422
24.5200,2.283
24.5600,2.318
24.6000,2.370
24.6400,2.350
24.6800,2.303
24.7200,2.271
24.7600,2.412
24.8000,2.332
24.8400,2.350
24.8800,2.314
24.9200,2.407
24.9600,2.353
25.0000,2.238
25.0400,2.291
25.0800,2.259
25.1200,2.402
25.1600,2.455
25.2000,2.318
25.2400,2.283
25.2800,2.305
25.3200,2.323
25.3600,2.251
25.4000,2.287
25.4400,2.196
25.4800,2.297
25.5200,2.269
25.5600,2.264
25.6000,2.268
25.6400,2.333
25.6800,2.219
25.7200,2.273
25.7600,2.298
25.8000,2.250
25.8400,2.255
25.8800,2.275
25.9200,2.243
25.9600,2.275
26.0000,2.213
26.0400,2.175
26.0800,2.163
26.1200,2.182
26.1600,2.239
26.2000,2.191
26.2400,2.253
26.2800,2.236
26.3200,2.230
26.3600,2.214
26.4000,2.097
26.4400,2.158
26.4800,2.188
26.5200,2.177
26.5600,2.173
26.6000,2.203
26.6400,2.155
26.6800,2.143
26.7200,2.118
26.7600,2.207
26.8000,2.148
26.8400,2.158
26.8800,2.228
26.9200,2.191
26.9600,2.216
27.0000,2.091
27.0400,2.132
27.0800,2.180
27.1200,2.179
27.1600,2.139
27.2000,2.121
27.2400,2.115
27.2800,2.027
27.3200,2.127
27.3600,2.138
27.4000,2.124
27.4400,2.169
27.4800,2.132
27.5200,2.109
27.5600,2.096
27.6000,2.129
27.6400,2.156
27.6800,2.091
27.7200,2.033
27.7600,2.185
27.8000,2.120
27.8400,2.145
27.8800,2.070
27.9200,2.131
27.9600,2.019
28.0000,2.157
28.0400,2.103
28.0800,2.058
28.1200,2.079
28.1600,2.084
28.2000,2.026
28.2400,2.103
28.2800,2.103
28.3200,2.090
28.3600,2.092
28.4000,2.073
28.4400,2.073
28.4800,2.001
28.5200,2.020
28.5600,2.043
28.6000,2.004
28.6400,2.013
28.6800,2.015
28.7200,2.007
28.7600,1.978
28.8000,2.028
28.8400,2.054
28.8800,2.031
28.9200,2.048
28.9600,1.913
29.0000,2.023
29.0400,1.980
29.0800,1.887
29.1200,2.032
29.1600,2.003
29.2000,1.976
29.2400,1.979
29.2800,2.006
29.3200,1.971
29.3600,2.030
29.4000,2.021
29.4400,1.992
29.4800,1.950
29.5200,1.845
29.5600,1.899
29.6000,2.026
29.6400,1.933
29.6800,1.925
29.7200,1.919
29.7600,1.964
29.8000,1.993
29.8400,1.910
29.8800,1.993
29.9200,1.929
29.9600,1.982
30.0000,1.933
30.0400,1.966
30.0800,1.886
30.1200,1.963
30.1600,1.871
30.2000,1.886
30.2400,1.935
30.2800,1.878
30.3200,1.944
30.3600,1.936
30.4000,1.849
30.4400,1.883
30.4800,1.789
30.5200,1.847
30.5600,1.889
30.6000,1.837
30.6400,1.927
30.6800,1.921
30.7200,1.915
30.7600,1.909
30.8000,1.862
30.8400,1.924
30.8800,1.821
30.9200,1.882
30.9600,1.801
31.0000,1.852
31.0400,1.766
31.0800,1.806
31.1200,1.766
31.1600,1.851
31.2000,1.739
31.2400,1.851
31.2800,1.855
31.3200,1.815
31.3600,1.848
31.4000,1.761
31.4400,1.857
31.4800,1.815
31.5200,1.794
31.5600,1.802
31.6000,1.758
31.6400,1.821
31.6800,1.804
31.7200,1.843
31.7600,1.856
31.8000,1.813
31.8400,1.813
31.8800,1.855
31.9200,1.768
31.9600,1.732
32.0000,1.769
32.0400,1.753
32.0800,1.764
32.1200,1.754
32.1600,1.756
32.2000,1.728
32.2400,1.751
32.2800,1.814
32.3200,1.732
32.3600,1.779
32.4000,1.749
32.4400,1.761
32.4800,1.753
32.5200,1.746
32.5600,1.732
32.6000,1.683
32.6400,1.766
32.6800,1.716
32.7200,1.743
32.7600,1.758
32.8000,1.726
32.8400,1.821
32.8800,1.754
32.9200,1.745
32.9600,1.778
33.0000,1.727
33.0400,1.728
33.0800,1.748
33.1200,1.716
33.1600,1.629
33.2000,1.716
33.2400,1.709
33.2800,1.748
33.3200,1.755
33.3600,1.729
33.4000,1.762
33.4400,1.716
33.4800,1.733
33.5200,1.695
33.5600,1.704
33.6000,1.698
33.6400,1.736
33.6800,1.640
33.7200,1.745
33.7600,1.725
33.8000,1.662
33.8400,1.733
33.8800,1.672
33.9200,1.654
33.9600,1.711
34.0000,1.659
34.0400,1.707
34.0800,1.682
34.1200,1.643
34.1600,1.671
34.2000,1.701
34.2400,1.748
34.2800,1.683
34.3200,1.668
34.3600,1.652
34.4000,1.609
34.4400,1.568
34.4800,1.670
34.5200,1.679
34.5600,1.606
34.6000,1.608
34.6400,1.649
34.6800,1.730
34.7200,1.659
34.7600,1.741
34.8000,1.647
34.8400,1.645
34.8800,1.647
34.9200,1.686
34.9600,1.646
35.0000,1.615
35.0400,1.665
35.0800,1.646
35.1200,1.671
35.1600,1.745
35.2000,1.696
35.2400,1.684
35.2800,1.685
35.3200,1.672
35.3600,1.655
35.4000,1.621
35.4400,1.632
35.4800,1.658
35.5200,1.641
35.5600,1.643
35.6000,1.703
35.6400,1.617
35.6800,1.680
35.7200,1.663
35.7600,1.653
35.8000,1.680
35.8400,1.672
35.8800,1.746
35.9200,1.715
35.9600,1.740
36.0000,1.709
36.0400,1.745
36.0800,1.731
36.1200,1.760
36.1600,1.733
36.2000,1.799
36.2400,1.781
36.2800,1.865
36.3200,1.834
36.3600,1.838
36.4000,1.818
36.4400,1.811
36.4800,1.902
36.5200,1.851
36.5600,1.928
36.6000,1.834
36.6400,1.894
36.6800,1.904
36.7200,1.894
36.7600,1.934
36.8000,1.995
36.8400,2.013
36.8800,2.027
36.9200,2.042
36.9600,2.125
37.0000,2.100
37.0400,2.140
37.0800,2.161
37.1200,2.271
37.1600,2.283
37.2000,2.362
37.2400,2.475
37.2800,2.487
37.3200,2.563
37.3600,2.623
37.4000,2.680
37.4400,2.834
37.4800,2.930
37.5200,3.024
37.5600,3.065
37.6000,3.241
37.6400,3.369
37.6800,3.543
37.7200,3.664
37.7600,3.837
37.8000,3.980
37.8400,4.177
37.8800,4.489
37.9200,4.645
37.9600,4.826
38.0000,5.101
38.0400,5.478
38.0800,5.755
38.1200,5.963
38.1600,6.347
38.2000,6.561
38.2400,6.573
38.2800,6.698
38.3200,6.883
38.3600,6.881
38.4000,6.820
38.4400,6.888
38.4800,6.756
38.5200,6.561
38.5600,6.513
38.6000,6.265
38.6400,6.006
38.6800,5.835
38.7200,5.628
38.7600,5.450
38.8000,5.274
38.8400,4.929
38.8800,4.734
38.9200,4.568
38.9600,4.363
39.0000,4.260
39.0400,3.985
39.0800,3.904
39.1200,3.677
39.1600,3.772
39.2000,3.567
39.2400,3.286
39.2800,3.343
39.3200,3.219
39.3600,3.129
39.4000,3.070
39.4400,2.977
39.4800,2.846
39.5200,2.896
39.5600,2.769
39.6000,2.752
39.6400,2.702
39.6800,2.574
39.7200,2.637
39.7600,2.460
39.8000,2.431
39.8400,2.431
39.8800,2.370
39.9200,2.280
39.9600,2.362
40.0000,2.377
40.0400,2.252
40.0800,2.306
40.1200,2.259
40.1600,2.208
40.2000,2.140
40.2400,2.163
40.2800,2.142
40.3200,2.145
40.3600,2.124
40.4000,2.089
40.4400,2.018
40.4800,2.071
40.5200,2.053
40.5600,2.042
40.6000,1.954
40.6400,1.934
40.6800,1.894
40.7200,1.968
40.7600,1.894
40.8000,1.889
40.8400,1.939
40.8800,1.803
40.9200,1.850
40.9600,1.890
41.0000,1.854
41.0400,1.894
41.0800,1.948
41.1200,1.748
41.1600,1.815
41.2000,1.850
41.2400,1.818
41.2800,1.798
41.3200,1.825
41.3600,1.797
41.4000,1.790
41.4400,1.779
41.4800,1.801
41.5200,1.752
41.5600,1.816
41.6000,1.703
41.6400,1.697
41.6800,1.740
41.7200,1.767
41.7600,1.713
41.8000,1.775
41.8400,1.686
41.8800,1.766
41.9200,1.686
41.9600,1.767
42.0000,1.740
42.0400,1.749
42.0800,1.662
42.1200,1.851
42.1600,1.699
42.2000,1.749
42.2400,1.805
42.2800,1.732
42.3200,1.748
42.3600,1.762
42.4000,1.689
42.4400,1.744
42.4800,1.750
42.5200,1.747
42.5600,1.723
42.6000,1.792
42.6400,1.809
42.6800,1.817
42.7200,1.767
42.7600,1.859
42.8000,1.818
42.8400,1.760
42.8800,1.842
42.9200,1.809
42.9600,1.797
43.0000,1.859
43.0400,1.946
43.0800,1.893
43.1200,1.852
43.1600,1.906
43.2000,1.906
43.2400,1.859
43.2800,1.929
43.3200,2.040
43.3600,2.043
43.4000,2.053
43.4400,2.024
43.4800,1.988
43.5200,2.095
43.5600,2.091
43.6000,2.099
43.6400,2.069
43.6800,2.122
43.7200,2.109
43.7600,2.048
43.8000,2.146
43.8400,2.116
43.8800,2.187
43.9200,2.086
43.9600,2.194
44.0000,2.285
44.0400,2.297
44.0800,2.330
44.1200,2.348
44.1600,2.309
44.2000,2.341
44.2400,2.293
44.2800,2.331
44.3200,2.389
44.3600,2.479
44.4000,2.415
44.4400,2.415
44.4800,2.407
44.5200,2.421
44.5600,2.375
44.6000,2.368
44.6400,2.303
44.6800,2.321
44.7200,2.303
44.7600,2.289
44.8000,2.234
44.8400,2.153
44.8800,2.210
44.9200,2.203
44.9600,2.132
45.0000,2.124
45.0400,2.087
45.0800,2.012
45.1200,1.989
45.1600,1.926
45.2000,1.923
45.2400,1.957
45.2800,1.834
45.3200,1.768
45.3600,1.799
45.4000,1.796
45.4400,1.735
45.4800,1.662
45.5200,1.681
45.5600,1.542
45.6000,1.634
45.6400,1.570
45.6800,1.527
45.7200,1.498
45.7600,1.458
45.8000,1.501
45.8400,1.412
45.8800,1.480
45.9200,1.439
45.9600,1.367
46.0000,1.337
46.0400,1.377
46.0800,1.321
46.1200,1.335
46.1600,1.309
46.2000,1.337
46.2400,1.298
46.2800,1.306
46.3200,1.262
46.3600,1.260
46.4000,1.218
46.4400,1.247
46.4800,1.213
46.5200,1.220
46.5600,1.205
46.6000,1.190
46.6400,1.180
46.6800,1.210
46.7200,1.156
46.7600,1.141
46.8000,1.181
46.8400,1.126
46.8800,1.093
46.9200,1.098
46.9600,1.083
47.0000,1.098
47.0400,1.122
47.0800,1.113
47.1200,1.037
47.1600,1.085
47.2000,1.056
47.2400,1.083
47.2800,1.035
47.3200,1.054
47.3600,1.048
47.4000,0.999
47.4400,1.020
47.4800,1.074
47.5200,1.031
47.5600,1.101
47.6000,1.019
47.6400,1.014
47.6800,1.028
47.7200,1.106
47.7600,1.094
47.8000,1.023
47.8400,0.999
47.8800,0.966
47.9200,0.976
47.9600,1.014
48.0000,1.031
48.0400,1.064
48.0800,0.967
48.1200,1.015
48.1600,1.001
48.2000,0.953
48.2400,0.925
48.2800,0.986
48.3200,0.937
48.3600,0.928
48.4000,0.979
48.4400,0.975
48.4800,1.010
48.5200,1.007
48.5600,0.961
48.6000,0.959
48.6400,0.977
48.6800,1.003
48.7200,0.973
48.7600,0.958
48.8000,0.908
48.8400,0.908
48.8800,0.948
48.9200,0.930
48.9600,0.973
49.0000,0.924
49.0400,0.920
49.0800,0.959
49.1200,0.944
49.1600,0.899
49.2000,0.905
49.2400,0.945
49.2800,0.883
49.3200,0.960
49.3600,0.863
49.4000,0.870
49.4400,0.883
49.4800,0.934
49.5200,0.945
49.5600,0.938
49.6000,0.854
49.6400,0.934
49.6800,0.843
49.7200,0.855
49.7600,0.862
49.8000,0.904
49.8400,0.911
49.8800,0.908
49.9200,0.913
49.9600,0.903
50.0000,0.903
50.0400,0.888
50.0800,0.904
50.1200,0.887
50.1600,0.878
50.2000,0.879
50.2400,0.909
50.2800,0.899
50.3200,0.891
50.3600,0.923
50.4000,0.890
50.4400,0.867
50.4800,0.846
50.5200,0.881
50.5600,0.846
50.6000,0.829
50.6400,0.914
50.6800,0.906
50.7200,0.896
50.7600,0.864
50.8000,0.859
50.8400,0.868
50.8800,0.826
50.9200,0.823
50.9600,0.881
51.0000,0.857
51.0400,0.869
51.0800,0.819
51.1200,0.808
51.1600,0.848
51.2000,0.828
51.2400,0.843
51.2800,0.837
51.3200,0.805
51.3600,0.819
51.4000,0.800
51.4400,0.788
51.4800,0.840
51.5200,0.833
51.5600,0.858
51.6000,0.846
51.6400,0.812
51.6800,0.783
51.7200,0.797
51.7600,0.794
51.8000,0.784
51.8400,0.823
51.8800,0.821
51.9200,0.834
51.9600,0.831
52.0000,0.804
52.0400,0.819
52.0800,0.793
52.1200,0.762
52.1600,0.758
52.2000,0.827
52.2400,0.759
52.2800,0.761
52.3200,0.712
52.3600,0.829
52.4000,0.769
52.4400,0.789
52.4800,0.787
52.5200,0.770
52.5600,0.776
52.6000,0.747
52.6400,0.788
52.6800,0.799
52.7200,0.789
52.7600,0.714
52.8000,0.742
52.8400,0.767
52.8800,0.748
52.9200,0.776
52.9600,0.720
53.0000,0.755
53.0400,0.733
53.0800,0.792
53.1200,0.797
53.1600,0.752
53.2000,0.759
53.2400,0.720
53.2800,0.783
53.3200,0.724
53.3600,0.719
53.4000,0.728
53.4400,0.815
53.4800,0.781
53.5200,0.739
53.5600,0.761
53.6000,0.747
53.6400,0.761
53.6800,0.753
53.7200,0.745
53.7600,0.780
53.8000,0.728
53.8400,0.742
53.8800,0.703
53.9200,0.730
53.9600,0.738
54.0000,0.730
54.0400,0.703
54.0800,0.718
54.1200,0.745
54.1600,0.715
54.2000,0.751
54.2400,0.694
54.2800,0.727
54.3200,0.675
54.3600,0.668
54.4000,0.700
54.4400,0.704
54.4800,0.695
54.5200,0.685
54.5600,0.716
54.6000,0.677
54.6400,0.703
54.6800,0.709
54.7200,0.659
54.7600,0.678
54.8000,0.732
54.8400,0.709
54.8800,0.685
54.9200,0.676
54.9600,0.718
55.0000,0.734
55.0400,0.716
55.0800,0.715
55.1200,0.701
55.1600,0.724
55.2000,0.668
55.2400,0.668
55.2800,0.701
55.3200,0.707
55.3600,0.678
55.4000,0.663
55.4400,0.746
55.4800,0.704
55.5200,0.699
55.5600,0.688
55.6000,0.686
55.6400,0.680
55.6800,0.655
55.7200,0.655
55.7600,0.727
55.8000,0.689
55.8400,0.652
55.8800,0.697
55.9200,0.653
55.9600,0.706
56.0000,0.722
56.0400,0.681
56.0800,0.696
56.1200,0.702
56.1600,0.705
56.2000,0.694
56.2400,0.663
56.2800,0.660
56.3200,0.621
56.3600,0.662
56.4000,0.668
56.4400,0.718
56.4800,0.726
56.5200,0.703
56.5600,0.692
56.6000,0.671
56.6400,0.640
56.6800,0.703
56.7200,0.691
56.7600,0.631
56.8000,0.643
56.8400,0.666
56.8800,0.638
56.9200,0.675
56.9600,0.662
57.0000,0.663
57.0400,0.686
57.0800,0.656
57.1200,0.703
57.1600,0.700
57.2000,0.620
57.2400,0.637
57.2800,0.631
57.3200,0.645
57.3600,0.636
57.4000,0.680
57.4400,0.686
57.4800,0.656
57.5200,0.663
57.5600,0.649
57.6000,0.672
57.6400,0.639
57.6800,0.662
57.7200,0.647
57.7600,0.610
57.8000,0.655
57.8400,0.640
57.8800,0.622
57.9200,0.661
57.9600,0.662
58.0000,0.652
58.0400,0.633
58.0800,0.681
58.1200,0.662
58.1600,0.598
58.2000,0.661
58.2400,0.683
58.2800,0.656
58.3200,0.603
58.3600,0.630
58.4000,0.661
58.4400,0.644
58.4800,0.619
58.5200,0.640
58.5600,0.616
58.6000,0.622
58.6400,0.651
58.6800,0.603
58.7200,0.662
58.7600,0.635
58.8000,0.639
58.8400,0.596
58.8800,0.630
58.9200,0.632
58.9600,0.641
59.0000,0.682
59.0400,0.645
59.0800,0.617
59.1200,0.588
59.1600,0.621
59.2000,0.627
59.2400,0.605
59.2800,0.682
59.3200,0.637
59.3600,0.666
59.4000,0.635
59.4400,0.627
59.4800,0.651
59.5200,0.620
59.5600,0.632
59.6000,0.610
59.6400,0.641
59.6800,0.633
59.7200,0.613
59.7600,0.617
59.8000,0.620
59.8400,0.652
59.8800,0.618
59.9200,0.583
59.9600,0.557
60.0000,0.596
60.0400,0.607
60.0800,0.608
60.1200,0.622
60.1600,0.642
60.2000,0.648
60.2400,0.596
60.2800,0.619
60.3200,0.651
60.3600,0.638
60.4000,0.653
60.4400,0.601
60.4800,0.602
60.5200,0.637
60.5600,0.604
60.6000,0.564
60.6400,0.588
60.6800,0.583
60.7200,0.615
60.7600,0.617
60.8000,0.674
60.8400,0.590
60.8800,0.606
60.9200,0.601
60.9600,0.594
61.0000,0.599
61.0400,0.628
61.0800,0.606
61.1200,0.620
61.1600,0.579
61.2000,0.601
61.2400,0.598
61.2800,0.645
61.3200,0.606
61.3600,0.613
61.4000,0.613
61.4400,0.629
61.4800,0.586
61.5200,0.633
61.5600,0.597
61.6000,0.627
61.6400,0.672
61.6800,0.679
61.7200,0.686
61.7600,0.681
61.8000,0.619
61.8400,0.631
61.8800,0.610
61.9200,0.628
61.9600,0.626
62.0000,0.629
62.0400,0.626
62.0800,0.634
62.1200,0.613
62.1600,0.616
62.2000,0.649
62.2400,0.557
62.2800,0.637
62.3200,0.654
62.3600,0.627
62.4000,0.664
62.4400,0.617
62.4800,0.637
62.5200,0.617
62.5600,0.630
62.6000,0.604
62.6400,0.660
62.6800,0.603
62.7200,0.671
62.7600,0.651
62.8000,0.693
62.8400,0.636
62.8800,0.719
62.9200,0.685
62.9600,0.694
63.0000,0.635
63.0400,0.678
63.0800,0.675
63.1200,0.697
63.1600,0.675
63.2000,0.726
63.2400,0.713
63.2800,0.733
63.3200,0.700
63.3600,0.755
63.4000,0.749
63.4400,0.713
63.4800,0.767
63.5200,0.792
63.5600,0.780
63.6000,0.815
63.6400,0.793
63.6800,0.779
63.7200,0.818
63.7600,0.864
63.8000,0.851
63.8400,0.823
63.8800,0.826
63.9200,0.890
63.9600,0.907
64.0000,0.931
64.0400,0.883
64.0800,0.966
64.1200,0.931
64.1600,0.962
64.2000,1.031
64.2400,1.043
64.2800,0.987
64.3200,1.032
64.3600,1.061
64.4000,1.126
64.4400,1.093
64.4800,1.119
64.5200,1.124
64.5600,1.155
64.6000,1.140
64.6400,1.247
64.6800,1.192
64.7200,1.193
64.7600,1.202
64.8000,1.237
64.8400,1.271
64.8800,1.223
64.9200,1.263
64.9600,1.266
65.0000,1.301
65.0400,1.278
65.0800,1.234
65.1200,1.235
65.1600,1.193
65.2000,1.184
65.2400,1.249
65.2800,1.236
65.3200,1.150
65.3600,1.226
65.4000,1.114
65.4400,1.121
65.4800,1.089
65.5200,1.072
65.5600,1.095
65.6000,1.042
65.6400,1.098
65.6800,1.074
65.7200,1.029
65.7600,0.969
65.8000,1.001
65.8400,1.056
65.8800,1.010
65.9200,1.032
65.9600,1.068
66.0000,1.016
66.0400,1.025
66.0800,1.026
66.1200,0.966
66.1600,0.937
66.2000,0.969
66.2400,0.975
66.2800,0.956
66.3200,0.960
66.3600,0.973
66.4000,1.022
66.4400,1.040
66.4800,1.013
66.5200,1.041
66.5600,1.021
66.6000,1.022
66.6400,1.030
66.6800,1.018
66.7200,1.041
66.7600,1.013
66.8000,1.001
66.8400,1.012
66.8800,1.056
66.9200,1.085
66.9600,1.068
67.0000,1.087
67.0400,1.005
67.0800,1.058
67.1200,1.129
67.1600,1.189
67.2000,1.176
67.2400,1.117
67.2800,1.181
67.3200,1.192
67.3600,1.183
67.4000,1.200
67.4400,1.178
67.4800,1.280
67.5200,1.252
67.5600,1.277
67.6000,1.315
67.6400,1.357
67.6800,1.312
67.7200,1.415
67.7600,1.359
67.8000,1.402
67.8400,1.388
67.8800,1.444
67.9200,1.388
67.9600,1.524
68.0000,1.546
68.0400,1.605
68.0800,1.667
68.1200,1.657
68.1600,1.759
68.2000,1.850
68.2400,1.807
68.2800,1.898
68.3200,1.970
68.3600,2.026
68.4000,2.017
68.4400,2.168
68.4800,2.293
68.5200,2.382
68.5600,2.521
68.6000,2.764
68.6400,3.047
68.6800,3.306
68.7200,3.931
68.7600,5.105
68.8000,6.261
68.8400,6.974
68.8800,7.226
68.9200,7.556
68.9600,9.490
69.0000,13.718
69.0400,24.232
69.0800,61.318
69.1200,282.556
69.1600,458.912
69.2000,236.425
69.2400,59.442
69.2800,53.327
69.3200,158.643
69.3600,229.068
69.4000,113.684
69.4400,28.737
69.4800,13.625
69.5200,9.178
69.5600,7.118
69.6000,5.854
69.6400,4.991
69.6800,4.221
69.7200,3.814
69.7600,3.485
69.8000,3.309
69.8400,2.998
69.8800,2.850
69.9200,2.734
69.9600,2.531
70.0000,2.384
70.0400,2.221
70.0800,2.180
70.1200,2.148
70.1600,2.080
70.2000,2.061
70.2400,1.933
70.2800,1.836
70.3200,1.746
70.3600,1.742
70.4000,1.706
70.4400,1.612
70.4800,1.563
70.5200,1.561
70.5600,1.445
70.6000,1.443
70.6400,1.417
70.6800,1.351
70.7200,1.398
70.7600,1.334
70.8000,1.325
70.8400,1.255
70.8800,1.210
70.9200,1.189
70.9600,1.180
71.0000,1.121
71.0400,1.129
71.0800,1.156
71.1200,1.110
71.1600,1.053
71.2000,1.021
71.2400,1.063
71.2800,1.020
71.3200,0.971
71.3600,0.947
71.4000,0.920
71.4400,0.901
71.4800,0.859
71.5200,0.894
71.5600,0.885
71.6000,0.872
71.6400,0.822
71.6800,0.834
71.7200,0.851
71.7600,0.798
71.8000,0.806
71.8400,0.769
71.8800,0.791
71.9200,0.769
71.9600,0.777
72.0000,0.717
72.0400,0.762
72.0800,0.719
72.1200,0.704
72.1600,0.682
72.2000,0.710
72.2400,0.715
72.2800,0.626
72.3200,0.672
72.3600,0.694
72.4000,0.674
72.4400,0.673
72.4800,0.649
72.5200,0.670
72.5600,0.644
72.6000,0.680
72.6400,0.596
72.6800,0.583
72.7200,0.574
72.7600,0.606
72.8000,0.581
72.8400,0.609
72.8800,0.595
72.9200,0.612
72.9600,0.578
73.0000,0.588
73.0400,0.549
73.0800,0.590
73.1200,0.587
73.1600,0.584
73.2000,0.548
73.2400,0.539
73.2800,0.566
73.3200,0.561
73.3600,0.546
73.4000,0.567
73.4400,0.568
73.4800,0.563
73.5200,0.558
73.5600,0.485
73.6000,0.568
73.6400,0.570
73.6800,0.532
73.7200,0.490
73.7600,0.525
73.8000,0.474
73.8400,0.528
73.8800,0.536
73.9200,0.533
73.9600,0.513
74.0000,0.501
74.0400,0.531
74.0800,0.495
74.1200,0.501
74.1600,0.579
74.2000,0.500
74.2400,0.509
74.2800,0.500
74.3200,0.536
74.3600,0.511
74.4000,0.529
74.4400,0.545
74.4800,0.531
74.5200,0.526
74.5600,0.512
74.6000,0.467
74.6400,0.504
74.6800,0.489
74.7200,0.485
74.7600,0.523
74.8000,0.510
74.8400,0.498
74.8800,0.496
74.9200,0.495
74.9600,0.519
75.0000,0.486
75.0400,0.513
75.0800,0.507
75.1200,0.484
75.1600,0.490
75.2000,0.493
75.2400,0.486
75.2800,0.513
75.3200,0.490
75.3600,0.491
75.4000,0.472
75.4400,0.502
75.4800,0.479
75.5200,0.505
75.5600,0.507
75.6000,0.505
75.6400,0.549
75.6800,0.559
75.7200,0.504
75.7600,0.528
75.8000,0.518
75.8400,0.511
75.8800,0.543
75.9200,0.526
75.9600,0.536
76.0000,0.538
76.0400,0.519
76.0800,0.554
76.1200,0.513
76.1600,0.556
76.2000,0.574
76.2400,0.586
76.2800,0.578
76.3200,0.588
76.3600,0.571
76.4000,0.557
76.4400,0.618
76.4800,0.579
76.5200,0.597
76.5600,0.647
76.6000,0.605
76.6400,0.665
76.6800,0.631
76.7200,0.643
76.7600,0.683
76.8000,0.619
76.8400,0.660
76.8800,0.669
76.9200,0.662
76.9600,0.718
77.0000,0.710
77.0400,0.736
77.0800,0.756
77.1200,0.767
77.1600,0.778
77.2000,0.750
77.2400,0.821
77.2800,0.782
77.3200,0.788
77.3600,0.853
77.4000,0.873
77.4400,0.873
77.4800,0.874
77.5200,0.880
77.5600,0.881
77.6000,0.889
77.6400,0.887
77.6800,0.896
77.7200,0.907
77.7600,0.901
77.8000,0.907
77.8400,0.880
77.8800,0.914
77.9200,0.968
77.9600,0.898
78.0000,0.941
78.0400,0.917
78.0800,0.934
78.1200,0.921
78.1600,0.868
78.2000,0.846
78.2400,0.884
78.2800,0.842
78.3200,0.856
78.3600,0.811
78.4000,0.780
78.4400,0.792
78.4800,0.769
78.5200,0.774
78.5600,0.762
78.6000,0.792
78.6400,0.720
78.6800,0.718
78.7200,0.732
78.7600,0.632
78.8000,0.750
78.8400,0.699
78.8800,0.687
78.9200,0.624
78.9600,0.647
79.0000,0.661
79.0400,0.619
79.0800,0.636
79.1200,0.613
79.1600,0.615
79.2000,0.552
79.2400,0.568
79.2800,0.557
79.3200,0.608
79.3600,0.531
79.4000,0.561
79.4400,0.528
79.4800,0.510
79.5200,0.536
79.5600,0.508
79.6000,0.504
79.6400,0.531
79.6800,0.497
79.7200,0.512
79.7600,0.504
79.8000,0.485
79.8400,0.474
79.8800,0.495
79.9200,0.499
79.9600,0.483
80.0000,0.486
