theta,intensity
5.0000,6.086
5.0400,5.979
5.0800,5.921
5.1200,5.834
5.1600,5.830
5.2000,5.750
5.2400,5.686
5.2800,5.759
5.3200,5.720
5.3600,5.611
5.4000,5.474
5.4400,5.506
5.4800,5.369
5.5200,5.245
5.5600,5.180
5.6000,5.122
5.6400,5.117
5.6800,4.957
5.7200,4.845
5.7600,4.730
5.8000,4.757
5.8400,4.551
5.8800,4.506
5.9200,4.491
5.9600,4.386
6.0000,4.505
6.0400,4.354
6.0800,4.210
6.1200,4.216
6.1600,4.144
6.2000,4.302
6.2400,4.290
6.2800,4.259
6.3200,4.247
6.3600,4.149
6.4000,4.198
6.4400,4.215
6.4800,4.276
6.5200,4.340
6.5600,4.162
6.6000,4.217
6.6400,4.171
6.6800,4.180
6.7200,4.071
6.7600,4.059
6.8000,4.089
6.8400,4.098
6.8800,4.091
6.9200,4.062
6.9600,4.153
7.0000,4.211
7.0400,4.144
7.0800,4.070
7.1200,4.057
7.1600,4.032
7.2000,4.048
7.2400,3.979
7.2800,4.062
7.3200,3.998
7.3600,4.053
7.4000,4.094
7.4400,4.063
7.4800,4.072
7.5200,4.010
7.5600,3.919
7.6000,3.986
7.6400,3.997
7.6800,3.960
7.7200,3.914
7.7600,3.985
7.8000,3.973
7.8400,3.916
7.8800,3.791
7.9200,3.894
7.9600,3.886
8.0000,3.859
8.0400,4.005
8.0800,3.918
8.1200,3.901
8.1600,3.943
8.2000,3.857
8.2400,3.855
8.2800,3.905
8.3200,3.891
8.3600,3.946
8.4000,3.862
8.4400,3.843
8.4800,3.907
8.5200,3.946
8.5600,3.855
8.6000,3.884
8.6400,3.852
8.6800,3.823
8.7200,3.825
8.7600,3.775
8.8000,3.826
8.8400,3.734
8.8800,3.876
8.9200,3.767
8.9600,3.848
9.0000,3.766
9.0400,3.806
9.0800,3.784
9.1200,3.801
9.1600,3.784
9.2000,3.778
9.2400,3.923
9.2800,3.693
9.3200,3.786
9.3600,3.779
9.4000,3.693
9.4400,3.833
9.4800,3.742
9.5200,3.704
9.5600,3.796
9.6000,3.774
9.6400,3.757
9.6800,3.654
9.7200,3.634
9.7600,3.690
9.8000,3.684
9.8400,3.820
9.8800,3.905
9.9200,3.638
9.9600,3.647
10.0000,3.687
10.0400,3.674
10.0800,3.632
10.1200,3.648
10.1600,3.582
10.2000,3.611
10.2400,3.591
10.2800,3.700
10.3200,3.616
10.3600,3.560
10.4000,3.619
10.4400,3.637
10.4800,3.671
10.5200,3.650
10.5600,3.610
10.6000,3.511
10.6400,3.564
10.6800,3.540
10.7200,3.673
10.7600,3.592
10.8000,3.599
10.8400,3.612
10.8800,3.690
10.9200,3.623
10.9600,3.538
11.0000,3.416
11.0400,3.535
11.0800,3.678
11.1200,3.596
11.1600,3.637
11.2000,3.599
11.2400,3.623
11.2800,3.559
11.3200,3.544
11.3600,3.557
11.4000,3.469
11.4400,3.532
11.4800,3.585
11.5200,3.522
11.5600,3.446
11.6000,3.548
11.6400,3.538
11.6800,3.537
11.7200,3.480
11.7600,3.482
11.8000,3.412
11.8400,3.495
11.8800,3.460
11.9200,3.361
11.9600,3.487
12.0000,3.527
12.0400,3.581
12.0800,3.453
12.1200,3.488
12.1600,3.415
12.2000,3.415
12.2400,3.532
12.2800,3.432
12.3200,3.489
12.3600,3.413
12.4000,3.461
12.4400,3.461
12.4800,3.377
12.5200,3.420
12.5600,3.445
12.6000,3.515
12.6400,3.513
12.6800,3.500
12.7200,3.348
12.7600,3.403
12.8000,3.518
12.8400,3.391
12.8800,3.311
12.9200,3.306
12.9600,3.354
13.0000,3.373
13.0400,3.398
13.0800,3.296
13.1200,3.380
13.1600,3.498
13.2000,3.427
13.2400,3.273
13.2800,3.293
13.3200,3.326
13.3600,3.349
13.4000,3.383
13.4400,3.400
13.4800,3.276
13.5200,3.333
13.5600,3.279
13.6000,3.205
13.6400,3.275
13.6800,3.382
13.7200,3.224
13.7600,3.282
13.8000,3.230
13.8400,3.269
13.8800,3.215
13.9200,3.153
13.9600,3.233
14.0000,3.298
14.0400,3.202
14.0800,3.302
14.1200,3.275
14.1600,3.229
14.2000,3.295
14.2400,3.277
14.2800,3.298
14.3200,3.269
14.3600,3.217
14.4000,3.278
14.4400,3.263
14.4800,3.289
14.5200,3.158
14.5600,3.200
14.6000,3.316
14.6400,3.238
14.6800,3.113
14.7200,3.288
14.7600,3.198
14.8000,3.144
14.8400,3.173
14.8800,3.236
14.9200,3.182
14.9600,3.238
15.0000,3.248
15.0400,3.174
15.0800,3.167
15.1200,3.165
15.1600,3.169
15.2000,3.218
15.2400,3.097
15.2800,3.139
15.3200,3.171
15.3600,3.030
15.4000,3.137
15.4400,3.184
15.4800,3.161
15.5200,3.081
15.5600,3.084
15.6000,3.081
15.6400,3.180
15.6800,3.090
15.7200,3.183
15.7600,3.105
15.8000,3.075
15.8400,3.011
15.8800,2.982
15.9200,3.069
15.9600,3.018
16.0000,3.097
16.0400,3.070
16.0800,3.147
16.1200,3.084
16.1600,3.120
16.2000,3.140
16.2400,3.139
16.2800,3.011
16.3200,3.106
16.3600,3.002
16.4000,2.969
16.4400,3.069
16.4800,3.033
16.5200,3.099
16.5600,3.056
16.6000,3.111
16.6400,3.108
16.6800,3.051
16.7200,3.002
16.7600,3.039
16.8000,3.011
16.8400,3.080
16.8800,2.998
16.9200,3.005
16.9600,3.007
17.0000,3.038
17.0400,2.956
17.0800,2.967
17.1200,2.969
17.1600,2.902
17.2000,2.990
17.2400,2.996
17.2800,3.023
17.3200,2.946
17.3600,2.931
17.4000,2.909
17.4400,3.013
17.4800,2.926
17.5200,2.848
17.5600,2.947
17.6000,2.874
17.6400,2.917
17.6800,2.908
17.7200,2.931
17.7600,2.877
17.8000,2.814
17.8400,2.898
17.8800,2.939
17.9200,2.958
17.9600,2.864
18.0000,2.961
18.0400,2.843
18.0800,2.922
18.1200,2.867
18.1600,2.846
18.2000,2.901
18.2400,2.937
18.2800,2.891
18.3200,2.873
18.3600,2.867
18.4000,2.865
18.4400,2.816
18.4800,2.935
18.5200,2.899
18.5600,2.901
18.6000,2.808
18.6400,2.849
18.6800,2.963
18.7200,2.848
18.7600,2.848
18.8000,2.825
18.8400,2.752
18.8800,2.794
18.9200,2.778
18.9600,2.747
19.0000,2.861
19.0400,2.937
19.0800,2.850
19.1200,2.751
19.1600,2.804
19.2000,2.799
19.2400,2.758
19.2800,2.707
19.3200,2.756
19.3600,2.803
19.4000,2.808
19.4400,2.745
19.4800,2.882
19.5200,2.732
19.5600,2.710
19.6000,2.743
19.6400,2.798
19.6800,2.889
19.7200,2.748
19.7600,2.784
19.8000,2.765
19.8400,2.747
19.8800,2.784
19.9200,2.744
19.9600,2.747
20.0000,2.668
20.0400,2.755
20.0800,2.771
20.1200,2.744
20.1600,2.689
20.2000,2.723
20.2400,2.710
20.2800,2.679
20.3200,2.670
20.3600,2.654
20.4000,2.599
20.4400,2.768
20.4800,2.647
20.5200,2.658
20.5600,2.707
20.6000,2.670
20.6400,2.674
20.6800,2.557
20.7200,2.624
20.7600,2.652
20.8000,2.654
20.8400,2.709
20.8800,2.698
20.9200,2.621
20.9600,2.607
21.0000,2.543
21.0400,2.598
21.0800,2.586
21.1200,2.686
21.1600,2.676
21.2000,2.666
21.2400,2.604
21.2800,2.611
21.3200,2.547
21.3600,2.650
21.4000,2.552
21.4400,2.589
21.4800,2.550
21.5200,2.698
21.5600,2.623
21.6000,2.589
21.6400,2.514
21.6800,2.544
21.7200,2.604
21.7600,2.634
21.8000,2.561
21.8400,2.678
21.8800,2.602
21.9200,2.558
21.9600,2.618
22.0000,2.451
22.0400,2.599
22.0800,2.523
22.1200,2.547
22.1600,2.575
22.2000,2.507
22.2400,2.524
22.2800,2.506
22.3200,2.580
22.3600,2.522
22.4000,2.464
22.4400,2.560
22.4800,2.523
22.5200,2.512
22.5600,2.502
22.6000,2.450
22.6400,2.491
22.6800,2.483
22.7200,2.528
22.7600,2.476
22.8000,2.519
22.8400,2.508
22.8800,2.435
22.9200,2.466
22.9600,2.426
23.0000,2.449
23.0400,2.453
23.0800,2.487
23.1200,2.438
23.1600,2.514
23.2000,2.397
23.2400,2.452
23.2800,2.380
23.3200,2.472
23.3600,2.430
23.4000,2.425
23.4400,2.422
23.4800,2.499
23.5200,2.398
23.5600,2.490
23.6000,2.488
23.6400,2.365
23.6800,2.490
23.7200,2.396
23.7600,2.360
23.8000,2.434
23.8400,2.412
23.8800,2.381
23.9200,2.405
23.9600,2.377
24.0000,2.374
24.0400,2.415
24.0800,2.388
24.1200,2.365
24.1600,2.253
24.2000,2.374
24.2400,2.351
24.2800,2.367
24.3200,2.327
24.3600,2.250
24.4000,2.406
24.4400,2.378
24.4800,2.343
24.5200,2.316
24.5600,2.377
24.6000,2.368
24.6400,2.292
24.6800,2.355
24.7200,2.339
24.7600,2.358
24.8000,2.443
24.8400,2.361
24.8800,2.298
24.9200,2.429
24.9600,2.381
25.0000,2.331
25.0400,2.304
25.0800,2.230
25.1200,2.287
25.1600,2.316
25.2000,2.300
25.2400,2.180
25.2800,2.255
25.3200,2.247
25.3600,2.378
25.4000,2.337
25.4400,2.316
25.4800,2.301
25.5200,2.203
25.5600,2.246
25.6000,2.224
25.6400,2.202
25.6800,2.227
25.7200,2.144
25.7600,2.267
25.8000,2.267
25.8400,2.228
25.8800,2.286
25.9200,2.217
25.9600,2.196
26.0000,2.242
26.0400,2.233
26.0800,2.238
26.1200,2.266
26.1600,2.120
26.2000,2.123
26.2400,2.156
26.2800,2.208
26.3200,2.261
26.3600,2.212
26.4000,2.141
26.4400,2.171
26.4800,2.201
26.5200,2.278
26.5600,2.163
26.6000,2.119
26.6400,2.119
26.6800,2.155
26.7200,2.172
26.7600,2.136
26.8000,2.150
26.8400,2.219
26.8800,2.131
26.9200,2.115
26.9600,2.111
27.0000,2.169
27.0400,2.190
27.0800,2.178
27.1200,2.163
27.1600,2.160
27.2000,2.118
27.2400,2.072
27.2800,2.160
27.3200,2.188
27.3600,1.998
27.4000,2.104
27.4400,2.132
27.4800,2.119
27.5200,2.117
27.5600,2.139
27.6000,2.110
27.6400,2.087
27.6800,2.066
27.7200,2.108
27.7600,2.097
27.8000,2.115
27.8400,2.065
27.8800,2.116
27.9200,2.099
27.9600,2.189
28.0000,2.090
28.0400,1.986
28.0800,2.125
28.1200,2.088
28.1600,2.086
28.2000,2.093
28.2400,2.076
28.2800,2.046
28.3200,2.006
28.3600,2.040
28.4000,2.090
28.4400,1.993
28.4800,2.054
28.5200,2.057
28.5600,2.037
28.6000,2.038
28.6400,2.058
28.6800,2.053
28.7200,2.035
28.7600,2.000
28.8000,2.057
28.8400,1.969
28.8800,2.010
28.9200,2.031
28.9600,1.992
29.0000,2.010
29.0400,2.006
29.0800,1.957
29.1200,2.041
29.1600,1.951
29.2000,1.899
29.2400,1.958
29.2800,1.989
29.3200,1.986
29.3600,1.895
29.4000,1.970
29.4400,2.040
29.4800,1.940
29.5200,2.026
29.5600,1.965
29.6000,1.892
29.6400,1.955
29.6800,1.967
29.7200,1.964
29.7600,1.995
29.8000,1.964
29.8400,1.984
29.8800,1.982
29.9200,1.969
29.9600,1.894
30.0000,1.982
30.0400,1.937
30.0800,1.952
30.1200,1.873
30.1600,1.886
30.2000,1.930
30.2400,1.900
30.2800,1.846
30.3200,1.891
30.3600,1.834
30.4000,1.879
30.4400,1.883
30.4800,1.860
30.5200,1.890
30.5600,1.909
30.6000,1.793
30.6400,1.853
30.6800,1.884
30.7200,1.853
30.7600,1.850
30.8000,1.813
30.8400,1.917
30.8800,1.810
30.9200,1.853
30.9600,1.897
31.0000,1.809
31.0400,1.850
31.0800,1.900
31.1200,1.788
31.1600,1.909
31.2000,1.843
31.2400,1.767
31.2800,1.849
31.3200,1.744
31.3600,1.829
31.4000,1.873
31.4400,1.834
31.4800,1.748
31.5200,1.899
31.5600,1.817
31.6000,1.771
31.6400,1.800
31.6800,1.803
31.7200,1.846
31.7600,1.769
31.8000,1.792
31.8400,1.807
31.8800,1.763
31.9200,1.821
31.9600,1.721
32.0000,1.767
32.0400,1.757
32.0800,1.767
32.1200,1.760
32.1600,1.692
32.2000,1.822
32.2400,1.739
32.2800,1.722
32.3200,1.736
32.3600,1.763
32.4000,1.784
32.4400,1.867
32.4800,1.721
32.5200,1.720
32.5600,1.731
32.6000,1.706
32.6400,1.758
32.6800,1.761
32.7200,1.742
32.7600,1.705
32.8000,1.719
32.8400,1.729
32.8800,1.730
32.9200,1.733
32.9600,1.639
33.0000,1.757
33.0400,1.714
33.0800,1.716
33.1200,1.685
33.1600,1.692
33.2000,1.664
33.2400,1.732
33.2800,1.646
33.3200,1.659
33.3600,1.714
33.4000,1.746
33.4400,1.665
33.4800,1.719
33.5200,1.750
33.5600,1.651
33.6000,1.692
33.6400,1.733
33.6800,1.702
33.7200,1.693
33.7600,1.653
33.8000,1.680
33.8400,1.570
33.8800,1.630
33.9200,1.614
33.9600,1.579
34.0000,1.601
34.0400,1.696
34.0800,1.641
34.1200,1.662
34.1600,1.633
34.2000,1.667
34.2400,1.637
34.2800,1.711
34.3200,1.655
34.3600,1.700
34.4000,1.658
34.4400,1.719
34.4800,1.683
34.5200,1.706
34.5600,1.657
34.6000,1.600
34.6400,1.603
34.6800,1.592
34.7200,1.578
34.7600,1.692
34.8000,1.660
34.8400,1.632
34.8800,1.667
34.9200,1.649
34.9600,1.634
35.0000,1.716
35.0400,1.632
35.0800,1.621
35.1200,1.678
35.1600,1.710
35.2000,1.677
35.2400,1.626
35.2800,1.625
35.3200,1.655
35.3600,1.653
35.4000,1.695
35.4400,1.607
35.4800,1.656
35.5200,1.625
35.5600,1.741
35.6000,1.635
35.6400,1.625
35.6800,1.641
35.7200,1.682
35.7600,1.684
35.8000,1.694
35.8400,1.728
35.8800,1.609
35.9200,1.701
35.9600,1.679
36.0000,1.649
36.0400,1.698
36.0800,1.649
36.1200,1.752
36.1600,1.760
36.2000,1.780
36.2400,1.724
36.2800,1.704
36.3200,1.764
36.3600,1.742
36.4000,1.746
36.4400,1.725
36.4800,1.817
36.5200,1.781
36.5600,1.830
36.6000,1.780
36.6400,1.742
36.6800,1.898
36.7200,1.919
36.7600,1.877
36.8000,1.841
36.8400,1.884
36.8800,2.013
36.9200,2.003
36.9600,2.058
37.0000,1.982
37.0400,2.028
37.0800,2.063
37.1200,2.202
37.1600,2.203
37.2000,2.224
37.2400,2.261
37.2800,2.302
37.3200,2.428
37.3600,2.542
37.4000,2.505
37.4400,2.588
37.4800,2.672
37.5200,2.646
37.5600,2.824
37.6000,3.009
37.6400,2.973
37.6800,3.170
37.7200,3.266
37.7600,3.321
37.8000,3.443
37.8400,3.571
37.8800,3.802
37.9200,3.987
37.9600,4.123
38.0000,4.381
38.0400,4.447
38.0800,4.591
38.1200,4.667
38.1600,4.971
38.2000,5.184
38.2400,5.169
38.2800,5.186
38.3200,5.172
38.3600,5.373
38.4000,5.350
38.4400,5.297
38.4800,5.119
38.5200,5.215
38.5600,5.050
38.6000,4.932
38.6400,4.758
38.6800,4.795
38.7200,4.587
38.7600,4.505
38.8000,4.369
38.8400,4.073
38.8800,4.160
38.9200,3.869
38.9600,3.848
39.0000,3.748
39.0400,3.655
39.0800,3.556
39.1200,3.382
39.1600,3.208
39.2000,3.309
39.2400,3.189
39.2800,3.018
39.3200,3.022
39.3600,2.818
39.4000,2.786
39.4400,2.821
39.4800,2.667
39.5200,2.702
39.5600,2.488
39.6000,2.496
39.6400,2.504
39.6800,2.424
39.7200,2.418
39.7600,2.372
39.8000,2.334
39.8400,2.305
39.8800,2.251
39.9200,2.269
39.9600,2.304
40.0000,2.212
40.0400,2.226
40.0800,2.158
40.1200,2.158
40.1600,2.115
40.2000,2.070
40.2400,1.948
40.2800,1.992
40.3200,2.017
40.3600,2.005
40.4000,1.976
40.4400,1.980
40.4800,1.980
40.5200,1.977
40.5600,1.954
40.6000,1.933
40.6400,1.912
40.6800,1.791
40.7200,1.925
40.7600,1.921
40.8000,1.920
40.8400,1.824
40.8800,1.819
40.9200,1.818
40.9600,1.823
41.0000,1.863
41.0400,1.812
41.0800,1.747
41.1200,1.769
41.1600,1.770
41.2000,1.736
41.2400,1.756
41.2800,1.708
41.3200,1.724
41.3600,1.794
41.4000,1.762
41.4400,1.696
41.4800,1.694
41.5200,1.635
41.5600,1.701
41.6000,1.657
41.6400,1.728
41.6800,1.667
41.7200,1.721
41.7600,1.662
41.8000,1.677
41.8400,1.731
41.8800,1.701
41.9200,1.728
41.9600,1.652
42.0000,1.683
42.0400,1.610
42.0800,1.652
42.1200,1.620
42.1600,1.669
42.2000,1.659
42.2400,1.639
42.2800,1.650
42.3200,1.623
42.3600,1.658
42.4000,1.692
42.4400,1.676
42.4800,1.681
42.5200,1.661
42.5600,1.681
42.6000,1.656
42.6400,1.666
42.6800,1.674
42.7200,1.659
42.7600,1.708
42.8000,1.652
42.8400,1.711
42.8800,1.711
42.9200,1.778
42.9600,1.720
43.0000,1.735
43.0400,1.733
43.0800,1.731
43.1200,1.703
43.1600,1.798
43.2000,1.706
43.2400,1.786
43.2800,1.731
43.3200,1.791
43.3600,1.800
43.4000,1.825
43.4400,1.787
43.4800,1.801
43.5200,1.867
43.5600,1.861
43.6000,1.838
43.6400,1.875
43.6800,1.896
43.7200,1.836
43.7600,1.875
43.8000,1.878
43.8400,1.929
43.8800,1.997
43.9200,1.842
43.9600,1.960
44.0000,2.021
44.0400,2.009
44.0800,2.009
44.1200,2.014
44.1600,1.990
44.2000,1.988
44.2400,1.997
44.2800,2.022
44.3200,1.989
44.3600,2.038
44.4000,2.064
44.4400,2.078
44.4800,2.068
44.5200,2.001
44.5600,1.996
44.6000,1.996
44.6400,2.037
44.6800,2.016
44.7200,1.990
44.7600,1.973
44.8000,1.977
44.8400,1.863
44.8800,1.896
44.9200,1.832
44.9600,1.797
45.0000,1.737
45.0400,1.821
45.0800,1.808
45.1200,1.756
45.1600,1.718
45.2000,1.660
45.2400,1.632
45.2800,1.659
45.3200,1.621
45.3600,1.635
45.4000,1.589
45.4400,1.626
45.4800,1.532
45.5200,1.504
45.5600,1.509
45.6000,1.465
45.6400,1.455
45.6800,1.442
45.7200,1.408
45.7600,1.352
45.8000,1.345
45.8400,1.289
45.8800,1.296
45.9200,1.310
45.9600,1.306
46.0000,1.310
46.0400,1.268
46.0800,1.290
46.1200,1.304
46.1600,1.255
46.2000,1.204
46.2400,1.224
46.2800,1.210
46.3200,1.223
46.3600,1.253
46.4000,1.196
46.4400,1.176
46.4800,1.179
46.5200,1.208
46.5600,1.150
46.6000,1.146
46.6400,1.175
46.6800,1.127
46.7200,1.097
46.7600,1.168
46.8000,1.134
46.8400,1.104
46.8800,1.077
46.9200,1.094
46.9600,1.076
47.0000,1.074
47.0400,1.080
47.0800,1.029
47.1200,1.072
47.1600,1.082
47.2000,1.071
47.2400,1.061
47.2800,1.091
47.3200,1.088
47.3600,1.032
47.4000,1.082
47.4400,1.037
47.4800,1.081
47.5200,1.024
47.5600,1.026
47.6000,1.038
47.6400,0.986
47.6800,1.026
47.7200,1.027
47.7600,1.017
47.8000,0.982
47.8400,0.972
47.8800,0.970
47.9200,0.952
47.9600,0.948
48.0000,0.980
48.0400,0.954
48.0800,0.969
48.1200,1.013
48.1600,0.949
48.2000,0.949
48.2400,0.981
48.2800,0.964
48.3200,0.965
48.3600,0.938
48.4000,0.955
48.4400,0.954
48.4800,0.942
48.5200,0.954
48.5600,0.891
48.6000,0.936
48.6400,0.908
48.6800,0.877
48.7200,0.906
48.7600,0.911
48.8000,0.894
48.8400,0.931
48.8800,0.888
48.9200,0.902
48.9600,0.908
49.0000,0.875
49.0400,0.969
49.0800,0.877
49.1200,0.921
49.1600,0.953
49.2000,0.856
49.2400,0.910
49.2800,0.897
49.3200,0.927
49.3600,0.879
49.4000,0.936
49.4400,0.868
49.4800,0.849
49.5200,0.886
49.5600,0.838
49.6000,0.898
49.6400,0.877
49.6800,0.852
49.7200,0.849
49.7600,0.884
49.8000,0.860
49.8400,0.862
49.8800,0.950
49.9200,0.928
49.9600,0.874
50.0000,0.841
50.0400,0.897
50.0800,0.812
50.1200,0.846
50.1600,0.860
50.2000,0.842
50.2400,0.810
50.2800,0.861
50.3200,0.846
50.3600,0.842
50.4000,0.882
50.4400,0.787
50.4800,0.838
50.5200,0.812
50.5600,0.806
50.6000,0.849
50.6400,0.844
50.6800,0.817
50.7200,0.830
50.7600,0.837
50.8000,0.829
50.8400,0.789
50.8800,0.858
50.9200,0.798
50.9600,0.817
51.0000,0.824
51.0400,0.817
51.0800,0.847
51.1200,0.778
51.1600,0.877
51.2000,0.830
51.2400,0.773
51.2800,0.841
51.3200,0.801
51.3600,0.788
51.4000,0.785
51.4400,0.811
51.4800,0.808
51.5200,0.797
51.5600,0.805
51.6000,0.810
51.6400,0.790
51.6800,0.759
51.7200,0.774
51.7600,0.794
51.8000,0.819
51.8400,0.770
51.8800,0.833
51.9200,0.766
51.9600,0.813
52.0000,0.759
52.0400,0.769
52.0800,0.764
52.1200,0.755
52.1600,0.767
52.2000,0.767
52.2400,0.773
52.2800,0.816
52.3200,0.778
52.3600,0.778
52.4000,0.772
52.4400,0.755
52.4800,0.772
52.5200,0.764
52.5600,0.717
52.6000,0.713
52.6400,0.796
52.6800,0.779
52.7200,0.736
52.7600,0.741
52.8000,0.764
52.8400,0.700
52.8800,0.768
52.9200,0.699
52.9600,0.750
53.0000,0.774
53.0400,0.730
53.0800,0.736
53.1200,0.724
53.1600,0.768
53.2000,0.719
53.2400,0.783
53.2800,0.771
53.3200,0.784
53.3600,0.724
53.4000,0.692
53.4400,0.726
53.4800,0.739
53.5200,0.704
53.5600,0.661
53.6000,0.710
53.6400,0.742
53.6800,0.779
53.7200,0.709
53.7600,0.710
53.8000,0.757
53.8400,0.735
53.8800,0.701
53.9200,0.720
53.9600,0.720
54.0000,0.735
54.0400,0.743
54.0800,0.674
54.1200,0.762
54.1600,0.759
54.2000,0.756
54.2400,0.719
54.2800,0.738
54.3200,0.679
54.3600,0.703
54.4000,0.686
54.4400,0.728
54.4800,0.693
54.5200,0.702
54.5600,0.706
54.6000,0.700
54.6400,0.722
54.6800,0.701
54.7200,0.706
54.7600,0.733
54.8000,0.690
54.8400,0.677
54.8800,0.640
54.9200,0.744
54.9600,0.712
55.0000,0.709
55.0400,0.674
55.0800,0.704
55.1200,0.680
55.1600,0.707
55.2000,0.736
55.2400,0.695
55.2800,0.696
55.3200,0.687
55.3600,0.664
55.4000,0.650
55.4400,0.661
55.4800,0.666
55.5200,0.687
55.5600,0.673
55.6000,0.673
55.6400,0.668
55.6800,0.680
55.7200,0.653
55.7600,0.700
55.8000,0.729
55.8400,0.701
55.8800,0.704
55.9200,0.655
55.9600,0.702
56.0000,0.674
56.0400,0.707
56.0800,0.665
56.1200,0.636
56.1600,0.700
56.2000,0.678
56.2400,0.633
56.2800,0.690
56.3200,0.659
56.3600,0.634
56.4000,0.694
56.4400,0.664
56.4800,0.614
56.5200,0.677
56.5600,0.678
56.6000,0.659
56.6400,0.623
56.6800,0.665
56.7200,0.636
56.7600,0.633
56.8000,0.664
56.8400,0.652
56.8800,0.657
56.9200,0.675
56.9600,0.650
57.0000,0.638
57.0400,0.677
57.0800,0.661
57.1200,0.659
57.1600,0.691
57.2000,0.690
57.2400,0.680
57.2800,0.662
57.3200,0.658
57.3600,0.688
57.4000,0.683
57.4400,0.646
57.4800,0.683
57.5200,0.629
57.5600,0.654
57.6000,0.669
57.6400,0.655
57.6800,0.655
57.7200,0.655
57.7600,0.632
57.8000,0.644
57.8400,0.632
57.8800,0.695
57.9200,0.635
57.9600,0.650
58.0000,0.655
58.0400,0.640
58.0800,0.627
58.1200,0.684
58.1600,0.713
58.2000,0.650
58.2400,0.649
58.2800,0.691
58.3200,0.645
58.3600,0.655
58.4000,0.623
58.4400,0.634
58.4800,0.599
58.5200,0.633
58.5600,0.683
58.6000,0.601
58.6400,0.619
58.6800,0.598
58.7200,0.648
58.7600,0.674
58.8000,0.616
58.8400,0.605
58.8800,0.596
58.9200,0.600
58.9600,0.575
59.0000,0.625
59.0400,0.688
59.0800,0.640
59.1200,0.619
59.1600,0.630
59.2000,0.625
59.2400,0.623
59.2800,0.609
59.3200,0.600
59.3600,0.625
59.4000,0.594
59.4400,0.599
59.4800,0.588
59.5200,0.613
59.5600,0.579
59.6000,0.583
59.6400,0.647
59.6800,0.618
59.7200,0.610
59.7600,0.612
59.8000,0.645
59.8400,0.613
59.8800,0.590
59.9200,0.619
59.9600,0.665
60.0000,0.651
60.0400,0.635
60.0800,0.592
60.1200,0.622
60.1600,0.596
60.2000,0.627
60.2400,0.601
60.2800,0.640
60.3200,0.598
60.3600,0.625
60.4000,0.626
60.4400,0.642
60.4800,0.576
60.5200,0.593
60.5600,0.620
60.6000,0.607
60.6400,0.571
60.6800,0.642
60.7200,0.602
60.7600,0.637
60.8000,0.629
60.8400,0.611
60.8800,0.597
60.9200,0.650
60.9600,0.616
61.0000,0.601
61.0400,0.614
61.0800,0.593
61.1200,0.590
61.1600,0.624
61.2000,0.613
61.2400,0.628
61.2800,0.595
61.3200,0.602
61.3600,0.548
61.4000,0.599
61.4400,0.625
61.4800,0.625
61.5200,0.574
61.5600,0.620
61.6000,0.604
61.6400,0.660
61.6800,0.739
61.7200,0.688
61.7600,0.638
61.8000,0.627
61.8400,0.611
61.8800,0.595
61.9200,0.615
61.9600,0.620
62.0000,0.601
62.0400,0.647
62.0800,0.606
62.1200,0.610
62.1600,0.627
62.2000,0.603
62.2400,0.621
62.2800,0.638
62.3200,0.643
62.3600,0.620
62.4000,0.634
62.4400,0.622
62.4800,0.608
62.5200,0.635
62.5600,0.609
62.6000,0.648
62.6400,0.636
62.6800,0.655
62.7200,0.644
62.7600,0.637
62.8000,0.680
62.8400,0.624
62.8800,0.632
62.9200,0.662
62.9600,0.686
63.0000,0.668
63.0400,0.611
63.0800,0.657
63.1200,0.666
63.1600,0.694
63.2000,0.607
63.2400,0.675
63.2800,0.689
63.3200,0.730
63.3600,0.742
63.4000,0.705
63.4400,0.703
63.4800,0.697
63.5200,0.717
63.5600,0.795
63.6000,0.724
63.6400,0.746
63.6800,0.741
63.7200,0.709
63.7600,0.758
63.8000,0.798
63.8400,0.805
63.8800,0.813
63.9200,0.750
63.9600,0.821
64.0000,0.820
64.0400,0.844
64.0800,0.820
64.1200,0.866
64.1600,0.836
64.2000,0.876
64.2400,0.920
64.2800,0.881
64.3200,0.909
64.3600,0.893
64.4000,0.926
64.4400,0.967
64.4800,0.995
64.5200,1.052
64.5600,1.005
64.6000,1.038
64.6400,1.019
64.6800,1.023
64.7200,1.043
64.7600,1.010
64.8000,1.022
64.8400,1.013
64.8800,1.043
64.9200,1.083
64.9600,1.087
65.0000,1.083
65.0400,1.096
65.0800,1.086
65.1200,1.077
65.1600,1.047
65.2000,1.035
65.2400,0.979
65.2800,1.025
65.3200,1.045
65.3600,1.032
65.4000,1.018
65.4400,1.017
65.4800,0.979
65.5200,0.988
65.5600,0.978
65.6000,0.964
65.6400,0.952
65.6800,0.977
65.7200,1.016
65.7600,0.972
65.8000,0.983
65.8400,1.029
65.8800,0.989
65.9200,0.949
65.9600,0.983
66.0000,0.981
66.0400,0.908
66.0800,0.911
66.1200,0.995
66.1600,0.973
66.2000,0.977
66.2400,0.968
66.2800,0.966
66.3200,0.982
66.3600,0.935
66.4000,1.014
66.4400,1.011
66.4800,1.003
66.5200,0.983
66.5600,0.954
66.6000,0.991
66.6400,1.003
66.6800,1.007
66.7200,1.017
66.7600,0.979
66.8000,1.010
66.8400,1.036
66.8800,1.069
66.9200,1.086
66.9600,1.050
67.0000,1.098
67.0400,1.060
67.0800,1.093
67.1200,1.111
67.1600,1.161
67.2000,1.171
67.2400,1.153
67.2800,1.188
67.3200,1.105
67.3600,1.152
67.4000,1.262
67.4400,1.284
67.4800,1.311
67.5200,1.332
67.5600,1.352
67.6000,1.292
67.6400,1.323
67.6800,1.353
67.7200,1.432
67.7600,1.413
67.8000,1.465
67.8400,1.501
67.8800,1.586
67.9200,1.634
67.9600,1.598
68.0000,1.684
68.0400,1.707
68.0800,1.708
68.1200,1.725
68.1600,1.776
68.2000,1.778
68.2400,1.908
68.2800,1.976
68.3200,1.966
68.3600,2.119
68.4000,2.272
68.4400,2.242
68.4800,2.492
68.5200,2.584
68.5600,2.701
68.6000,2.925
68.6400,3.268
68.6800,3.666
68.7200,4.617
68.7600,5.758
68.8000,6.960
68.8400,7.354
68.8800,7.506
68.9200,8.383
68.9600,11.158
69.0000,16.623
69.0400,32.140
69.0800,134.833
69.1200,436.300
69.1600,417.480
69.2000,127.086
69.2400,45.300
69.2800,92.274
69.3200,227.671
69.3600,200.329
69.4000,62.787
69.4400,19.472
69.4800,11.323
69.5200,8.485
69.5600,6.854
69.6000,5.569
69.6400,4.979
69.6800,4.389
69.7200,4.001
69.7600,3.599
69.8000,3.233
69.8400,3.105
69.8800,2.879
69.9200,2.738
69.9600,2.555
70.0000,2.513
70.0400,2.420
70.0800,2.237
70.1200,2.193
70.1600,2.101
70.2000,2.091
70.2400,1.997
70.2800,1.941
70.3200,1.893
70.3600,1.832
70.4000,1.801
70.4400,1.633
70.4800,1.699
70.5200,1.616
70.5600,1.509
70.6000,1.448
70.6400,1.402
70.6800,1.481
70.7200,1.415
70.7600,1.318
70.8000,1.364
70.8400,1.287
70.8800,1.295
70.9200,1.292
70.9600,1.207
71.0000,1.170
71.0400,1.188
71.0800,1.142
71.1200,1.130
71.1600,1.114
71.2000,1.081
71.2400,1.005
71.2800,0.967
71.3200,0.965
71.3600,0.952
71.4000,0.942
71.4400,0.974
71.4800,0.946
71.5200,0.959
71.5600,0.921
71.6000,0.891
71.6400,0.870
71.6800,0.837
71.7200,0.829
71.7600,0.801
71.8000,0.848
71.8400,0.772
71.8800,0.810
71.9200,0.759
71.9600,0.778
72.0000,0.767
72.0400,0.768
72.0800,0.756
72.1200,0.753
72.1600,0.759
72.2000,0.735
72.2400,0.690
72.2800,0.673
72.3200,0.643
72.3600,0.654
72.4000,0.701
72.4400,0.686
72.4800,0.674
72.5200,0.631
72.5600,0.687
72.6000,0.625
72.6400,0.643
72.6800,0.624
72.7200,0.624
72.7600,0.593
72.8000,0.608
72.8400,0.588
72.8800,0.607
72.9200,0.567
72.9600,0.566
73.0000,0.593
73.0400,0.564
73.0800,0.584
73.1200,0.579
73.1600,0.535
73.2000,0.539
73.2400,0.579
73.2800,0.536
73.3200,0.592
73.3600,0.549
73.4000,0.569
73.4400,0.549
73.4800,0.563
73.5200,0.510
73.5600,0.532
73.6000,0.514
73.6400,0.537
73.6800,0.493
73.7200,0.514
73.7600,0.524
73.8000,0.496
73.8400,0.523
73.8800,0.536
73.9200,0.534
73.9600,0.474
74.0000,0.528
74.0400,0.534
74.0800,0.519
74.1200,0.509
74.1600,0.527
74.2000,0.525
74.2400,0.495
74.2800,0.484
74.3200,0.500
74.3600,0.528
74.4000,0.503
74.4400,0.499
74.4800,0.514
74.5200,0.483
74.5600,0.474
74.6000,0.452
74.6400,0.493
74.6800,0.500
74.7200,0.503
74.7600,0.477
74.8000,0.479
74.8400,0.482
74.8800,0.472
74.9200,0.490
74.9600,0.490
75.0000,0.479
75.0400,0.496
75.0800,0.476
75.1200,0.482
75.1600,0.521
75.2000,0.503
75.2400,0.482
75.2800,0.475
75.3200,0.464
75.3600,0.518
75.4000,0.515
75.4400,0.468
75.4800,0.467
75.5200,0.453
75.5600,0.488
75.6000,0.485
75.6400,0.467
75.6800,0.471
75.7200,0.496
75.7600,0.494
75.8000,0.510
75.8400,0.515
75.8800,0.520
75.9200,0.484
75.9600,0.483
76.0000,0.515
76.0400,0.487
76.0800,0.490
76.1200,0.510
76.1600,0.537
76.2000,0.492
76.2400,0.499
76.2800,0.555
76.3200,0.528
76.3600,0.543
76.4000,0.557
76.4400,0.545
76.4800,0.508
76.5200,0.556
76.5600,0.569
76.6000,0.585
76.6400,0.577
76.6800,0.585
76.7200,0.575
76.7600,0.560
76.8000,0.529
76.8400,0.584
76.8800,0.574
76.9200,0.618
76.9600,0.563
77.0000,0.608
77.0400,0.642
77.0800,0.616
77.1200,0.623
77.1600,0.655
77.2000,0.655
77.2400,0.641
77.2800,0.680
77.3200,0.655
77.3600,0.650
77.4000,0.705
77.4400,0.673
77.4800,0.679
77.5200,0.695
77.5600,0.747
77.6000,0.723
77.6400,0.713
77.6800,0.697
77.7200,0.718
77.7600,0.701
77.8000,0.709
77.8400,0.723
77.8800,0.770
77.9200,0.728
77.9600,0.728
78.0000,0.717
78.0400,0.718
78.0800,0.701
78.1200,0.709
78.1600,0.697
78.2000,0.681
78.2400,0.696
78.2800,0.734
78.3200,0.650
78.3600,0.638
78.4000,0.678
78.4400,0.718
78.4800,0.694
78.5200,0.683
78.5600,0.599
78.6000,0.597
78.6400,0.590
78.6800,0.659
78.7200,0.638
78.7600,0.632
78.8000,0.581
78.8400,0.562
78.8800,0.585
78.9200,0.584
78.9600,0.554
79.0000,0.585
79.0400,0.555
79.0800,0.571
79.1200,0.555
79.1600,0.530
79.2000,0.511
79.2400,0.523
79.2800,0.538
79.3200,0.502
79.3600,0.484
79.4000,0.517
79.4400,0.502
79.4800,0.462
79.5200,0.464
79.5600,0.492
79.6000,0.464
79.6400,0.459
79.6800,0.445
79.7200,0.448
79.7600,0.430
79.8000,0.435
79.8400,0.463
79.8800,0.417
79.9200,0.466
79.9600,0.441
80.0000,0.464
