theta,intensity
5.0000,7.831
5.0400,7.642
5.0800,7.397
5.1200,7.503
5.1600,7.421
5.2000,7.187
5.2400,7.133
5.2800,6.901
5.3200,6.861
5.3600,6.598
5.4000,6.653
5.4400,6.404
5.4800,6.324
5.5200,6.260
5.5600,6.103
5.6000,5.942
5.6400,5.798
5.6800,5.613
5.7200,5.488
5.7600,5.349
5.8000,5.399
5.8400,5.299
5.8800,5.165
5.9200,5.050
5.9600,4.966
6.0000,4.917
6.0400,4.924
6.0800,4.863
6.1200,4.622
6.1600,4.654
6.2000,4.613
6.2400,4.478
6.2800,4.459
6.3200,4.498
6.3600,4.579
6.4000,4.519
6.4400,4.306
6.4800,4.316
6.5200,4.341
6.5600,4.166
6.6000,4.262
6.6400,4.313
6.6800,4.164
6.7200,4.181
6.7600,4.173
6.8000,4.210
6.8400,4.126
6.8800,4.183
6.9200,4.209
6.9600,4.204
7.0000,4.211
7.0400,4.104
7.0800,4.090
7.1200,4.115
7.1600,4.084
7.2000,4.034
7.2400,4.188
7.2800,4.063
7.3200,4.140
7.3600,4.059
7.4000,4.104
7.4400,4.152
7.4800,3.934
7.5200,4.010
7.5600,3.987
7.6000,4.134
7.6400,4.114
7.6800,3.947
7.7200,4.042
7.7600,4.082
7.8000,4.078
7.8400,4.028
7.8800,4.082
7.9200,3.825
7.9600,3.974
8.0000,4.017
8.0400,3.895
8.0800,3.970
8.1200,3.964
8.1600,3.960
8.2000,3.976
8.2400,3.942
8.2800,4.023
8.3200,4.007
8.3600,3.962
8.4000,3.929
8.4400,3.959
8.4800,3.833
8.5200,3.967
8.5600,3.801
8.6000,3.917
8.6400,3.785
8.6800,3.838
8.7200,3.756
8.7600,3.847
8.8000,3.930
8.8400,3.814
8.8800,3.931
8.9200,3.742
8.9600,3.811
9.0000,3.854
9.0400,3.771
9.0800,3.707
9.1200,3.619
9.1600,3.780
9.2000,3.886
9.2400,3.840
9.2800,3.826
9.3200,3.777
9.3600,3.766
9.4000,3.764
9.4400,3.797
9.4800,3.734
9.5200,3.737
9.5600,3.807
9.6000,3.741
9.6400,3.801
9.6800,3.824
9.7200,3.726
9.7600,3.871
9.8000,3.728
9.8400,3.722
9.8800,3.756
9.9200,3.628
9.9600,3.708
10.0000,3.765
10.0400,3.690
10.0800,3.642
10.1200,3.679
10.1600,3.671
10.2000,3.694
10.2400,3.620
10.2800,3.658
10.3200,3.678
10.3600,3.581
10.4000,3.659
10.4400,3.697
10.4800,3.626
10.5200,3.645
10.5600,3.548
10.6000,3.710
10.6400,3.642
10.6800,3.688
10.7200,3.634
10.7600,3.553
10.8000,3.623
10.8400,3.608
10.8800,3.619
10.9200,3.682
10.9600,3.574
11.0000,3.621
11.0400,3.644
11.0800,3.548
11.1200,3.573
11.1600,3.584
11.2000,3.633
11.2400,3.582
11.2800,3.595
11.3200,3.563
11.3600,3.587
11.4000,3.511
11.4400,3.630
11.4800,3.562
11.5200,3.530
11.5600,3.465
11.6000,3.488
11.6400,3.598
11.6800,3.508
11.7200,3.466
11.7600,3.518
11.8000,3.655
11.8400,3.468
11.8800,3.436
11.9200,3.526
11.9600,3.371
12.0000,3.462
12.0400,3.586
12.0800,3.545
12.1200,3.487
12.1600,3.448
12.2000,3.467
12.2400,3.384
12.2800,3.436
12.3200,3.449
12.3600,3.449
12.4000,3.444
12.4400,3.452
12.4800,3.384
12.5200,3.322
12.5600,3.556
12.6000,3.459
12.6400,3.409
12.6800,3.469
12.7200,3.489
12.7600,3.429
12.8000,3.374
12.8400,3.333
12.8800,3.392
12.9200,3.416
12.9600,3.345
13.0000,3.284
13.0400,3.364
13.0800,3.321
13.1200,3.384
13.1600,3.401
13.2000,3.328
13.2400,3.376
13.2800,3.412
13.3200,3.375
13.3600,3.380
13.4000,3.371
13.4400,3.244
13.4800,3.451
13.5200,3.319
13.5600,3.379
13.6000,3.330
13.6400,3.373
13.6800,3.265
13.7200,3.335
13.7600,3.244
13.8000,3.283
13.8400,3.377
13.8800,3.333
13.9200,3.244
13.9600,3.262
14.0000,3.201
14.0400,3.332
14.0800,3.251
14.1200,3.251
14.1600,3.281
14.2000,3.229
14.2400,3.256
14.2800,3.195
14.3200,3.283
14.3600,3.268
14.4000,3.231
14.4400,3.183
14.4800,3.243
14.5200,3.199
14.5600,3.185
14.6000,3.231
14.6400,3.247
14.6800,3.121
14.7200,3.138
14.7600,3.128
14.8000,3.147
14.8400,3.166
14.8800,3.191
14.9200,3.079
14.9600,3.187
15.0000,3.212
15.0400,3.110
15.0800,3.223
15.1200,3.120
15.1600,3.115
15.2000,3.194
15.2400,3.113
15.2800,3.165
15.3200,3.071
15.3600,3.092
15.4000,3.211
15.4400,3.135
15.4800,3.078
15.5200,3.165
15.5600,3.238
15.6000,3.114
15.6400,3.105
15.6800,3.137
15.7200,3.192
15.7600,3.175
15.8000,3.077
15.8400,3.031
15.8800,3.045
15.9200,3.110
15.9600,2.988
16.0000,3.076
16.0400,3.080
16.0800,3.050
16.1200,3.052
16.1600,3.204
16.2000,3.010
16.2400,3.078
16.2800,3.106
16.3200,3.053
16.3600,3.068
16.4000,2.956
16.4400,2.975
16.4800,2.976
16.5200,3.015
16.5600,2.941
16.6000,3.036
16.6400,3.047
16.6800,3.024
16.7200,2.956
16.7600,3.030
16.8000,2.995
16.8400,3.075
16.8800,3.047
16.9200,2.941
16.9600,2.936
17.0000,2.886
17.0400,2.935
17.0800,3.007
17.1200,2.974
17.1600,2.898
17.2000,2.988
17.2400,2.974
17.2800,2.927
17.3200,2.931
17.3600,2.952
17.4000,2.915
17.4400,2.932
17.4800,2.948
17.5200,2.910
17.5600,2.927
17.6000,2.868
17.6400,2.855
17.6800,2.874
17.7200,2.884
17.7600,2.884
17.8000,2.962
17.8400,2.956
17.8800,2.905
17.9200,2.905
17.9600,2.866
18.0000,2.888
18.0400,2.837
18.0800,2.864
18.1200,2.821
18.1600,2.865
18.2000,2.877
18.2400,2.815
18.2800,2.844
18.3200,2.908
18.3600,2.877
18.4000,2.793
18.4400,2.824
18.4800,2.813
18.5200,2.848
18.5600,2.902
18.6000,2.812
18.6400,2.786
18.6800,2.778
18.7200,2.795
18.7600,2.815
18.8000,2.857
18.8400,2.661
18.8800,2.834
18.9200,2.762
18.9600,2.849
19.0000,2.778
19.0400,2.799
19.0800,2.727
19.1200,2.784
19.1600,2.783
19.2000,2.785
19.2400,2.748
19.2800,2.719
19.3200,2.727
19.3600,2.798
19.4000,2.791
19.4400,2.797
19.4800,2.719
19.5200,2.815
19.5600,2.753
19.6000,2.735
19.6400,2.727
19.6800,2.717
19.7200,2.685
19.7600,2.758
19.8000,2.761
19.8400,2.690
19.8800,2.666
19.9200,2.671
19.9600,2.651
20.0000,2.754
20.0400,2.691
20.0800,2.662
20.1200,2.730
20.1600,2.688
20.2000,2.713
20.2400,2.625
20.2800,2.712
20.3200,2.787
20.3600,2.658
20.4000,2.604
20.4400,2.571
20.4800,2.713
20.5200,2.689
20.5600,2.664
20.6000,2.656
20.6400,2.697
20.6800,2.700
20.7200,2.647
20.7600,2.634
20.8000,2.664
20.8400,2.564
20.8800,2.635
20.9200,2.606
20.9600,2.524
21.0000,2.596
21.0400,2.551
21.0800,2.532
21.1200,2.565
21.1600,2.582
21.2000,2.624
21.2400,2.597
21.2800,2.560
21.3200,2.577
21.3600,2.512
21.4000,2.522
21.4400,2.575
21.4800,2.565
21.5200,2.509
21.5600,2.529
21.6000,2.531
21.6400,2.527
21.6800,2.533
21.7200,2.574
21.7600,2.579
21.8000,2.561
21.8400,2.433
21.8800,2.522
21.9200,2.513
21.9600,2.506
22.0000,2.512
22.0400,2.523
22.0800,2.493
22.1200,2.532
22.1600,2.433
22.2000,2.489
22.2400,2.496
22.2800,2.433
22.3200,2.436
22.3600,2.510
22.4000,2.438
22.4400,2.418
22.4800,2.436
22.5200,2.424
22.5600,2.465
22.6000,2.402
22.6400,2.468
22.6800,2.485
22.7200,2.478
22.7600,2.497
22.8000,2.436
22.8400,2.484
22.8800,2.411
22.9200,2.422
22.9600,2.444
23.0000,2.443
23.0400,2.400
23.0800,2.487
23.1200,2.437
23.1600,2.378
23.2000,2.405
23.2400,2.315
23.2800,2.356
23.3200,2.383
23.3600,2.303
23.4000,2.347
23.4400,2.356
23.4800,2.370
23.5200,2.428
23.5600,2.398
23.6000,2.349
23.6400,2.280
23.6800,2.335
23.7200,2.376
23.7600,2.314
23.8000,2.351
23.8400,2.369
23.8800,2.300
23.9200,2.324
23.9600,2.359
24.0000,2.395
24.0400,2.362
24.0800,2.349
24.1200,2.362
24.1600,2.299
24.2000,2.346
24.2400,2.284
24.2800,2.208
24.3200,2.327
24.3600,2.338
24.4000,2.242
24.4400,2.298
24.4800,2.297
24.5200,2.274
24.5600,2.204
24.6000,2.208
24.6400,2.241
24.6800,2.298
24.7200,2.253
24.7600,2.275
24.8000,2.228
24.8400,2.248
24.8800,2.312
24.9200,2.232
24.9600,2.225
25.0000,2.270
25.0400,2.221
25.0800,2.236
25.1200,2.211
25.1600,2.152
25.2000,2.222
25.2400,2.218
25.2800,2.187
25.3200,2.207
25.3600,2.199
25.4000,2.214
25.4400,2.240
25.4800,2.166
25.5200,2.237
25.5600,2.148
25.6000,2.233
25.6400,2.178
25.6800,2.167
25.7200,2.239
25.7600,2.176
25.8000,2.192
25.8400,2.135
25.8800,2.181
25.9200,2.179
25.9600,2.143
26.0000,2.089
26.0400,2.146
26.0800,2.139
26.1200,2.114
26.1600,1.991
26.2000,2.134
26.2400,2.150
26.2800,2.043
26.3200,2.093
26.3600,2.019
26.4000,2.201
26.4400,2.225
26.4800,2.136
26.5200,2.149
26.5600,2.081
26.6000,2.140
26.6400,2.153
26.6800,2.095
26.7200,2.109
26.7600,2.116
26.8000,2.120
26.8400,2.129
26.8800,1.991
26.9200,1.945
26.9600,2.086
27.0000,2.059
27.0400,2.070
27.0800,2.108
27.1200,2.095
27.1600,1.972
27.2000,1.987
27.2400,2.039
27.2800,2.062
27.3200,2.024
27.3600,2.041
27.4000,2.058
27.4400,2.082
27.4800,1.963
27.5200,2.017
27.5600,2.066
27.6000,2.015
27.6400,1.942
27.6800,1.924
27.7200,1.973
27.7600,2.032
27.8000,2.018
27.8400,1.968
27.8800,2.031
27.9200,1.961
27.9600,1.919
28.0000,1.979
28.0400,1.997
28.0800,2.047
28.1200,1.886
28.1600,1.989
28.2000,1.980
28.2400,1.994
28.2800,1.883
28.3200,2.003
28.3600,1.948
28.4000,1.946
28.4400,1.944
28.4800,1.996
28.5200,1.933
28.5600,1.956
28.6000,1.850
28.6400,1.865
28.6800,1.852
28.7200,1.888
28.7600,1.899
28.8000,1.847
28.8400,1.935
28.8800,1.838
28.9200,1.889
28.9600,1.861
29.0000,1.925
29.0400,1.863
29.0800,1.948
29.1200,1.950
29.1600,1.862
29.2000,1.821
29.2400,1.921
29.2800,1.868
29.3200,1.901
29.3600,1.834
29.4000,1.870
29.4400,1.832
29.4800,1.912
29.5200,1.878
29.5600,1.819
29.6000,1.866
29.6400,1.846
29.6800,1.809
29.7200,1.882
29.7600,1.801
29.8000,1.836
29.8400,1.868
29.8800,1.760
29.9200,1.868
29.9600,1.806
30.0000,1.833
30.0400,1.876
30.0800,1.794
30.1200,1.839
30.1600,1.803
30.2000,1.755
30.2400,1.808
30.2800,1.758
30.3200,1.809
30.3600,1.782
30.4000,1.806
30.4400,1.756
30.4800,1.812
30.5200,1.816
30.5600,1.763
30.6000,1.762
30.6400,1.825
30.6800,1.752
30.7200,1.778
30.7600,1.804
30.8000,1.714
30.8400,1.692
30.8800,1.649
30.9200,1.737
30.9600,1.677
31.0000,1.781
31.0400,1.753
31.0800,1.742
31.1200,1.792
31.1600,1.729
31.2000,1.743
31.2400,1.802
31.2800,1.747
31.3200,1.563
31.3600,1.677
31.4000,1.737
31.4400,1.711
31.4800,1.706
31.5200,1.624
31.5600,1.709
31.6000,1.714
31.6400,1.728
31.6800,1.697
31.7200,1.721
31.7600,1.696
31.8000,1.724
31.8400,1.693
31.8800,1.683
31.9200,1.792
31.9600,1.745
32.0000,1.689
32.0400,1.689
32.0800,1.637
32.1200,1.735
32.1600,1.688
32.2000,1.703
32.2400,1.627
32.2800,1.703
32.3200,1.640
32.3600,1.618
32.4000,1.639
32.4400,1.569
32.4800,1.623
32.5200,1.582
32.5600,1.641
32.6000,1.544
32.6400,1.617
32.6800,1.588
32.7200,1.670
32.7600,1.683
32.8000,1.685
32.8400,1.631
32.8800,1.638
32.9200,1.564
32.9600,1.578
33.0000,1.618
33.0400,1.595
33.0800,1.596
33.1200,1.546
33.1600,1.642
33.2000,1.607
33.2400,1.589
33.2800,1.602
33.3200,1.593
33.3600,1.621
33.4000,1.591
33.4400,1.622
33.4800,1.658
33.5200,1.560
33.5600,1.575
33.6000,1.539
33.6400,1.563
33.6800,1.562
33.7200,1.602
33.7600,1.581
33.8000,1.563
33.8400,1.617
33.8800,1.604
33.9200,1.583
33.9600,1.595
34.0000,1.589
34.0400,1.582
34.0800,1.536
34.1200,1.523
34.1600,1.597
34.2000,1.502
34.2400,1.548
34.2800,1.514
34.3200,1.582
34.3600,1.510
34.4000,1.543
34.4400,1.519
34.4800,1.593
34.5200,1.468
34.5600,1.557
34.6000,1.505
34.6400,1.549
34.6800,1.533
34.7200,1.493
34.7600,1.513
34.8000,1.502
34.8400,1.471
34.8800,1.476
34.9200,1.471
34.9600,1.499
35.0000,1.549
35.0400,1.532
35.0800,1.539
35.1200,1.503
35.1600,1.461
35.2000,1.470
35.2400,1.544
35.2800,1.498
35.3200,1.506
35.3600,1.484
35.4000,1.517
35.4400,1.505
35.4800,1.522
35.5200,1.489
35.5600,1.514
35.6000,1.560
35.6400,1.510
35.6800,1.474
35.7200,1.428
35.7600,1.503
35.8000,1.476
35.8400,1.473
35.8800,1.504
35.9200,1.488
35.9600,1.529
36.0000,1.492
36.0400,1.472
36.0800,1.553
36.1200,1.470
36.1600,1.498
36.2000,1.497
36.2400,1.547
36.2800,1.480
36.3200,1.497
36.3600,1.490
36.4000,1.506
36.4400,1.514
36.4800,1.531
36.5200,1.531
36.5600,1.492
36.6000,1.508
36.6400,1.526
36.6800,1.588
36.7200,1.557
36.7600,1.568
36.8000,1.578
36.8400,1.590
36.8800,1.576
36.9200,1.587
36.9600,1.624
37.0000,1.648
37.0400,1.655
37.0800,1.662
37.1200,1.621
37.1600,1.711
37.2000,1.655
37.2400,1.753
37.2800,1.753
37.3200,1.727
37.3600,1.740
37.4000,1.767
37.4400,1.821
37.4800,1.982
37.5200,2.108
37.5600,2.132
37.6000,2.216
37.6400,2.305
37.6800,2.412
37.7200,2.678
37.7600,2.969
37.8000,3.296
37.8400,3.649
37.8800,4.288
37.9200,4.991
37.9600,6.178
38.0000,7.661
38.0400,9.497
38.0800,11.464
38.1200,13.351
38.1600,14.576
38.2000,14.959
38.2400,14.085
38.2800,12.704
38.3200,10.807
38.3600,8.763
38.4000,7.125
38.4400,5.954
38.4800,4.805
38.5200,4.074
38.5600,3.626
38.6000,3.164
38.6400,2.912
38.6800,2.672
38.7200,2.416
38.7600,2.319
38.8000,2.176
38.8400,2.057
38.8800,2.004
38.9200,1.787
38.9600,1.797
39.0000,1.746
39.0400,1.716
39.0800,1.729
39.1200,1.638
39.1600,1.629
39.2000,1.612
39.2400,1.600
39.2800,1.471
39.3200,1.460
39.3600,1.453
39.4000,1.485
39.4400,1.499
39.4800,1.436
39.5200,1.406
39.5600,1.434
39.6000,1.421
39.6400,1.412
39.6800,1.341
39.7200,1.351
39.7600,1.331
39.8000,1.359
39.8400,1.296
39.8800,1.337
39.9200,1.311
39.9600,1.302
40.0000,1.362
40.0400,1.298
40.0800,1.297
40.1200,1.348
40.1600,1.297
40.2000,1.301
40.2400,1.330
40.2800,1.291
40.3200,1.288
40.3600,1.274
40.4000,1.213
40.4400,1.185
40.4800,1.250
40.5200,1.284
40.5600,1.240
40.6000,1.224
40.6400,1.256
40.6800,1.314
40.7200,1.253
40.7600,1.247
40.8000,1.184
40.8400,1.210
40.8800,1.242
40.9200,1.217
40.9600,1.217
41.0000,1.192
41.0400,1.245
41.0800,1.245
41.1200,1.221
41.1600,1.179
41.2000,1.258
41.2400,1.221
41.2800,1.155
41.3200,1.189
41.3600,1.203
41.4000,1.130
41.4400,1.180
41.4800,1.198
41.5200,1.162
41.5600,1.196
41.6000,1.119
41.6400,1.183
41.6800,1.125
41.7200,1.150
41.7600,1.177
41.8000,1.164
41.8400,1.224
41.8800,1.193
41.9200,1.141
41.9600,1.154
42.0000,1.165
42.0400,1.150
42.0800,1.199
42.1200,1.107
42.1600,1.132
42.2000,1.125
42.2400,1.164
42.2800,1.154
42.3200,1.226
42.3600,1.131
42.4000,1.149
42.4400,1.152
42.4800,1.167
42.5200,1.132
42.5600,1.121
42.6000,1.133
42.6400,1.136
42.6800,1.148
42.7200,1.185
42.7600,1.088
42.8000,1.096
42.8400,1.181
42.8800,1.194
42.9200,1.155
42.9600,1.137
43.0000,1.169
43.0400,1.214
43.0800,1.138
43.1200,1.199
43.1600,1.190
43.2000,1.204
43.2400,1.227
43.2800,1.156
43.3200,1.199
43.3600,1.246
43.4000,1.250
43.4400,1.272
43.4800,1.245
43.5200,1.320
43.5600,1.300
43.6000,1.304
43.6400,1.312
43.6800,1.458
43.7200,1.377
43.7600,1.465
43.8000,1.513
43.8400,1.594
43.8800,1.545
43.9200,1.698
43.9600,1.820
44.0000,1.812
44.0400,1.861
44.0800,1.974
44.1200,2.105
44.1600,2.267
44.2000,2.418
44.2400,2.536
44.2800,2.650
44.3200,2.757
44.3600,2.772
44.4000,2.877
44.4400,2.826
44.4800,2.767
44.5200,2.724
44.5600,2.716
44.6000,2.457
44.6400,2.286
44.6800,2.235
44.7200,2.092
44.7600,1.909
44.8000,1.844
44.8400,1.755
44.8800,1.644
44.9200,1.590
44.9600,1.537
45.0000,1.451
45.0400,1.290
45.0800,1.277
45.1200,1.335
45.1600,1.226
45.2000,1.227
45.2400,1.189
45.2800,1.146
45.3200,1.129
45.3600,1.143
45.4000,1.136
45.4400,1.064
45.4800,1.071
45.5200,1.035
45.5600,1.078
45.6000,1.081
45.6400,1.038
45.6800,0.991
45.7200,0.976
45.7600,1.031
45.8000,1.019
45.8400,1.013
45.8800,0.972
45.9200,1.004
45.9600,0.927
46.0000,0.981
46.0400,0.991
46.0800,0.984
46.1200,0.961
46.1600,0.972
46.2000,0.937
46.2400,0.939
46.2800,0.990
46.3200,0.974
46.3600,0.931
46.4000,0.928
46.4400,0.933
46.4800,0.927
46.5200,0.978
46.5600,0.912
46.6000,0.914
46.6400,0.910
46.6800,0.888
46.7200,0.885
46.7600,0.933
46.8000,0.886
46.8400,0.914
46.8800,0.938
46.9200,0.887
46.9600,0.881
47.0000,0.901
47.0400,0.865
47.0800,0.930
47.1200,0.869
47.1600,0.837
47.2000,0.879
47.2400,0.895
47.2800,0.868
47.3200,0.876
47.3600,0.851
47.4000,0.857
47.4400,0.915
47.4800,0.880
47.5200,0.844
47.5600,0.877
47.6000,0.920
47.6400,0.892
47.6800,0.882
47.7200,0.857
47.7600,0.834
47.8000,0.860
47.8400,0.824
47.8800,0.849
47.9200,0.816
47.9600,0.839
48.0000,0.835
48.0400,0.868
48.0800,0.883
48.1200,0.847
48.1600,0.832
48.2000,0.795
48.2400,0.836
48.2800,0.839
48.3200,0.878
48.3600,0.836
48.4000,0.817
48.4400,0.820
48.4800,0.832
48.5200,0.801
48.5600,0.799
48.6000,0.824
48.6400,0.830
48.6800,0.830
48.7200,0.855
48.7600,0.806
48.8000,0.774
48.8400,0.821
48.8800,0.809
48.9200,0.801
48.9600,0.854
49.0000,0.778
49.0400,0.790
49.0800,0.837
49.1200,0.852
49.1600,0.796
49.2000,0.807
49.2400,0.798
49.2800,0.835
49.3200,0.834
49.3600,0.790
49.4000,0.772
49.4400,0.824
49.4800,0.762
49.5200,0.792
49.5600,0.781
49.6000,0.803
49.6400,0.765
49.6800,0.808
49.7200,0.783
49.7600,0.832
49.8000,0.826
49.8400,0.752
49.8800,0.791
49.9200,0.818
49.9600,0.732
50.0000,0.808
50.0400,0.787
50.0800,0.733
50.1200,0.796
50.1600,0.741
50.2000,0.758
50.2400,0.739
50.2800,0.768
50.3200,0.770
50.3600,0.788
50.4000,0.760
50.4400,0.784
50.4800,0.802
50.5200,0.758
50.5600,0.798
50.6000,0.780
50.6400,0.779
50.6800,0.764
50.7200,0.750
50.7600,0.714
50.8000,0.738
50.8400,0.778
50.8800,0.725
50.9200,0.743
50.9600,0.734
51.0000,0.770
51.0400,0.740
51.0800,0.767
51.1200,0.724
51.1600,0.737
51.2000,0.789
51.2400,0.765
51.2800,0.695
51.3200,0.744
51.3600,0.722
51.4000,0.735
51.4400,0.739
51.4800,0.732
51.5200,0.739
51.5600,0.707
51.6000,0.742
51.6400,0.721
51.6800,0.693
51.7200,0.737
51.7600,0.716
51.8000,0.721
51.8400,0.733
51.8800,0.774
51.9200,0.724
51.9600,0.694
52.0000,0.739
52.0400,0.740
52.0800,0.707
52.1200,0.731
52.1600,0.690
52.2000,0.686
52.2400,0.696
52.2800,0.708
52.3200,0.722
52.3600,0.724
52.4000,0.737
52.4400,0.681
52.4800,0.713
52.5200,0.702
52.5600,0.684
52.6000,0.691
52.6400,0.704
52.6800,0.709
52.7200,0.738
52.7600,0.686
52.8000,0.707
52.8400,0.674
52.8800,0.672
52.9200,0.756
52.9600,0.704
53.0000,0.695
53.0400,0.684
53.0800,0.708
53.1200,0.666
53.1600,0.666
53.2000,0.655
53.2400,0.685
53.2800,0.709
53.3200,0.665
53.3600,0.709
53.4000,0.731
53.4400,0.716
53.4800,0.709
53.5200,0.695
53.5600,0.640
53.6000,0.700
53.6400,0.700
53.6800,0.712
53.7200,0.651
53.7600,0.694
53.8000,0.665
53.8400,0.681
53.8800,0.673
53.9200,0.726
53.9600,0.700
54.0000,0.622
54.0400,0.681
54.0800,0.656
54.1200,0.676
54.1600,0.673
54.2000,0.650
54.2400,0.684
54.2800,0.648
54.3200,0.665
54.3600,0.678
54.4000,0.654
54.4400,0.671
54.4800,0.642
54.5200,0.689
54.5600,0.702
54.6000,0.663
54.6400,0.643
54.6800,0.641
54.7200,0.699
54.7600,0.687
54.8000,0.697
54.8400,0.644
54.8800,0.638
54.9200,0.673
54.9600,0.658
55.0000,0.659
55.0400,0.701
55.0800,0.627
55.1200,0.651
55.1600,0.626
55.2000,0.630
55.2400,0.649
55.2800,0.626
55.3200,0.634
55.3600,0.598
55.4000,0.661
55.4400,0.639
55.4800,0.686
55.5200,0.621
55.5600,0.668
55.6000,0.663
55.6400,0.653
55.6800,0.608
55.7200,0.663
55.7600,0.653
55.8000,0.623
55.8400,0.643
55.8800,0.619
55.9200,0.618
55.9600,0.600
56.0000,0.628
56.0400,0.630
56.0800,0.603
56.1200,0.573
56.1600,0.612
56.2000,0.605
56.2400,0.648
56.2800,0.665
56.3200,0.604
56.3600,0.598
56.4000,0.635
56.4400,0.646
56.4800,0.633
56.5200,0.639
56.5600,0.614
56.6000,0.651
56.6400,0.585
56.6800,0.624
56.7200,0.631
56.7600,0.642
56.8000,0.617
56.8400,0.633
56.8800,0.657
56.9200,0.553
56.9600,0.575
57.0000,0.570
57.0400,0.637
57.0800,0.628
57.1200,0.605
57.1600,0.597
57.2000,0.624
57.2400,0.650
57.2800,0.609
57.3200,0.629
57.3600,0.653
57.4000,0.592
57.4400,0.571
57.4800,0.563
57.5200,0.623
57.5600,0.578
57.6000,0.640
57.6400,0.597
57.6800,0.603
57.7200,0.600
57.7600,0.555
57.8000,0.629
57.8400,0.575
57.8800,0.629
57.9200,0.609
57.9600,0.594
58.0000,0.619
58.0400,0.615
58.0800,0.551
58.1200,0.589
58.1600,0.593
58.2000,0.587
58.2400,0.588
58.2800,0.588
58.3200,0.597
58.3600,0.588
58.4000,0.566
58.4400,0.630
58.4800,0.576
58.5200,0.610
58.5600,0.613
58.6000,0.581
58.6400,0.589
58.6800,0.607
58.7200,0.570
58.7600,0.644
58.8000,0.609
58.8400,0.585
58.8800,0.604
58.9200,0.592
58.9600,0.598
59.0000,0.609
59.0400,0.577
59.0800,0.599
59.1200,0.574
59.1600,0.613
59.2000,0.567
59.2400,0.596
59.2800,0.539
59.3200,0.589
59.3600,0.594
59.4000,0.571
59.4400,0.594
59.4800,0.540
59.5200,0.578
59.5600,0.574
59.6000,0.576
59.6400,0.558
59.6800,0.602
59.7200,0.581
59.7600,0.566
59.8000,0.567
59.8400,0.537
59.8800,0.569
59.9200,0.535
59.9600,0.575
60.0000,0.611
60.0400,0.575
60.0800,0.581
60.1200,0.569
60.1600,0.573
60.2000,0.554
60.2400,0.582
60.2800,0.532
60.3200,0.549
60.3600,0.525
60.4000,0.559
60.4400,0.565
60.4800,0.578
60.5200,0.526
60.5600,0.567
60.6000,0.567
60.6400,0.556
60.6800,0.572
60.7200,0.541
60.7600,0.604
60.8000,0.563
60.8400,0.513
60.8800,0.572
60.9200,0.584
60.9600,0.570
61.0000,0.545
61.0400,0.555
61.0800,0.532
61.1200,0.610
61.1600,0.592
61.2000,0.515
61.2400,0.557
61.2800,0.555
61.3200,0.552
61.3600,0.581
61.4000,0.558
61.4400,0.530
61.4800,0.553
61.5200,0.534
61.5600,0.571
61.6000,0.605
61.6400,0.664
61.6800,0.574
61.7200,0.544
61.7600,0.548
61.8000,0.586
61.8400,0.604
61.8800,0.542
61.9200,0.543
61.9600,0.564
62.0000,0.572
62.0400,0.547
62.0800,0.596
62.1200,0.551
62.1600,0.532
62.2000,0.548
62.2400,0.580
62.2800,0.566
62.3200,0.525
62.3600,0.529
62.4000,0.547
62.4400,0.545
62.4800,0.569
62.5200,0.530
62.5600,0.560
62.6000,0.533
62.6400,0.611
62.6800,0.570
62.7200,0.595
62.7600,0.567
62.8000,0.590
62.8400,0.594
62.8800,0.543
62.9200,0.578
62.9600,0.541
63.0000,0.590
63.0400,0.591
63.0800,0.531
63.1200,0.559
63.1600,0.586
63.2000,0.586
63.2400,0.596
63.2800,0.567
63.3200,0.584
63.3600,0.585
63.4000,0.577
63.4400,0.616
63.4800,0.563
63.5200,0.624
63.5600,0.623
63.6000,0.622
63.6400,0.644
63.6800,0.632
63.7200,0.637
63.7600,0.667
63.8000,0.722
63.8400,0.680
63.8800,0.754
63.9200,0.792
63.9600,0.720
64.0000,0.760
64.0400,0.797
64.0800,0.767
64.1200,0.854
64.1600,0.899
64.2000,0.916
64.2400,1.030
64.2800,1.058
64.3200,1.182
64.3600,1.197
64.4000,1.261
64.4400,1.392
64.4800,1.561
64.5200,1.622
64.5600,1.704
64.6000,1.759
64.6400,1.774
64.6800,1.744
64.7200,1.756
64.7600,1.711
64.8000,1.583
64.8400,1.461
64.8800,1.426
64.9200,1.301
64.9600,1.240
65.0000,1.138
65.0400,1.109
65.0800,1.096
65.1200,1.037
65.1600,0.901
65.2000,0.913
65.2400,0.894
65.2800,0.870
65.3200,0.853
65.3600,0.816
65.4000,0.809
65.4400,0.807
65.4800,0.796
65.5200,0.757
65.5600,0.735
65.6000,0.754
65.6400,0.776
65.6800,0.765
65.7200,0.796
65.7600,0.785
65.8000,0.784
65.8400,0.754
65.8800,0.745
65.9200,0.769
65.9600,0.797
66.0000,0.765
66.0400,0.777
66.0800,0.800
66.1200,0.780
66.1600,0.759
66.2000,0.786
66.2400,0.843
66.2800,0.820
66.3200,0.788
66.3600,0.819
66.4000,0.844
66.4400,0.884
66.4800,0.898
66.5200,0.832
66.5600,0.873
66.6000,0.865
66.6400,0.856
66.6800,0.922
66.7200,0.945
66.7600,0.969
66.8000,0.962
66.8400,0.969
66.8800,0.985
66.9200,0.944
66.9600,1.051
67.0000,0.991
67.0400,1.083
67.0800,1.018
67.1200,1.108
67.1600,1.108
67.2000,1.125
67.2400,1.119
67.2800,1.093
67.3200,1.111
67.3600,1.181
67.4000,1.207
67.4400,1.218
67.4800,1.278
67.5200,1.228
67.5600,1.333
67.6000,1.344
67.6400,1.356
67.6800,1.441
67.7200,1.442
67.7600,1.479
67.8000,1.510
67.8400,1.576
67.8800,1.602
67.9200,1.599
67.9600,1.645
68.0000,1.619
68.0400,1.730
68.0800,1.803
68.1200,1.800
68.1600,1.871
68.2000,1.963
68.2400,2.012
68.2800,2.055
68.3200,2.119
68.3600,2.247
68.4000,2.325
68.4400,2.533
68.4800,2.583
68.5200,2.731
68.5600,3.003
68.6000,3.186
68.6400,3.710
68.6800,4.739
68.7200,6.030
68.7600,7.204
68.8000,7.479
68.8400,7.744
68.8800,8.544
68.9200,11.271
68.9600,18.219
69.0000,36.649
69.0400,151.092
69.0800,478.866
69.1200,453.720
69.1600,135.235
69.2000,47.894
69.2400,102.315
69.2800,256.833
69.3200,219.987
69.3600,66.127
69.4000,20.321
69.4400,11.500
69.4800,8.447
69.5200,6.805
69.5600,5.703
69.6000,4.914
69.6400,4.405
69.6800,3.982
69.7200,3.614
69.7600,3.380
69.8000,3.168
69.8400,2.876
69.8800,2.786
69.9200,2.669
69.9600,2.614
70.0000,2.459
70.0400,2.318
70.0800,2.309
70.1200,2.156
70.1600,2.079
70.2000,2.060
70.2400,1.968
70.2800,1.956
70.3200,1.777
70.3600,1.830
70.4000,1.670
70.4400,1.682
70.4800,1.615
70.5200,1.573
70.5600,1.639
70.6000,1.448
70.6400,1.499
70.6800,1.498
70.7200,1.499
70.7600,1.409
70.8000,1.364
70.8400,1.339
70.8800,1.302
70.9200,1.211
70.9600,1.220
71.0000,1.206
71.0400,1.066
71.0800,1.081
71.1200,1.064
71.1600,1.057
71.2000,1.080
71.2400,1.053
71.2800,0.991
71.3200,1.016
71.3600,0.975
71.4000,0.911
71.4400,0.933
71.4800,0.911
71.5200,0.935
71.5600,0.865
71.6000,0.833
71.6400,0.815
71.6800,0.822
71.7200,0.774
71.7600,0.800
71.8000,0.756
71.8400,0.770
71.8800,0.738
71.9200,0.752
71.9600,0.750
72.0000,0.705
72.0400,0.681
72.0800,0.679
72.1200,0.650
72.1600,0.655
72.2000,0.682
72.2400,0.672
72.2800,0.626
72.3200,0.638
72.3600,0.648
72.4000,0.674
72.4400,0.635
72.4800,0.631
72.5200,0.621
72.5600,0.609
72.6000,0.661
72.6400,0.593
72.6800,0.563
72.7200,0.543
72.7600,0.593
72.8000,0.536
72.8400,0.561
72.8800,0.521
72.9200,0.530
72.9600,0.541
73.0000,0.553
73.0400,0.558
73.0800,0.501
73.1200,0.499
73.1600,0.519
73.2000,0.491
73.2400,0.523
73.2800,0.497
73.3200,0.491
73.3600,0.488
73.4000,0.505
73.4400,0.488
73.4800,0.513
73.5200,0.508
73.5600,0.449
73.6000,0.464
73.6400,0.458
73.6800,0.464
73.7200,0.477
73.7600,0.427
73.8000,0.433
73.8400,0.445
73.8800,0.452
73.9200,0.480
73.9600,0.461
74.0000,0.426
74.0400,0.437
74.0800,0.438
74.1200,0.462
74.1600,0.434
74.2000,0.479
74.2400,0.410
74.2800,0.458
74.3200,0.449
74.3600,0.442
74.4000,0.449
74.4400,0.455
74.4800,0.457
74.5200,0.452
74.5600,0.412
74.6000,0.399
74.6400,0.433
74.6800,0.409
74.7200,0.391
74.7600,0.405
74.8000,0.417
74.8400,0.450
74.8800,0.408
74.9200,0.400
74.9600,0.416
75.0000,0.414
75.0400,0.414
75.0800,0.382
75.1200,0.423
75.1600,0.373
75.2000,0.398
75.2400,0.420
75.2800,0.401
75.3200,0.393
75.3600,0.393
75.4000,0.400
75.4400,0.389
75.4800,0.429
75.5200,0.385
75.5600,0.375
75.6000,0.345
75.6400,0.398
75.6800,0.384
75.7200,0.390
75.7600,0.396
75.8000,0.402
75.8400,0.383
75.8800,0.391
75.9200,0.382
75.9600,0.393
76.0000,0.356
76.0400,0.404
76.0800,0.390
76.1200,0.385
76.1600,0.389
76.2000,0.410
76.2400,0.409
76.2800,0.374
76.3200,0.399
76.3600,0.398
76.4000,0.423
76.4400,0.447
76.4800,0.413
76.5200,0.447
76.5600,0.411
76.6000,0.449
76.6400,0.436
76.6800,0.437
76.7200,0.472
76.7600,0.459
76.8000,0.499
76.8400,0.483
76.8800,0.500
76.9200,0.483
76.9600,0.567
77.0000,0.583
77.0400,0.553
77.0800,0.605
77.1200,0.628
77.1600,0.616
77.2000,0.686
77.2400,0.757
77.2800,0.813
77.3200,0.814
77.3600,0.892
77.4000,0.949
77.4400,0.982
77.4800,1.043
77.5200,1.104
77.5600,1.189
77.6000,1.109
77.6400,1.145
77.6800,1.197
77.7200,1.134
77.7600,1.158
77.8000,1.089
77.8400,1.092
77.8800,1.048
77.9200,0.928
77.9600,0.902
78.0000,0.862
78.0400,0.782
78.0800,0.738
78.1200,0.722
78.1600,0.612
78.2000,0.626
78.2400,0.590
78.2800,0.546
78.3200,0.523
78.3600,0.510
78.4000,0.475
78.4400,0.455
78.4800,0.461
78.5200,0.466
78.5600,0.424
78.6000,0.406
78.6400,0.382
78.6800,0.388
78.7200,0.416
78.7600,0.375
78.8000,0.381
78.8400,0.407
78.8800,0.420
78.9200,0.373
78.9600,0.378
79.0000,0.369
79.0400,0.384
79.0800,0.385
79.1200,0.360
79.1600,0.362
79.2000,0.322
79.2400,0.352
79.2800,0.348
79.3200,0.346
79.3600,0.324
79.4000,0.335
79.4400,0.364
79.4800,0.339
79.5200,0.337
79.5600,0.327
79.6000,0.316
79.6400,0.338
79.6800,0.311
79.7200,0.332
79.7600,0.304
79.8000,0.306
79.8400,0.321
79.8800,0.333
79.9200,0.301
79.9600,0.284
80.0000,0.306
