theta,intensity
5.0000,6.223
5.0400,6.219
5.0800,6.144
5.1200,5.936
5.1600,5.851
5.2000,5.771
5.2400,5.810
5.2800,5.649
5.3200,5.555
5.3600,5.550
5.4000,5.516
5.4400,5.320
5.4800,5.287
5.5200,5.023
5.5600,4.997
5.6000,5.051
5.6400,4.923
5.6800,4.887
5.7200,4.776
5.7600,4.651
5.8000,4.504
5.8400,4.579
5.8800,4.388
5.9200,4.471
5.9600,4.388
6.0000,4.357
6.0400,4.275
6.0800,4.356
6.1200,4.354
6.1600,4.400
6.2000,4.188
6.2400,4.149
6.2800,4.312
6.3200,4.285
6.3600,4.277
6.4000,4.248
6.4400,4.133
6.4800,4.231
6.5200,4.139
6.5600,4.197
6.6000,4.245
6.6400,4.128
6.6800,4.198
6.7200,4.162
6.7600,4.240
6.8000,4.134
6.8400,4.185
6.8800,4.166
6.9200,4.169
6.9600,4.223
7.0000,4.207
7.0400,4.073
7.0800,4.057
7.1200,4.155
7.1600,4.166
7.2000,4.116
7.2400,4.057
7.2800,4.034
7.3200,3.984
7.3600,4.011
7.4000,4.070
7.4400,4.109
7.4800,4.098
7.5200,3.967
7.5600,4.013
7.6000,4.006
7.6400,4.065
7.6800,4.075
7.7200,4.033
7.7600,3.992
7.8000,3.941
7.8400,3.981
7.8800,3.994
7.9200,4.005
7.9600,3.960
8.0000,4.032
8.0400,3.908
8.0800,3.933
8.1200,3.988
8.1600,3.981
8.2000,4.043
8.2400,3.982
8.2800,3.871
8.3200,3.875
8.3600,4.004
8.4000,3.855
8.4400,3.921
8.4800,3.875
8.5200,3.875
8.5600,3.908
8.6000,3.946
8.6400,3.892
8.6800,3.861
8.7200,3.842
8.7600,3.902
8.8000,3.862
8.8400,3.853
8.8800,3.772
8.9200,3.903
8.9600,3.875
9.0000,3.865
9.0400,3.677
9.0800,3.853
9.1200,3.922
9.1600,3.918
9.2000,3.812
9.2400,3.816
9.2800,3.807
9.3200,3.735
9.3600,3.839
9.4000,3.841
9.4400,3.664
9.4800,3.650
9.5200,3.691
9.5600,3.772
9.6000,3.739
9.6400,3.795
9.6800,3.712
9.7200,3.754
9.7600,3.872
9.8000,3.700
9.8400,3.681
9.8800,3.844
9.9200,3.760
9.9600,3.851
10.0000,3.753
10.0400,3.761
10.0800,3.726
10.1200,3.689
10.1600,3.597
10.2000,3.639
10.2400,3.672
10.2800,3.650
10.3200,3.714
10.3600,3.690
10.4000,3.684
10.4400,3.635
10.4800,3.711
10.5200,3.691
10.5600,3.749
10.6000,3.727
10.6400,3.749
10.6800,3.617
10.7200,3.645
10.7600,3.519
10.8000,3.629
10.8400,3.524
10.8800,3.610
10.9200,3.597
10.9600,3.565
11.0000,3.674
11.0400,3.554
11.0800,3.522
11.1200,3.674
11.1600,3.602
11.2000,3.660
11.2400,3.578
11.2800,3.571
11.3200,3.572
11.3600,3.627
11.4000,3.466
11.4400,3.561
11.4800,3.485
11.5200,3.610
11.5600,3.491
11.6000,3.525
11.6400,3.528
11.6800,3.565
11.7200,3.551
11.7600,3.594
11.8000,3.540
11.8400,3.598
11.8800,3.552
11.9200,3.465
11.9600,3.548
12.0000,3.509
12.0400,3.518
12.0800,3.567
12.1200,3.432
12.1600,3.459
12.2000,3.490
12.2400,3.489
12.2800,3.450
12.3200,3.401
12.3600,3.387
12.4000,3.426
12.4400,3.494
12.4800,3.322
12.5200,3.533
12.5600,3.491
12.6000,3.401
12.6400,3.473
12.6800,3.347
12.7200,3.367
12.7600,3.469
12.8000,3.519
12.8400,3.422
12.8800,3.399
12.9200,3.431
12.9600,3.458
13.0000,3.392
13.0400,3.414
13.0800,3.440
13.1200,3.256
13.1600,3.429
13.2000,3.382
13.2400,3.329
13.2800,3.417
13.3200,3.313
13.3600,3.396
13.4000,3.329
13.4400,3.296
13.4800,3.314
13.5200,3.403
13.5600,3.249
13.6000,3.353
13.6400,3.405
13.6800,3.287
13.7200,3.388
13.7600,3.304
13.8000,3.409
13.8400,3.390
13.8800,3.334
13.9200,3.327
13.9600,3.404
14.0000,3.390
14.0400,3.265
14.0800,3.417
14.1200,3.361
14.1600,3.252
14.2000,3.232
14.2400,3.245
14.2800,3.132
14.3200,3.169
14.3600,3.206
14.4000,3.299
14.4400,3.338
14.4800,3.304
14.5200,3.235
14.5600,3.205
14.6000,3.155
14.6400,3.213
14.6800,3.226
14.7200,3.337
14.7600,3.181
14.8000,3.206
14.8400,3.263
14.8800,3.170
14.9200,3.130
14.9600,3.214
15.0000,3.161
15.0400,3.153
15.0800,3.243
15.1200,3.157
15.1600,3.065
15.2000,3.162
15.2400,3.121
15.2800,3.174
15.3200,3.140
15.3600,3.202
15.4000,3.193
15.4400,3.075
15.4800,3.105
15.5200,3.118
15.5600,2.982
15.6000,3.190
15.6400,3.246
15.6800,3.179
15.7200,3.097
15.7600,3.168
15.8000,3.096
15.8400,3.145
15.8800,2.993
15.9200,3.118
15.9600,3.093
16.0000,3.014
16.0400,3.074
16.0800,3.105
16.1200,3.117
16.1600,3.133
16.2000,3.100
16.2400,3.114
16.2800,3.062
16.3200,3.065
16.3600,3.107
16.4000,3.058
16.4400,3.088
16.4800,3.031
16.5200,3.089
16.5600,2.936
16.6000,2.982
16.6400,3.088
16.6800,3.017
16.7200,3.067
16.7600,3.083
16.8000,2.988
16.8400,3.069
16.8800,3.095
16.9200,3.032
16.9600,2.950
17.0000,2.928
17.0400,2.987
17.0800,3.021
17.1200,2.963
17.1600,3.030
17.2000,3.009
17.2400,2.964
17.2800,3.038
17.3200,3.013
17.3600,2.982
17.4000,2.928
17.4400,2.818
17.4800,2.873
17.5200,2.991
17.5600,2.956
17.6000,2.945
17.6400,2.951
17.6800,3.040
17.7200,2.992
17.7600,2.935
17.8000,2.915
17.8400,2.944
17.8800,2.977
17.9200,2.857
17.9600,2.940
18.0000,2.928
18.0400,2.838
18.0800,2.926
18.1200,2.817
18.1600,2.897
18.2000,2.870
18.2400,2.856
18.2800,2.915
18.3200,2.879
18.3600,2.893
18.4000,2.888
18.4400,2.791
18.4800,2.831
18.5200,2.953
18.5600,2.813
18.6000,2.845
18.6400,2.921
18.6800,2.871
18.7200,2.841
18.7600,2.828
18.8000,2.896
18.8400,2.881
18.8800,2.851
18.9200,2.859
18.9600,2.845
19.0000,2.865
19.0400,2.910
19.0800,2.841
19.1200,2.871
19.1600,2.800
19.2000,2.793
19.2400,2.690
19.2800,2.832
19.3200,2.797
19.3600,2.754
19.4000,2.841
19.4400,2.821
19.4800,2.721
19.5200,2.727
19.5600,2.747
19.6000,2.763
19.6400,2.740
19.6800,2.800
19.7200,2.868
19.7600,2.779
19.8000,2.808
19.8400,2.829
19.8800,2.864
19.9200,2.778
19.9600,2.612
20.0000,2.820
20.0400,2.775
20.0800,2.734
20.1200,2.714
20.1600,2.822
20.2000,2.698
20.2400,2.683
20.2800,2.676
20.3200,2.774
20.3600,2.622
20.4000,2.631
20.4400,2.669
20.4800,2.747
20.5200,2.587
20.5600,2.633
20.6000,2.634
20.6400,2.581
20.6800,2.789
20.7200,2.757
20.7600,2.696
20.8000,2.661
20.8400,2.724
20.8800,2.744
20.9200,2.662
20.9600,2.595
21.0000,2.661
21.0400,2.647
21.0800,2.635
21.1200,2.644
21.1600,2.585
21.2000,2.613
21.2400,2.540
21.2800,2.640
21.3200,2.538
21.3600,2.576
21.4000,2.647
21.4400,2.560
21.4800,2.604
21.5200,2.584
21.5600,2.511
21.6000,2.647
21.6400,2.646
21.6800,2.589
21.7200,2.637
21.7600,2.611
21.8000,2.555
21.8400,2.565
21.8800,2.675
21.9200,2.538
21.9600,2.518
22.0000,2.573
22.0400,2.496
22.0800,2.539
22.1200,2.516
22.1600,2.480
22.2000,2.585
22.2400,2.560
22.2800,2.548
22.3200,2.524
22.3600,2.567
22.4000,2.471
22.4400,2.514
22.4800,2.498
22.5200,2.564
22.5600,2.590
22.6000,2.580
22.6400,2.447
22.6800,2.455
22.7200,2.416
22.7600,2.462
22.8000,2.497
22.8400,2.424
22.8800,2.507
22.9200,2.530
22.9600,2.440
23.0000,2.451
23.0400,2.453
23.0800,2.452
23.1200,2.476
23.1600,2.415
23.2000,2.508
23.2400,2.536
23.2800,2.415
23.3200,2.426
23.3600,2.505
23.4000,2.472
23.4400,2.431
23.4800,2.456
23.5200,2.412
23.5600,2.418
23.6000,2.398
23.6400,2.416
23.6800,2.341
23.7200,2.449
23.7600,2.450
23.8000,2.412
23.8400,2.354
23.8800,2.491
23.9200,2.413
23.9600,2.384
24.0000,2.428
24.0400,2.376
24.0800,2.423
24.1200,2.404
24.1600,2.333
24.2000,2.309
24.2400,2.349
24.2800,2.325
24.3200,2.389
24.3600,2.406
24.4000,2.395
24.4400,2.317
24.4800,2.344
24.5200,2.340
24.5600,2.413
24.6000,2.237
24.6400,2.342
24.6800,2.353
24.7200,2.344
24.7600,2.342
24.8000,2.327
24.8400,2.358
24.8800,2.339
24.9200,2.299
24.9600,2.276
25.0000,2.312
25.0400,2.331
25.0800,2.335
25.1200,2.340
25.1600,2.357
25.2000,2.358
25.2400,2.309
25.2800,2.275
25.3200,2.267
25.3600,2.345
25.4000,2.282
25.4400,2.215
25.4800,2.256
25.5200,2.207
25.5600,2.276
25.6000,2.227
25.6400,2.293
25.6800,2.274
25.7200,2.254
25.7600,2.239
25.8000,2.273
25.8400,2.264
25.8800,2.272
25.9200,2.188
25.9600,2.238
26.0000,2.271
26.0400,2.239
26.0800,2.285
26.1200,2.202
26.1600,2.145
26.2000,2.159
26.2400,2.171
26.2800,2.207
26.3200,2.217
26.3600,2.166
26.4000,2.157
26.4400,2.223
26.4800,2.248
26.5200,2.227
26.5600,2.154
26.6000,2.122
26.6400,2.191
26.6800,2.161
26.7200,2.257
26.7600,2.208
26.8000,2.092
26.8400,2.175
26.8800,2.171
26.9200,2.230
26.9600,2.118
27.0000,2.202
27.0400,2.215
27.0800,2.199
27.1200,2.145
27.1600,2.164
27.2000,2.148
27.2400,2.081
27.2800,2.133
27.3200,2.169
27.3600,2.116
27.4000,2.130
27.4400,2.113
27.4800,2.135
27.5200,2.051
27.5600,2.169
27.6000,2.041
27.6400,2.079
27.6800,2.089
27.7200,2.128
27.7600,2.120
27.8000,2.096
27.8400,2.060
27.8800,2.138
27.9200,2.079
27.9600,2.042
28.0000,2.084
28.0400,2.051
28.0800,1.997
28.1200,2.025
28.1600,2.015
28.2000,2.062
28.2400,2.001
28.2800,2.101
28.3200,2.031
28.3600,2.012
28.4000,2.056
28.4400,1.937
28.4800,1.951
28.5200,2.018
28.5600,1.953
28.6000,1.974
28.6400,2.009
28.6800,1.967
28.7200,1.993
28.7600,1.985
28.8000,1.998
28.8400,2.017
28.8800,2.002
28.9200,1.942
28.9600,2.031
29.0000,2.016
29.0400,1.919
29.0800,1.909
29.1200,2.033
29.1600,2.036
29.2000,1.995
29.2400,2.039
29.2800,1.965
29.3200,1.976
29.3600,2.008
29.4000,1.945
29.4400,1.981
29.4800,1.935
29.5200,1.943
29.5600,1.947
29.6000,1.900
29.6400,1.879
29.6800,1.949
29.7200,1.954
29.7600,1.982
29.8000,1.927
29.8400,1.894
29.8800,1.856
29.9200,1.976
29.9600,1.961
30.0000,1.915
30.0400,1.896
30.0800,1.939
30.1200,1.876
30.1600,1.865
30.2000,1.856
30.2400,1.849
30.2800,1.953
30.3200,1.907
30.3600,1.912
30.4000,1.873
30.4400,1.911
30.4800,1.868
30.5200,1.829
30.5600,1.961
30.6000,1.851
30.6400,1.845
30.6800,1.871
30.7200,1.910
30.7600,1.830
30.8000,1.831
30.8400,1.894
30.8800,1.785
30.9200,1.843
30.9600,1.834
31.0000,1.863
31.0400,1.804
31.0800,1.832
31.1200,1.823
31.1600,1.808
31.2000,1.882
31.2400,1.849
31.2800,1.815
31.3200,1.779
31.3600,1.819
31.4000,1.776
31.4400,1.831
31.4800,1.807
31.5200,1.831
31.5600,1.759
31.6000,1.780
31.6400,1.829
31.6800,1.762
31.7200,1.816
31.7600,1.721
31.8000,1.832
31.8400,1.741
31.8800,1.805
31.9200,1.782
31.9600,1.756
32.0000,1.797
32.0400,1.833
32.0800,1.788
32.1200,1.751
32.1600,1.735
32.2000,1.716
32.2400,1.722
32.2800,1.762
32.3200,1.790
32.3600,1.755
32.4000,1.765
32.4400,1.799
32.4800,1.702
32.5200,1.800
32.5600,1.726
32.6000,1.776
32.6400,1.669
32.6800,1.703
32.7200,1.818
32.7600,1.660
32.8000,1.746
32.8400,1.744
32.8800,1.744
32.9200,1.742
32.9600,1.681
33.0000,1.654
33.0400,1.686
33.0800,1.678
33.1200,1.708
33.1600,1.749
33.2000,1.691
33.2400,1.656
33.2800,1.602
33.3200,1.680
33.3600,1.641
33.4000,1.655
33.4400,1.651
33.4800,1.614
33.5200,1.622
33.5600,1.627
33.6000,1.698
33.6400,1.711
33.6800,1.772
33.7200,1.732
33.7600,1.688
33.8000,1.680
33.8400,1.714
33.8800,1.709
33.9200,1.631
33.9600,1.688
34.0000,1.665
34.0400,1.681
34.0800,1.702
34.1200,1.770
34.1600,1.733
34.2000,1.714
34.2400,1.683
34.2800,1.588
34.3200,1.644
34.3600,1.643
34.4000,1.558
34.4400,1.683
34.4800,1.704
34.5200,1.604
34.5600,1.709
34.6000,1.685
34.6400,1.625
34.6800,1.671
34.7200,1.622
34.7600,1.583
34.8000,1.661
34.8400,1.664
34.8800,1.662
34.9200,1.638
34.9600,1.715
35.0000,1.690
35.0400,1.606
35.0800,1.678
35.1200,1.669
35.1600,1.658
35.2000,1.666
35.2400,1.676
35.2800,1.658
35.3200,1.676
35.3600,1.672
35.4000,1.699
35.4400,1.649
35.4800,1.656
35.5200,1.630
35.5600,1.660
35.6000,1.692
35.6400,1.714
35.6800,1.680
35.7200,1.625
35.7600,1.644
35.8000,1.694
35.8400,1.720
35.8800,1.699
35.9200,1.695
35.9600,1.688
36.0000,1.830
36.0400,1.771
36.0800,1.745
36.1200,1.806
36.1600,1.697
36.2000,1.696
36.2400,1.645
36.2800,1.703
36.3200,1.719
36.3600,1.786
36.4000,1.827
36.4400,1.793
36.4800,1.809
36.5200,1.688
36.5600,1.888
36.6000,1.844
36.6400,1.800
36.6800,1.933
36.7200,1.864
36.7600,1.875
36.8000,1.866
36.8400,1.921
36.8800,1.931
36.9200,2.044
36.9600,1.978
37.0000,2.005
37.0400,2.073
37.0800,2.089
37.1200,2.092
37.1600,2.109
37.2000,2.312
37.2400,2.281
37.2800,2.316
37.3200,2.337
37.3600,2.461
37.4000,2.578
37.4400,2.523
37.4800,2.660
37.5200,2.800
37.5600,2.984
37.6000,2.896
37.6400,2.960
37.6800,3.165
37.7200,3.379
37.7600,3.510
37.8000,3.571
37.8400,3.805
37.8800,3.965
37.9200,4.143
37.9600,4.292
38.0000,4.450
38.0400,4.711
38.0800,4.823
38.1200,5.017
38.1600,5.166
38.2000,5.204
38.2400,5.286
38.2800,5.504
38.3200,5.582
38.3600,5.557
38.4000,5.438
38.4400,5.428
38.4800,5.380
38.5200,5.187
38.5600,5.170
38.6000,5.016
38.6400,4.844
38.6800,4.780
38.7200,4.616
38.7600,4.363
38.8000,4.317
38.8400,4.267
38.8800,4.049
38.9200,4.026
38.9600,3.877
39.0000,3.570
39.0400,3.451
39.0800,3.421
39.1200,3.394
39.1600,3.241
39.2000,3.038
39.2400,3.073
39.2800,2.987
39.3200,2.892
39.3600,2.910
39.4000,2.858
39.4400,2.666
39.4800,2.577
39.5200,2.580
39.5600,2.525
39.6000,2.595
39.6400,2.583
39.6800,2.406
39.7200,2.407
39.7600,2.390
39.8000,2.298
39.8400,2.310
39.8800,2.223
39.9200,2.204
39.9600,2.221
40.0000,2.226
40.0400,2.188
40.0800,2.227
40.1200,2.102
40.1600,2.037
40.2000,2.077
40.2400,2.035
40.2800,2.116
40.3200,2.115
40.3600,1.937
40.4000,2.008
40.4400,1.973
40.4800,1.952
40.5200,1.927
40.5600,1.945
40.6000,1.838
40.6400,1.950
40.6800,1.895
40.7200,1.901
40.7600,1.854
40.8000,1.891
40.8400,1.793
40.8800,1.808
40.9200,1.743
40.9600,1.776
41.0000,1.755
41.0400,1.735
41.0800,1.822
41.1200,1.774
41.1600,1.794
41.2000,1.827
41.2400,1.786
41.2800,1.777
41.3200,1.774
41.3600,1.706
41.4000,1.772
41.4400,1.662
41.4800,1.694
41.5200,1.623
41.5600,1.717
41.6000,1.690
41.6400,1.675
41.6800,1.687
41.7200,1.617
41.7600,1.655
41.8000,1.603
41.8400,1.681
41.8800,1.640
41.9200,1.681
41.9600,1.651
42.0000,1.654
42.0400,1.684
42.0800,1.650
42.1200,1.709
42.1600,1.647
42.2000,1.691
42.2400,1.651
42.2800,1.617
42.3200,1.677
42.3600,1.624
42.4000,1.766
42.4400,1.708
42.4800,1.752
42.5200,1.604
42.5600,1.672
42.6000,1.700
42.6400,1.636
42.6800,1.716
42.7200,1.692
42.7600,1.680
42.8000,1.758
42.8400,1.712
42.8800,1.728
42.9200,1.691
42.9600,1.754
43.0000,1.661
43.0400,1.757
43.0800,1.831
43.1200,1.845
43.1600,1.762
43.2000,1.849
43.2400,1.825
43.2800,1.881
43.3200,1.892
43.3600,1.862
43.4000,1.846
43.4400,1.942
43.4800,1.884
43.5200,1.884
43.5600,1.904
43.6000,1.905
43.6400,1.941
43.6800,1.896
43.7200,2.021
43.7600,1.939
43.8000,1.914
43.8400,1.960
43.8800,1.963
43.9200,2.006
43.9600,1.957
44.0000,1.996
44.0400,1.938
44.0800,1.976
44.1200,1.976
44.1600,2.027
44.2000,2.053
44.2400,2.027
44.2800,1.990
44.3200,2.095
44.3600,2.112
44.4000,2.108
44.4400,2.050
44.4800,2.062
44.5200,2.052
44.5600,2.040
44.6000,2.155
44.6400,1.998
44.6800,1.976
44.7200,2.018
44.7600,2.025
44.8000,1.968
44.8400,1.921
44.8800,1.929
44.9200,1.882
44.9600,1.966
45.0000,1.830
45.0400,1.753
45.0800,1.785
45.1200,1.780
45.1600,1.739
45.2000,1.694
45.2400,1.645
45.2800,1.725
45.3200,1.607
45.3600,1.612
45.4000,1.597
45.4400,1.555
45.4800,1.617
45.5200,1.509
45.5600,1.539
45.6000,1.452
45.6400,1.432
45.6800,1.449
45.7200,1.454
45.7600,1.362
45.8000,1.365
45.8400,1.435
45.8800,1.358
45.9200,1.376
45.9600,1.313
46.0000,1.316
46.0400,1.273
46.0800,1.270
46.1200,1.322
46.1600,1.231
46.2000,1.250
46.2400,1.254
46.2800,1.227
46.3200,1.214
46.3600,1.173
46.4000,1.162
46.4400,1.178
46.4800,1.196
46.5200,1.161
46.5600,1.152
46.6000,1.116
46.6400,1.165
46.6800,1.154
46.7200,1.134
46.7600,1.121
46.8000,1.122
46.8400,1.121
46.8800,1.107
46.9200,1.113
46.9600,1.020
47.0000,1.051
47.0400,1.049
47.0800,1.070
47.1200,1.043
47.1600,1.065
47.2000,1.085
47.2400,1.089
47.2800,1.063
47.3200,1.059
47.3600,1.086
47.4000,1.068
47.4400,1.050
47.4800,1.021
47.5200,1.052
47.5600,1.061
47.6000,1.043
47.6400,0.995
47.6800,1.019
47.7200,1.011
47.7600,0.912
47.8000,0.987
47.8400,1.045
47.8800,0.916
47.9200,0.929
47.9600,0.944
48.0000,1.032
48.0400,0.982
48.0800,0.990
48.1200,1.001
48.1600,0.928
48.2000,0.958
48.2400,0.954
48.2800,0.933
48.3200,0.958
48.3600,1.007
48.4000,0.987
48.4400,0.935
48.4800,0.937
48.5200,0.949
48.5600,0.939
48.6000,0.930
48.6400,0.961
48.6800,0.987
48.7200,0.922
48.7600,0.921
48.8000,0.928
48.8400,0.879
48.8800,0.880
48.9200,0.927
48.9600,0.920
49.0000,0.891
49.0400,0.884
49.0800,0.910
49.1200,0.889
49.1600,0.901
49.2000,0.906
49.2400,0.874
49.2800,0.895
49.3200,0.896
49.3600,0.889
49.4000,0.957
49.4400,0.869
49.4800,0.942
49.5200,0.863
49.5600,0.914
49.6000,0.853
49.6400,0.888
49.6800,0.873
49.7200,0.866
49.7600,0.872
49.8000,0.862
49.8400,0.878
49.8800,0.918
49.9200,0.850
49.9600,0.829
50.0000,0.821
50.0400,0.884
50.0800,0.862
50.1200,0.887
50.1600,0.873
50.2000,0.824
50.2400,0.874
50.2800,0.922
50.3200,0.849
50.3600,0.892
50.4000,0.893
50.4400,0.856
50.4800,0.840
50.5200,0.851
50.5600,0.867
50.6000,0.853
50.6400,0.869
50.6800,0.875
50.7200,0.835
50.7600,0.809
50.8000,0.848
50.8400,0.831
50.8800,0.841
50.9200,0.857
50.9600,0.786
51.0000,0.835
51.0400,0.808
51.0800,0.826
51.1200,0.779
51.1600,0.760
51.2000,0.796
51.2400,0.798
51.2800,0.824
51.3200,0.819
51.3600,0.788
51.4000,0.839
51.4400,0.799
51.4800,0.797
51.5200,0.802
51.5600,0.818
51.6000,0.809
51.6400,0.775
51.6800,0.808
51.7200,0.765
51.7600,0.802
51.8000,0.766
51.8400,0.810
51.8800,0.790
51.9200,0.749
51.9600,0.817
52.0000,0.794
52.0400,0.829
52.0800,0.783
52.1200,0.738
52.1600,0.753
52.2000,0.781
52.2400,0.748
52.2800,0.769
52.3200,0.718
52.3600,0.740
52.4000,0.744
52.4400,0.774
52.4800,0.760
52.5200,0.738
52.5600,0.762
52.6000,0.710
52.6400,0.778
52.6800,0.758
52.7200,0.740
52.7600,0.763
52.8000,0.792
52.8400,0.762
52.8800,0.776
52.9200,0.761
52.9600,0.723
53.0000,0.737
53.0400,0.768
53.0800,0.771
53.1200,0.771
53.1600,0.750
53.2000,0.736
53.2400,0.769
53.2800,0.744
53.3200,0.727
53.3600,0.754
53.4000,0.762
53.4400,0.802
53.4800,0.696
53.5200,0.665
53.5600,0.736
53.6000,0.727
53.6400,0.769
53.6800,0.754
53.7200,0.730
53.7600,0.662
53.8000,0.745
53.8400,0.680
53.8800,0.710
53.9200,0.746
53.9600,0.673
54.0000,0.686
54.0400,0.711
54.0800,0.752
54.1200,0.700
54.1600,0.736
54.2000,0.721
54.2400,0.694
54.2800,0.717
54.3200,0.712
54.3600,0.691
54.4000,0.721
54.4400,0.684
54.4800,0.715
54.5200,0.745
54.5600,0.693
54.6000,0.691
54.6400,0.692
54.6800,0.688
54.7200,0.688
54.7600,0.697
54.8000,0.654
54.8400,0.733
54.8800,0.690
54.9200,0.695
54.9600,0.693
55.0000,0.698
55.0400,0.692
55.0800,0.698
55.1200,0.697
55.1600,0.684
55.2000,0.656
55.2400,0.691
55.2800,0.692
55.3200,0.641
55.3600,0.665
55.4000,0.705
55.4400,0.718
55.4800,0.684
55.5200,0.694
55.5600,0.683
55.6000,0.654
55.6400,0.682
55.6800,0.682
55.7200,0.676
55.7600,0.650
55.8000,0.708
55.8400,0.664
55.8800,0.664
55.9200,0.643
55.9600,0.647
56.0000,0.682
56.0400,0.670
56.0800,0.711
56.1200,0.668
56.1600,0.688
56.2000,0.660
56.2400,0.676
56.2800,0.658
56.3200,0.637
56.3600,0.703
56.4000,0.689
56.4400,0.706
56.4800,0.665
56.5200,0.642
56.5600,0.697
56.6000,0.654
56.6400,0.676
56.6800,0.610
56.7200,0.644
56.7600,0.640
56.8000,0.669
56.8400,0.650
56.8800,0.648
56.9200,0.699
56.9600,0.633
57.0000,0.703
57.0400,0.642
57.0800,0.647
57.1200,0.698
57.1600,0.638
57.2000,0.645
57.2400,0.650
57.2800,0.601
57.3200,0.667
57.3600,0.649
57.4000,0.640
57.4400,0.638
57.4800,0.648
57.5200,0.684
57.5600,0.644
57.6000,0.640
57.6400,0.683
57.6800,0.616
57.7200,0.663
57.7600,0.625
57.8000,0.663
57.8400,0.672
57.8800,0.650
57.9200,0.683
57.9600,0.595
58.0000,0.621
58.0400,0.639
58.0800,0.676
58.1200,0.663
58.1600,0.617
58.2000,0.631
58.2400,0.645
58.2800,0.635
58.3200,0.618
58.3600,0.656
58.4000,0.650
58.4400,0.633
58.4800,0.634
58.5200,0.602
58.5600,0.651
58.6000,0.624
58.6400,0.605
58.6800,0.663
58.7200,0.658
58.7600,0.635
58.8000,0.601
58.8400,0.597
58.8800,0.609
58.9200,0.592
58.9600,0.627
59.0000,0.622
59.0400,0.648
59.0800,0.629
59.1200,0.615
59.1600,0.623
59.2000,0.638
59.2400,0.607
59.2800,0.635
59.3200,0.631
59.3600,0.597
59.4000,0.645
59.4400,0.677
59.4800,0.615
59.5200,0.645
59.5600,0.591
59.6000,0.615
59.6400,0.670
59.6800,0.608
59.7200,0.613
59.7600,0.611
59.8000,0.638
59.8400,0.647
59.8800,0.568
59.9200,0.562
59.9600,0.646
60.0000,0.578
60.0400,0.606
60.0800,0.615
60.1200,0.642
60.1600,0.641
60.2000,0.600
60.2400,0.599
60.2800,0.611
60.3200,0.611
60.3600,0.551
60.4000,0.580
60.4400,0.609
60.4800,0.646
60.5200,0.630
60.5600,0.619
60.6000,0.613
60.6400,0.586
60.6800,0.596
60.7200,0.602
60.7600,0.592
60.8000,0.570
60.8400,0.623
60.8800,0.638
60.9200,0.585
60.9600,0.577
61.0000,0.659
61.0400,0.570
61.0800,0.598
61.1200,0.595
61.1600,0.577
61.2000,0.647
61.2400,0.590
61.2800,0.610
61.3200,0.587
61.3600,0.571
61.4000,0.577
61.4400,0.595
61.4800,0.610
61.5200,0.580
61.5600,0.626
61.6000,0.681
61.6400,0.696
61.6800,0.704
61.7200,0.680
61.7600,0.651
61.8000,0.593
61.8400,0.628
61.8800,0.646
61.9200,0.637
61.9600,0.598
62.0000,0.598
62.0400,0.620
62.0800,0.601
62.1200,0.593
62.1600,0.599
62.2000,0.622
62.2400,0.642
62.2800,0.630
62.3200,0.619
62.3600,0.621
62.4000,0.620
62.4400,0.608
62.4800,0.625
62.5200,0.641
62.5600,0.636
62.6000,0.653
62.6400,0.611
62.6800,0.606
62.7200,0.593
62.7600,0.673
62.8000,0.671
62.8400,0.646
62.8800,0.631
62.9200,0.658
62.9600,0.629
63.0000,0.670
63.0400,0.667
63.0800,0.661
63.1200,0.669
63.1600,0.726
63.2000,0.655
63.2400,0.679
63.2800,0.654
63.3200,0.718
63.3600,0.685
63.4000,0.753
63.4400,0.705
63.4800,0.688
63.5200,0.748
63.5600,0.778
63.6000,0.755
63.6400,0.756
63.6800,0.783
63.7200,0.707
63.7600,0.804
63.8000,0.831
63.8400,0.730
63.8800,0.788
63.9200,0.819
63.9600,0.851
64.0000,0.791
64.0400,0.826
64.0800,0.912
64.1200,0.945
64.1600,0.901
64.2000,0.884
64.2400,0.897
64.2800,0.938
64.3200,0.927
64.3600,0.958
64.4000,0.982
64.4400,1.001
64.4800,1.007
64.5200,1.020
64.5600,1.022
64.6000,1.041
64.6400,1.016
64.6800,1.051
64.7200,1.042
64.7600,1.023
64.8000,1.102
64.8400,1.091
64.8800,1.078
64.9200,1.047
64.9600,1.081
65.0000,1.090
65.0400,1.075
65.0800,1.079
65.1200,0.971
65.1600,1.009
65.2000,1.098
65.2400,1.070
65.2800,1.048
65.3200,1.056
65.3600,1.031
65.4000,1.011
65.4400,1.017
65.4800,1.043
65.5200,1.000
65.5600,1.065
65.6000,0.968
65.6400,1.000
65.6800,0.977
65.7200,0.959
65.7600,0.947
65.8000,0.995
65.8400,0.972
65.8800,0.975
65.9200,0.989
65.9600,1.010
66.0000,0.976
66.0400,0.883
66.0800,0.979
66.1200,0.923
66.1600,0.942
66.2000,0.962
66.2400,0.915
66.2800,0.902
66.3200,0.906
66.3600,0.980
66.4000,1.000
66.4400,0.945
66.4800,0.944
66.5200,0.969
66.5600,0.987
66.6000,1.003
66.6400,1.035
66.6800,1.018
66.7200,0.950
66.7600,1.017
66.8000,1.066
66.8400,1.017
66.8800,1.006
66.9200,1.084
66.9600,1.034
67.0000,1.142
67.0400,1.029
67.0800,1.082
67.1200,1.112
67.1600,1.186
67.2000,1.176
67.2400,1.159
67.2800,1.220
67.3200,1.206
67.3600,1.284
67.4000,1.247
67.4400,1.225
67.4800,1.272
67.5200,1.262
67.5600,1.330
67.6000,1.426
67.6400,1.358
67.6800,1.422
67.7200,1.439
67.7600,1.449
67.8000,1.413
67.8400,1.514
67.8800,1.532
67.9200,1.565
67.9600,1.627
68.0000,1.627
68.0400,1.721
68.0800,1.649
68.1200,1.814
68.1600,1.845
68.2000,1.888
68.2400,1.959
68.2800,2.028
68.3200,2.123
68.3600,2.152
68.4000,2.252
68.4400,2.385
68.4800,2.510
68.5200,2.690
68.5600,2.832
68.6000,2.957
68.6400,3.439
68.6800,3.792
68.7200,4.905
68.7600,6.318
68.8000,7.226
68.8400,7.445
68.8800,7.714
68.9200,9.270
68.9600,12.650
69.0000,19.652
69.0400,46.857
69.0800,233.074
69.1200,479.292
69.1600,302.252
69.2000,76.521
69.2400,47.945
69.2800,136.447
69.3200,244.897
69.3600,153.542
69.4000,39.409
69.4400,15.168
69.4800,10.018
69.5200,7.973
69.5600,6.349
69.6000,5.313
69.6400,4.736
69.6800,4.169
69.7200,3.684
69.7600,3.369
69.8000,3.224
69.8400,3.006
69.8800,2.866
69.9200,2.659
69.9600,2.650
70.0000,2.425
70.0400,2.394
70.0800,2.223
70.1200,2.179
70.1600,2.099
70.2000,2.101
70.2400,1.958
70.2800,1.851
70.3200,1.851
70.3600,1.821
70.4000,1.741
70.4400,1.665
70.4800,1.585
70.5200,1.630
70.5600,1.524
70.6000,1.478
70.6400,1.440
70.6800,1.458
70.7200,1.315
70.7600,1.374
70.8000,1.310
70.8400,1.246
70.8800,1.265
70.9200,1.272
70.9600,1.269
71.0000,1.193
71.0400,1.166
71.0800,1.162
71.1200,1.054
71.1600,1.154
71.2000,1.055
71.2400,1.026
71.2800,0.972
71.3200,1.001
71.3600,1.019
71.4000,0.955
71.4400,0.938
71.4800,0.945
71.5200,0.881
71.5600,0.884
71.6000,0.907
71.6400,0.875
71.6800,0.802
71.7200,0.862
71.7600,0.792
71.8000,0.800
71.8400,0.773
71.8800,0.801
71.9200,0.800
71.9600,0.732
72.0000,0.740
72.0400,0.698
72.0800,0.731
72.1200,0.763
72.1600,0.748
72.2000,0.695
72.2400,0.682
72.2800,0.680
72.3200,0.695
72.3600,0.697
72.4000,0.660
72.4400,0.665
72.4800,0.690
72.5200,0.635
72.5600,0.607
72.6000,0.629
72.6400,0.611
72.6800,0.565
72.7200,0.626
72.7600,0.629
72.8000,0.615
72.8400,0.598
72.8800,0.599
72.9200,0.615
72.9600,0.598
73.0000,0.561
73.0400,0.548
73.0800,0.636
73.1200,0.564
73.1600,0.622
73.2000,0.583
73.2400,0.589
73.2800,0.566
73.3200,0.520
73.3600,0.548
73.4000,0.559
73.4400,0.545
73.4800,0.536
73.5200,0.558
73.5600,0.536
73.6000,0.493
73.6400,0.532
73.6800,0.540
73.7200,0.528
73.7600,0.535
73.8000,0.546
73.8400,0.552
73.8800,0.519
73.9200,0.489
73.9600,0.538
74.0000,0.542
74.0400,0.527
74.0800,0.529
74.1200,0.532
74.1600,0.524
74.2000,0.504
74.2400,0.508
74.2800,0.530
74.3200,0.522
74.3600,0.533
74.4000,0.491
74.4400,0.490
74.4800,0.500
74.5200,0.494
74.5600,0.476
74.6000,0.460
74.6400,0.450
74.6800,0.483
74.7200,0.495
74.7600,0.447
74.8000,0.477
74.8400,0.523
74.8800,0.463
74.9200,0.518
74.9600,0.447
75.0000,0.472
75.0400,0.506
75.0800,0.482
75.1200,0.508
75.1600,0.463
75.2000,0.460
75.2400,0.484
75.2800,0.464
75.3200,0.450
75.3600,0.460
75.4000,0.476
75.4400,0.484
75.4800,0.489
75.5200,0.477
75.5600,0.480
75.6000,0.489
75.6400,0.499
75.6800,0.513
75.7200,0.508
75.7600,0.499
75.8000,0.460
75.8400,0.476
75.8800,0.475
75.9200,0.522
75.9600,0.473
76.0000,0.494
76.0400,0.501
76.0800,0.495
76.1200,0.539
76.1600,0.494
76.2000,0.542
76.2400,0.526
76.2800,0.503
76.3200,0.524
76.3600,0.539
76.4000,0.533
76.4400,0.528
76.4800,0.550
76.5200,0.572
76.5600,0.557
76.6000,0.574
76.6400,0.601
76.6800,0.589
76.7200,0.594
76.7600,0.634
76.8000,0.620
76.8400,0.596
76.8800,0.609
76.9200,0.606
76.9600,0.631
77.0000,0.626
77.0400,0.620
77.0800,0.586
77.1200,0.680
77.1600,0.606
77.2000,0.669
77.2400,0.661
77.2800,0.676
77.3200,0.734
77.3600,0.720
77.4000,0.716
77.4400,0.751
77.4800,0.717
77.5200,0.729
77.5600,0.718
77.6000,0.702
77.6400,0.748
77.6800,0.814
77.7200,0.772
77.7600,0.747
77.8000,0.749
77.8400,0.796
77.8800,0.772
77.9200,0.741
77.9600,0.786
78.0000,0.737
78.0400,0.685
78.0800,0.742
78.1200,0.717
78.1600,0.766
78.2000,0.722
78.2400,0.747
78.2800,0.733
78.3200,0.651
78.3600,0.717
78.4000,0.715
78.4400,0.633
78.4800,0.665
78.5200,0.616
78.5600,0.660
78.6000,0.643
78.6400,0.672
78.6800,0.586
78.7200,0.598
78.7600,0.588
78.8000,0.576
78.8400,0.590
78.8800,0.609
78.9200,0.564
78.9600,0.566
79.0000,0.577
79.0400,0.556
79.0800,0.535
79.1200,0.558
79.1600,0.521
79.2000,0.517
79.2400,0.526
79.2800,0.555
79.3200,0.496
79.3600,0.472
79.4000,0.503
79.4400,0.523
79.4800,0.507
79.5200,0.507
79.5600,0.496
79.6000,0.489
79.6400,0.471
79.6800,0.490
79.7200,0.458
79.7600,0.495
79.8000,0.487
79.8400,0.446
79.8800,0.431
79.9200,0.447
79.9600,0.441
80.0000,0.438
