theta,intensity
5.0000,8.492
5.0400,8.134
5.0800,8.200
5.1200,8.208
5.1600,7.989
5.2000,7.879
5.2400,7.566
5.2800,7.695
5.3200,7.660
5.3600,7.223
5.4000,7.173
5.4400,7.163
5.4800,6.981
5.5200,6.783
5.5600,6.716
5.6000,6.554
5.6400,6.450
5.6800,6.397
5.7200,6.353
5.7600,5.951
5.8000,5.904
5.8400,5.929
5.8800,5.824
5.9200,5.627
5.9600,5.445
6.0000,5.389
6.0400,5.437
6.0800,5.394
6.1200,5.258
6.1600,5.148
6.2000,5.050
6.2400,5.012
6.2800,4.949
6.3200,4.930
6.3600,4.766
6.4000,4.796
6.4400,4.747
6.4800,4.700
6.5200,4.725
6.5600,4.611
6.6000,4.572
6.6400,4.610
6.6800,4.550
6.7200,4.554
6.7600,4.361
6.8000,4.423
6.8400,4.344
6.8800,4.369
6.9200,4.310
6.9600,4.223
7.0000,4.165
7.0400,4.247
7.0800,4.279
7.1200,4.170
7.1600,4.157
7.2000,4.133
7.2400,4.067
7.2800,4.124
7.3200,4.030
7.3600,4.060
7.4000,4.134
7.4400,4.123
7.4800,4.065
7.5200,4.053
7.5600,4.015
7.6000,4.089
7.6400,4.040
7.6800,4.068
7.7200,4.064
7.7600,4.073
7.8000,3.900
7.8400,3.971
7.8800,3.993
7.9200,4.051
7.9600,3.959
8.0000,3.975
8.0400,3.828
8.0800,3.842
8.1200,4.006
8.1600,3.993
8.2000,3.833
8.2400,3.761
8.2800,3.922
8.3200,3.858
8.3600,3.984
8.4000,3.975
8.4400,3.905
8.4800,3.812
8.5200,3.900
8.5600,3.944
8.6000,3.907
8.6400,3.980
8.6800,3.870
8.7200,3.805
8.7600,3.873
8.8000,3.867
8.8400,3.836
8.8800,3.939
8.9200,3.879
8.9600,3.872
9.0000,3.824
9.0400,3.861
9.0800,3.798
9.1200,3.784
9.1600,3.794
9.2000,3.785
9.2400,3.770
9.2800,3.868
9.3200,3.847
9.3600,3.752
9.4000,3.874
9.4400,3.740
9.4800,3.783
9.5200,3.874
9.5600,3.621
9.6000,3.741
9.6400,3.810
9.6800,3.801
9.7200,3.640
9.7600,3.723
9.8000,3.854
9.8400,3.737
9.8800,3.624
9.9200,3.761
9.9600,3.773
10.0000,3.718
10.0400,3.669
10.0800,3.677
10.1200,3.665
10.1600,3.761
10.2000,3.712
10.2400,3.588
10.2800,3.683
10.3200,3.684
10.3600,3.608
10.4000,3.711
10.4400,3.548
10.4800,3.634
10.5200,3.662
10.5600,3.622
10.6000,3.667
10.6400,3.605
10.6800,3.716
10.7200,3.618
10.7600,3.631
10.8000,3.580
10.8400,3.546
10.8800,3.582
10.9200,3.551
10.9600,3.502
11.0000,3.510
11.0400,3.606
11.0800,3.621
11.1200,3.581
11.1600,3.540
11.2000,3.593
11.2400,3.593
11.2800,3.578
11.3200,3.438
11.3600,3.495
11.4000,3.511
11.4400,3.571
11.4800,3.551
11.5200,3.599
11.5600,3.544
11.6000,3.503
11.6400,3.459
11.6800,3.519
11.7200,3.626
11.7600,3.454
11.8000,3.514
11.8400,3.559
11.8800,3.593
11.9200,3.440
11.9600,3.534
12.0000,3.521
12.0400,3.524
12.0800,3.434
12.1200,3.446
12.1600,3.538
12.2000,3.441
12.2400,3.489
12.2800,3.483
12.3200,3.429
12.3600,3.541
12.4000,3.425
12.4400,3.397
12.4800,3.385
12.5200,3.478
12.5600,3.445
12.6000,3.538
12.6400,3.377
12.6800,3.453
12.7200,3.393
12.7600,3.401
12.8000,3.434
12.8400,3.428
12.8800,3.364
12.9200,3.407
12.9600,3.327
13.0000,3.316
13.0400,3.413
13.0800,3.423
13.1200,3.419
13.1600,3.353
13.2000,3.354
13.2400,3.379
13.2800,3.332
13.3200,3.436
13.3600,3.376
13.4000,3.384
13.4400,3.256
13.4800,3.308
13.5200,3.290
13.5600,3.338
13.6000,3.308
13.6400,3.384
13.6800,3.260
13.7200,3.262
13.7600,3.381
13.8000,3.301
13.8400,3.336
13.8800,3.440
13.9200,3.317
13.9600,3.334
14.0000,3.298
14.0400,3.308
14.0800,3.263
14.1200,3.420
14.1600,3.211
14.2000,3.253
14.2400,3.245
14.2800,3.199
14.3200,3.236
14.3600,3.257
14.4000,3.266
14.4400,3.221
14.4800,3.188
14.5200,3.285
14.5600,3.194
14.6000,3.245
14.6400,3.236
14.6800,3.210
14.7200,3.194
14.7600,3.169
14.8000,3.266
14.8400,3.083
14.8800,3.129
14.9200,3.248
14.9600,3.174
15.0000,3.159
15.0400,3.188
15.0800,3.235
15.1200,3.159
15.1600,3.157
15.2000,3.168
15.2400,3.096
15.2800,3.168
15.3200,3.101
15.3600,3.118
15.4000,3.152
15.4400,3.075
15.4800,3.186
15.5200,3.190
15.5600,3.105
15.6000,3.166
15.6400,3.090
15.6800,3.167
15.7200,3.125
15.7600,3.097
15.8000,3.087
15.8400,3.087
15.8800,3.157
15.9200,3.021
15.9600,3.105
16.0000,3.062
16.0400,3.033
16.0800,3.073
16.1200,3.082
16.1600,3.121
16.2000,3.055
16.2400,3.035
16.2800,3.012
16.3200,2.988
16.3600,2.952
16.4000,3.048
16.4400,3.000
16.4800,3.053
16.5200,2.999
16.5600,3.112
16.6000,3.107
16.6400,3.065
16.6800,2.936
16.7200,3.025
16.7600,3.065
16.8000,3.041
16.8400,3.004
16.8800,3.040
16.9200,3.029
16.9600,2.981
17.0000,2.909
17.0400,3.026
17.0800,2.981
17.1200,3.067
17.1600,3.013
17.2000,2.930
17.2400,2.840
17.2800,2.919
17.3200,3.002
17.3600,2.985
17.4000,2.984
17.4400,2.973
17.4800,2.930
17.5200,2.913
17.5600,2.959
17.6000,2.919
17.6400,3.002
17.6800,2.894
17.7200,2.976
17.7600,2.914
17.8000,2.939
17.8400,2.951
17.8800,2.943
17.9200,2.916
17.9600,2.843
18.0000,2.913
18.0400,2.804
18.0800,2.856
18.1200,2.870
18.1600,3.017
18.2000,2.827
18.2400,2.801
18.2800,2.857
18.3200,2.915
18.3600,2.887
18.4000,2.894
18.4400,2.962
18.4800,2.886
18.5200,2.949
18.5600,2.772
18.6000,2.834
18.6400,2.940
18.6800,2.957
18.7200,2.918
18.7600,2.797
18.8000,2.952
18.8400,2.862
18.8800,2.818
18.9200,2.747
18.9600,2.703
19.0000,2.749
19.0400,2.681
19.0800,2.822
19.1200,2.816
19.1600,2.845
19.2000,2.834
19.2400,2.755
19.2800,2.854
19.3200,2.778
19.3600,2.818
19.4000,2.715
19.4400,2.797
19.4800,2.785
19.5200,2.670
19.5600,2.752
19.6000,2.671
19.6400,2.806
19.6800,2.791
19.7200,2.727
19.7600,2.681
19.8000,2.696
19.8400,2.709
19.8800,2.684
19.9200,2.680
19.9600,2.730
20.0000,2.722
20.0400,2.759
20.0800,2.716
20.1200,2.695
20.1600,2.698
20.2000,2.640
20.2400,2.681
20.2800,2.717
20.3200,2.721
20.3600,2.676
20.4000,2.623
20.4400,2.660
20.4800,2.633
20.5200,2.638
20.5600,2.645
20.6000,2.617
20.6400,2.689
20.6800,2.592
20.7200,2.575
20.7600,2.641
20.8000,2.575
20.8400,2.618
20.8800,2.586
20.9200,2.700
20.9600,2.726
21.0000,2.595
21.0400,2.558
21.0800,2.605
21.1200,2.658
21.1600,2.616
21.2000,2.557
21.2400,2.616
21.2800,2.565
21.3200,2.600
21.3600,2.545
21.4000,2.588
21.4400,2.645
21.4800,2.634
21.5200,2.541
21.5600,2.576
21.6000,2.485
21.6400,2.507
21.6800,2.529
21.7200,2.507
21.7600,2.562
21.8000,2.506
21.8400,2.480
21.8800,2.527
21.9200,2.526
21.9600,2.533
22.0000,2.501
22.0400,2.537
22.0800,2.517
22.1200,2.498
22.1600,2.466
22.2000,2.516
22.2400,2.472
22.2800,2.530
22.3200,2.494
22.3600,2.404
22.4000,2.444
22.4400,2.429
22.4800,2.465
22.5200,2.485
22.5600,2.435
22.6000,2.455
22.6400,2.515
22.6800,2.531
22.7200,2.385
22.7600,2.505
22.8000,2.496
22.8400,2.434
22.8800,2.487
22.9200,2.473
22.9600,2.373
23.0000,2.397
23.0400,2.388
23.0800,2.345
23.1200,2.425
23.1600,2.375
23.2000,2.478
23.2400,2.350
23.2800,2.416
23.3200,2.358
23.3600,2.396
23.4000,2.408
23.4400,2.392
23.4800,2.352
23.5200,2.357
23.5600,2.391
23.6000,2.373
23.6400,2.338
23.6800,2.291
23.7200,2.393
23.7600,2.425
23.8000,2.355
23.8400,2.345
23.8800,2.300
23.9200,2.359
23.9600,2.321
24.0000,2.373
24.0400,2.265
24.0800,2.294
24.1200,2.344
24.1600,2.251
24.2000,2.248
24.2400,2.355
24.2800,2.298
24.3200,2.296
24.3600,2.216
24.4000,2.326
24.4400,2.289
24.4800,2.278
24.5200,2.278
24.5600,2.282
24.6000,2.260
24.6400,2.255
24.6800,2.218
24.7200,2.294
24.7600,2.236
24.8000,2.255
24.8400,2.328
24.8800,2.242
24.9200,2.182
24.9600,2.267
25.0000,2.355
25.0400,2.240
25.0800,2.171
25.1200,2.156
25.1600,2.249
25.2000,2.274
25.2400,2.251
25.2800,2.210
25.3200,2.187
25.3600,2.279
25.4000,2.227
25.4400,2.234
25.4800,2.202
25.5200,2.131
25.5600,2.236
25.6000,2.204
25.6400,2.245
25.6800,2.136
25.7200,2.120
25.7600,2.175
25.8000,2.179
25.8400,2.161
25.8800,2.181
25.9200,2.188
25.9600,2.197
26.0000,2.102
26.0400,2.139
26.0800,2.157
26.1200,2.145
26.1600,2.169
26.2000,2.110
26.2400,2.176
26.2800,2.139
26.3200,2.219
26.3600,2.115
26.4000,2.063
26.4400,2.181
26.4800,2.147
26.5200,2.131
26.5600,2.125
26.6000,2.057
26.6400,2.062
26.6800,2.120
26.7200,2.047
26.7600,2.120
26.8000,2.059
26.8400,2.076
26.8800,1.989
26.9200,2.118
26.9600,2.040
27.0000,2.000
27.0400,2.066
27.0800,2.117
27.1200,2.092
27.1600,2.062
27.2000,2.122
27.2400,2.166
27.2800,2.063
27.3200,2.025
27.3600,2.090
27.4000,1.977
27.4400,2.067
27.4800,2.049
27.5200,1.985
27.5600,1.995
27.6000,2.030
27.6400,2.083
27.6800,2.096
27.7200,2.035
27.7600,2.038
27.8000,2.058
27.8400,1.961
27.8800,1.983
27.9200,1.990
27.9600,1.947
28.0000,1.981
28.0400,1.946
28.0800,1.982
28.1200,1.944
28.1600,2.011
28.2000,2.009
28.2400,1.951
28.2800,2.017
28.3200,2.034
28.3600,2.024
28.4000,1.965
28.4400,1.934
28.4800,1.975
28.5200,1.835
28.5600,1.977
28.6000,2.010
28.6400,1.930
28.6800,1.889
28.7200,1.975
28.7600,1.940
28.8000,1.966
28.8400,2.029
28.8800,1.941
28.9200,1.913
28.9600,1.958
29.0000,1.918
29.0400,1.954
29.0800,1.893
29.1200,1.956
29.1600,1.821
29.2000,1.923
29.2400,1.964
29.2800,1.979
29.3200,1.907
29.3600,1.877
29.4000,1.960
29.4400,1.967
29.4800,1.887
29.5200,1.878
29.5600,1.927
29.6000,2.016
29.6400,1.902
29.6800,1.847
29.7200,1.927
29.7600,1.908
29.8000,1.860
29.8400,1.830
29.8800,1.914
29.9200,1.843
29.9600,1.959
30.0000,1.861
30.0400,1.887
30.0800,1.821
30.1200,1.826
30.1600,1.817
30.2000,1.894
30.2400,1.867
30.2800,1.822
30.3200,1.845
30.3600,1.900
30.4000,1.768
30.4400,1.810
30.4800,1.817
30.5200,1.771
30.5600,1.821
30.6000,1.844
30.6400,1.783
30.6800,1.757
30.7200,1.819
30.7600,1.750
30.8000,1.762
30.8400,1.860
30.8800,1.782
30.9200,1.791
30.9600,1.817
31.0000,1.816
31.0400,1.791
31.0800,1.786
31.1200,1.770
31.1600,1.767
31.2000,1.799
31.2400,1.746
31.2800,1.725
31.3200,1.671
31.3600,1.707
31.4000,1.676
31.4400,1.646
31.4800,1.711
31.5200,1.808
31.5600,1.754
31.6000,1.783
31.6400,1.742
31.6800,1.715
31.7200,1.706
31.7600,1.659
31.8000,1.736
31.8400,1.695
31.8800,1.679
31.9200,1.730
31.9600,1.692
32.0000,1.649
32.0400,1.668
32.0800,1.700
32.1200,1.613
32.1600,1.674
32.2000,1.749
32.2400,1.664
32.2800,1.682
32.3200,1.810
32.3600,1.698
32.4000,1.744
32.4400,1.646
32.4800,1.644
32.5200,1.633
32.5600,1.723
32.6000,1.670
32.6400,1.598
32.6800,1.652
32.7200,1.659
32.7600,1.633
32.8000,1.753
32.8400,1.664
32.8800,1.618
32.9200,1.650
32.9600,1.563
33.0000,1.666
33.0400,1.670
33.0800,1.645
33.1200,1.655
33.1600,1.666
33.2000,1.608
33.2400,1.588
33.2800,1.567
33.3200,1.601
33.3600,1.626
33.4000,1.634
33.4400,1.599
33.4800,1.586
33.5200,1.610
33.5600,1.610
33.6000,1.584
33.6400,1.621
33.6800,1.626
33.7200,1.590
33.7600,1.547
33.8000,1.560
33.8400,1.585
33.8800,1.561
33.9200,1.544
33.9600,1.554
34.0000,1.533
34.0400,1.542
34.0800,1.590
34.1200,1.565
34.1600,1.621
34.2000,1.562
34.2400,1.611
34.2800,1.614
34.3200,1.601
34.3600,1.627
34.4000,1.610
34.4400,1.598
34.4800,1.516
34.5200,1.629
34.5600,1.577
34.6000,1.600
34.6400,1.597
34.6800,1.558
34.7200,1.571
34.7600,1.595
34.8000,1.604
34.8400,1.562
34.8800,1.606
34.9200,1.571
34.9600,1.560
35.0000,1.590
35.0400,1.594
35.0800,1.604
35.1200,1.614
35.1600,1.588
35.2000,1.646
35.2400,1.618
35.2800,1.563
35.3200,1.547
35.3600,1.637
35.4000,1.603
35.4400,1.603
35.4800,1.608
35.5200,1.600
35.5600,1.616
35.6000,1.585
35.6400,1.588
35.6800,1.606
35.7200,1.668
35.7600,1.677
35.8000,1.683
35.8400,1.730
35.8800,1.709
35.9200,1.627
35.9600,1.671
36.0000,1.620
36.0400,1.729
36.0800,1.678
36.1200,1.772
36.1600,1.775
36.2000,1.712
36.2400,1.706
36.2800,1.789
36.3200,1.723
36.3600,1.753
36.4000,1.727
36.4400,1.818
36.4800,1.761
36.5200,1.728
36.5600,1.755
36.6000,1.655
36.6400,1.729
36.6800,1.749
36.7200,1.690
36.7600,1.710
36.8000,1.669
36.8400,1.684
36.8800,1.723
36.9200,1.690
36.9600,1.670
37.0000,1.711
37.0400,1.652
37.0800,1.681
37.1200,1.572
37.1600,1.647
37.2000,1.627
37.2400,1.599
37.2800,1.641
37.3200,1.572
37.3600,1.555
37.4000,1.591
37.4400,1.585
37.4800,1.554
37.5200,1.508
37.5600,1.485
37.6000,1.561
37.6400,1.546
37.6800,1.527
37.7200,1.443
37.7600,1.504
37.8000,1.438
37.8400,1.509
37.8800,1.445
37.9200,1.453
37.9600,1.479
38.0000,1.414
38.0400,1.417
38.0800,1.391
38.1200,1.471
38.1600,1.419
38.2000,1.466
38.2400,1.362
38.2800,1.398
38.3200,1.453
38.3600,1.455
38.4000,1.379
38.4400,1.381
38.4800,1.394
38.5200,1.384
38.5600,1.335
38.6000,1.409
38.6400,1.420
38.6800,1.366
38.7200,1.299
38.7600,1.322
38.8000,1.321
38.8400,1.313
38.8800,1.313
38.9200,1.347
38.9600,1.278
39.0000,1.252
39.0400,1.357
39.0800,1.297
39.1200,1.323
39.1600,1.302
39.2000,1.272
39.2400,1.209
39.2800,1.292
39.3200,1.260
39.3600,1.264
39.4000,1.235
39.4400,1.329
39.4800,1.269
39.5200,1.268
39.5600,1.340
39.6000,1.257
39.6400,1.229
39.6800,1.245
39.7200,1.297
39.7600,1.228
39.8000,1.171
39.8400,1.229
39.8800,1.290
39.9200,1.253
39.9600,1.259
40.0000,1.263
40.0400,1.217
40.0800,1.234
40.1200,1.191
40.1600,1.244
40.2000,1.241
40.2400,1.154
40.2800,1.269
40.3200,1.249
40.3600,1.192
40.4000,1.244
40.4400,1.232
40.4800,1.192
40.5200,1.231
40.5600,1.199
40.6000,1.249
40.6400,1.185
40.6800,1.218
40.7200,1.222
40.7600,1.283
40.8000,1.260
40.8400,1.314
40.8800,1.272
40.9200,1.182
40.9600,1.168
41.0000,1.247
41.0400,1.150
41.0800,1.188
41.1200,1.204
41.1600,1.244
41.2000,1.247
41.2400,1.212
41.2800,1.184
41.3200,1.139
41.3600,1.251
41.4000,1.179
41.4400,1.207
41.4800,1.215
41.5200,1.253
41.5600,1.257
41.6000,1.245
41.6400,1.204
41.6800,1.237
41.7200,1.251
41.7600,1.307
41.8000,1.312
41.8400,1.219
41.8800,1.291
41.9200,1.233
41.9600,1.279
42.0000,1.248
42.0400,1.212
42.0800,1.290
42.1200,1.341
42.1600,1.314
42.2000,1.327
42.2400,1.347
42.2800,1.292
42.3200,1.312
42.3600,1.267
42.4000,1.338
42.4400,1.301
42.4800,1.339
42.5200,1.400
42.5600,1.455
42.6000,1.367
42.6400,1.380
42.6800,1.385
42.7200,1.406
42.7600,1.453
42.8000,1.427
42.8400,1.578
42.8800,1.488
42.9200,1.511
42.9600,1.606
43.0000,1.583
43.0400,1.572
43.0800,1.655
43.1200,1.687
43.1600,1.759
43.2000,1.781
43.2400,1.806
43.2800,1.845
43.3200,1.841
43.3600,1.809
43.4000,1.811
43.4400,1.690
43.4800,1.662
43.5200,1.608
43.5600,1.574
43.6000,1.564
43.6400,1.484
43.6800,1.418
43.7200,1.395
43.7600,1.366
43.8000,1.309
43.8400,1.330
43.8800,1.404
43.9200,1.228
43.9600,1.221
44.0000,1.197
44.0400,1.254
44.0800,1.181
44.1200,1.217
44.1600,1.208
44.2000,1.214
44.2400,1.134
44.2800,1.091
44.3200,1.114
44.3600,1.156
44.4000,1.188
44.4400,1.143
44.4800,1.093
44.5200,1.096
44.5600,1.082
44.6000,1.060
44.6400,0.999
44.6800,1.088
44.7200,1.062
44.7600,1.065
44.8000,1.037
44.8400,1.034
44.8800,1.026
44.9200,1.006
44.9600,1.082
45.0000,1.057
45.0400,1.019
45.0800,1.026
45.1200,1.071
45.1600,0.983
45.2000,1.016
45.2400,0.970
45.2800,0.982
45.3200,0.981
45.3600,0.981
45.4000,0.994
45.4400,0.998
45.4800,0.992
45.5200,0.957
45.5600,0.997
45.6000,0.973
45.6400,0.995
45.6800,1.015
45.7200,0.977
45.7600,0.949
45.8000,0.945
45.8400,0.953
45.8800,0.935
45.9200,1.014
45.9600,0.926
46.0000,0.915
46.0400,0.927
46.0800,0.910
46.1200,0.930
46.1600,0.968
46.2000,1.033
46.2400,0.947
46.2800,0.947
46.3200,0.960
46.3600,0.899
46.4000,0.917
46.4400,0.925
46.4800,0.920
46.5200,0.938
46.5600,0.891
46.6000,0.961
46.6400,0.956
46.6800,0.904
46.7200,0.975
46.7600,0.853
46.8000,0.929
46.8400,0.942
46.8800,0.905
46.9200,0.965
46.9600,0.843
47.0000,0.915
47.0400,0.867
47.0800,0.900
47.1200,0.889
47.1600,0.874
47.2000,0.880
47.2400,0.911
47.2800,0.923
47.3200,0.897
47.3600,0.884
47.4000,0.903
47.4400,0.937
47.4800,0.880
47.5200,0.881
47.5600,0.904
47.6000,0.875
47.6400,0.915
47.6800,0.912
47.7200,0.831
47.7600,0.898
47.8000,0.857
47.8400,0.924
47.8800,0.932
47.9200,0.887
47.9600,0.919
48.0000,0.865
48.0400,0.867
48.0800,0.934
48.1200,0.918
48.1600,0.868
48.2000,0.872
48.2400,0.862
48.2800,0.908
48.3200,0.855
48.3600,0.844
48.4000,0.866
48.4400,0.879
48.4800,0.816
48.5200,0.878
48.5600,0.852
48.6000,0.871
48.6400,0.870
48.6800,0.886
48.7200,0.871
48.7600,0.927
48.8000,0.909
48.8400,0.855
48.8800,0.838
48.9200,0.877
48.9600,0.815
49.0000,0.904
49.0400,0.943
49.0800,0.867
49.1200,0.883
49.1600,0.840
49.2000,0.892
49.2400,0.850
49.2800,0.864
49.3200,0.885
49.3600,0.880
49.4000,0.927
49.4400,0.897
49.4800,0.867
49.5200,0.936
49.5600,0.881
49.6000,0.894
49.6400,0.899
49.6800,0.818
49.7200,0.902
49.7600,0.909
49.8000,0.877
49.8400,0.900
49.8800,0.890
49.9200,0.977
49.9600,0.945
50.0000,0.905
50.0400,0.934
50.0800,0.890
50.1200,0.874
50.1600,0.929
50.2000,0.954
50.2400,0.915
50.2800,0.907
50.3200,0.936
50.3600,0.916
50.4000,0.919
50.4400,0.925
50.4800,0.966
50.5200,0.889
50.5600,0.928
50.6000,0.890
50.6400,0.935
50.6800,0.876
50.7200,0.960
50.7600,0.878
50.8000,0.889
50.8400,0.883
50.8800,0.812
50.9200,0.904
50.9600,0.849
51.0000,0.849
51.0400,0.878
51.0800,0.817
51.1200,0.876
51.1600,0.828
51.2000,0.796
51.2400,0.787
51.2800,0.833
51.3200,0.802
51.3600,0.846
51.4000,0.873
51.4400,0.757
51.4800,0.808
51.5200,0.780
51.5600,0.807
51.6000,0.790
51.6400,0.799
51.6800,0.792
51.7200,0.779
51.7600,0.775
51.8000,0.757
51.8400,0.709
51.8800,0.753
51.9200,0.766
51.9600,0.731
52.0000,0.744
52.0400,0.745
52.0800,0.734
52.1200,0.717
52.1600,0.714
52.2000,0.759
52.2400,0.723
52.2800,0.807
52.3200,0.717
52.3600,0.736
52.4000,0.710
52.4400,0.743
52.4800,0.713
52.5200,0.753
52.5600,0.726
52.6000,0.713
52.6400,0.701
52.6800,0.750
52.7200,0.711
52.7600,0.693
52.8000,0.712
52.8400,0.719
52.8800,0.726
52.9200,0.739
52.9600,0.738
53.0000,0.703
53.0400,0.693
53.0800,0.731
53.1200,0.711
53.1600,0.692
53.2000,0.722
53.2400,0.724
53.2800,0.706
53.3200,0.736
53.3600,0.698
53.4000,0.734
53.4400,0.676
53.4800,0.658
53.5200,0.680
53.5600,0.644
53.6000,0.677
53.6400,0.694
53.6800,0.672
53.7200,0.742
53.7600,0.674
53.8000,0.695
53.8400,0.732
53.8800,0.704
53.9200,0.696
53.9600,0.705
54.0000,0.655
54.0400,0.698
54.0800,0.687
54.1200,0.676
54.1600,0.674
54.2000,0.675
54.2400,0.658
54.2800,0.670
54.3200,0.686
54.3600,0.702
54.4000,0.693
54.4400,0.673
54.4800,0.680
54.5200,0.700
54.5600,0.658
54.6000,0.699
54.6400,0.683
54.6800,0.637
54.7200,0.701
54.7600,0.655
54.8000,0.676
54.8400,0.711
54.8800,0.701
54.9200,0.678
54.9600,0.655
55.0000,0.671
55.0400,0.645
55.0800,0.665
55.1200,0.653
55.1600,0.671
55.2000,0.658
55.2400,0.660
55.2800,0.657
55.3200,0.665
55.3600,0.666
55.4000,0.679
55.4400,0.680
55.4800,0.623
55.5200,0.642
55.5600,0.650
55.6000,0.682
55.6400,0.650
55.6800,0.644
55.7200,0.645
55.7600,0.606
55.8000,0.647
55.8400,0.664
55.8800,0.634
55.9200,0.670
55.9600,0.641
56.0000,0.685
56.0400,0.601
56.0800,0.617
56.1200,0.669
56.1600,0.638
56.2000,0.640
56.2400,0.638
56.2800,0.647
56.3200,0.627
56.3600,0.664
56.4000,0.663
56.4400,0.612
56.4800,0.622
56.5200,0.624
56.5600,0.644
56.6000,0.645
56.6400,0.634
56.6800,0.612
56.7200,0.657
56.7600,0.640
56.8000,0.622
56.8400,0.578
56.8800,0.634
56.9200,0.665
56.9600,0.628
57.0000,0.618
57.0400,0.659
57.0800,0.642
57.1200,0.652
57.1600,0.622
57.2000,0.630
57.2400,0.654
57.2800,0.610
57.3200,0.636
57.3600,0.622
57.4000,0.592
57.4400,0.663
57.4800,0.645
57.5200,0.564
57.5600,0.642
57.6000,0.610
57.6400,0.609
57.6800,0.644
57.7200,0.574
57.7600,0.619
57.8000,0.604
57.8400,0.622
57.8800,0.605
57.9200,0.616
57.9600,0.585
58.0000,0.590
58.0400,0.599
58.0800,0.624
58.1200,0.592
58.1600,0.624
58.2000,0.545
58.2400,0.604
58.2800,0.629
58.3200,0.599
58.3600,0.586
58.4000,0.662
58.4400,0.636
58.4800,0.616
58.5200,0.615
58.5600,0.608
58.6000,0.630
58.6400,0.653
58.6800,0.654
58.7200,0.570
58.7600,0.578
58.8000,0.579
58.8400,0.600
58.8800,0.603
58.9200,0.613
58.9600,0.576
59.0000,0.616
59.0400,0.588
59.0800,0.620
59.1200,0.596
59.1600,0.606
59.2000,0.573
59.2400,0.577
59.2800,0.608
59.3200,0.622
59.3600,0.616
59.4000,0.595
59.4400,0.618
59.4800,0.604
59.5200,0.594
59.5600,0.614
59.6000,0.627
59.6400,0.582
59.6800,0.610
59.7200,0.597
59.7600,0.573
59.8000,0.592
59.8400,0.572
59.8800,0.612
59.9200,0.582
59.9600,0.597
60.0000,0.599
60.0400,0.644
60.0800,0.586
60.1200,0.586
60.1600,0.613
60.2000,0.605
60.2400,0.638
60.2800,0.553
60.3200,0.590
60.3600,0.581
60.4000,0.549
60.4400,0.582
60.4800,0.560
60.5200,0.592
60.5600,0.583
60.6000,0.562
60.6400,0.583
60.6800,0.605
60.7200,0.580
60.7600,0.532
60.8000,0.596
60.8400,0.562
60.8800,0.567
60.9200,0.586
60.9600,0.544
61.0000,0.552
61.0400,0.586
61.0800,0.614
61.1200,0.625
61.1600,0.600
61.2000,0.611
61.2400,0.615
61.2800,0.595
61.3200,0.560
61.3600,0.572
61.4000,0.577
61.4400,0.583
61.4800,0.569
61.5200,0.608
61.5600,0.604
61.6000,0.688
61.6400,0.683
61.6800,0.655
61.7200,0.627
61.7600,0.565
61.8000,0.607
61.8400,0.573
61.8800,0.558
61.9200,0.562
61.9600,0.614
62.0000,0.614
62.0400,0.583
62.0800,0.591
62.1200,0.590
62.1600,0.571
62.2000,0.609
62.2400,0.580
62.2800,0.597
62.3200,0.562
62.3600,0.580
62.4000,0.630
62.4400,0.589
62.4800,0.550
62.5200,0.579
62.5600,0.577
62.6000,0.595
62.6400,0.600
62.6800,0.604
62.7200,0.593
62.7600,0.598
62.8000,0.568
62.8400,0.565
62.8800,0.590
62.9200,0.528
62.9600,0.541
63.0000,0.557
63.0400,0.559
63.0800,0.562
63.1200,0.576
63.1600,0.572
63.2000,0.568
63.2400,0.561
63.2800,0.515
63.3200,0.560
63.3600,0.572
63.4000,0.558
63.4400,0.577
63.4800,0.580
63.5200,0.549
63.5600,0.568
63.6000,0.572
63.6400,0.581
63.6800,0.559
63.7200,0.563
63.7600,0.579
63.8000,0.575
63.8400,0.598
63.8800,0.586
63.9200,0.562
63.9600,0.572
64.0000,0.599
64.0400,0.558
64.0800,0.593
64.1200,0.597
64.1600,0.620
64.2000,0.600
64.2400,0.578
64.2800,0.578
64.3200,0.606
64.3600,0.604
64.4000,0.574
64.4400,0.606
64.4800,0.608
64.5200,0.608
64.5600,0.608
64.6000,0.646
64.6400,0.597
64.6800,0.611
64.7200,0.621
64.7600,0.573
64.8000,0.563
64.8400,0.575
64.8800,0.623
64.9200,0.599
64.9600,0.594
65.0000,0.633
65.0400,0.603
65.0800,0.619
65.1200,0.642
65.1600,0.637
65.2000,0.670
65.2400,0.643
65.2800,0.642
65.3200,0.660
65.3600,0.662
65.4000,0.651
65.4400,0.685
65.4800,0.679
65.5200,0.683
65.5600,0.673
65.6000,0.664
65.6400,0.713
65.6800,0.725
65.7200,0.719
65.7600,0.706
65.8000,0.697
65.8400,0.734
65.8800,0.726
65.9200,0.752
65.9600,0.778
66.0000,0.762
66.0400,0.739
66.0800,0.741
66.1200,0.783
66.1600,0.840
66.2000,0.754
66.2400,0.814
66.2800,0.827
66.3200,0.805
66.3600,0.866
66.4000,0.861
66.4400,0.820
66.4800,0.860
66.5200,0.873
66.5600,0.941
66.6000,0.891
66.6400,0.999
66.6800,0.968
66.7200,0.872
66.7600,0.965
66.8000,0.949
66.8400,0.974
66.8800,1.022
66.9200,1.092
66.9600,1.073
67.0000,1.053
67.0400,1.090
67.0800,1.147
67.1200,1.128
67.1600,1.156
67.2000,1.149
67.2400,1.174
67.2800,1.271
67.3200,1.267
67.3600,1.316
67.4000,1.312
67.4400,1.282
67.4800,1.287
67.5200,1.389
67.5600,1.394
67.6000,1.489
67.6400,1.434
67.6800,1.542
67.7200,1.526
67.7600,1.572
67.8000,1.557
67.8400,1.579
67.8800,1.696
67.9200,1.648
67.9600,1.816
68.0000,1.720
68.0400,1.866
68.0800,1.976
68.1200,1.979
68.1600,2.099
68.2000,2.123
68.2400,2.227
68.2800,2.229
68.3200,2.356
68.3600,2.438
68.4000,2.550
68.4400,2.667
68.4800,2.824
68.5200,2.960
68.5600,3.108
68.6000,3.554
68.6400,3.932
68.6800,4.918
68.7200,6.444
68.7600,7.742
68.8000,8.369
68.8400,8.399
68.8800,9.485
68.9200,11.794
68.9600,18.270
69.0000,35.619
69.0400,127.087
69.0800,473.216
69.1200,542.640
69.1600,198.770
69.2000,58.883
69.2400,90.862
69.2800,266.838
69.3200,281.791
69.3600,99.231
69.4000,26.181
69.4400,14.243
69.4800,9.943
69.5200,7.820
69.5600,6.794
69.6000,5.740
69.6400,5.017
69.6800,4.490
69.7200,4.080
69.7600,3.882
69.8000,3.596
69.8400,3.303
69.8800,3.245
69.9200,3.005
69.9600,2.881
70.0000,2.787
70.0400,2.757
70.0800,2.503
70.1200,2.434
70.1600,2.408
70.2000,2.258
70.2400,2.197
70.2800,2.150
70.3200,2.043
70.3600,2.002
70.4000,1.948
70.4400,1.818
70.4800,1.815
70.5200,1.710
70.5600,1.669
70.6000,1.664
70.6400,1.536
70.6800,1.526
70.7200,1.631
70.7600,1.444
70.8000,1.465
70.8400,1.440
70.8800,1.314
70.9200,1.322
70.9600,1.339
71.0000,1.331
71.0400,1.210
71.0800,1.241
71.1200,1.156
71.1600,1.161
71.2000,1.127
71.2400,1.185
71.2800,1.116
71.3200,1.082
71.3600,1.026
71.4000,1.063
71.4400,1.018
71.4800,0.971
71.5200,1.021
71.5600,0.864
71.6000,0.894
71.6400,0.873
71.6800,0.915
71.7200,0.847
71.7600,0.846
71.8000,0.819
71.8400,0.868
71.8800,0.843
71.9200,0.750
71.9600,0.769
72.0000,0.789
72.0400,0.806
72.0800,0.728
72.1200,0.699
72.1600,0.697
72.2000,0.725
72.2400,0.691
72.2800,0.678
72.3200,0.700
72.3600,0.711
72.4000,0.678
72.4400,0.657
72.4800,0.610
72.5200,0.667
72.5600,0.656
72.6000,0.604
72.6400,0.601
72.6800,0.618
72.7200,0.620
72.7600,0.575
72.8000,0.542
72.8400,0.634
72.8800,0.635
72.9200,0.639
72.9600,0.568
73.0000,0.554
73.0400,0.592
73.0800,0.542
73.1200,0.578
73.1600,0.567
73.2000,0.565
73.2400,0.532
73.2800,0.558
73.3200,0.539
73.3600,0.544
73.4000,0.556
73.4400,0.536
73.4800,0.550
73.5200,0.520
73.5600,0.534
73.6000,0.536
73.6400,0.566
73.6800,0.564
73.7200,0.529
73.7600,0.514
73.8000,0.511
73.8400,0.535
73.8800,0.547
73.9200,0.499
73.9600,0.476
74.0000,0.493
74.0400,0.485
74.0800,0.546
74.1200,0.478
74.1600,0.517
74.2000,0.551
74.2400,0.529
74.2800,0.506
74.3200,0.503
74.3600,0.483
74.4000,0.503
74.4400,0.497
74.4800,0.500
74.5200,0.460
74.5600,0.479
74.6000,0.425
74.6400,0.455
74.6800,0.444
74.7200,0.438
74.7600,0.443
74.8000,0.426
74.8400,0.395
74.8800,0.438
74.9200,0.422
74.9600,0.429
75.0000,0.444
75.0400,0.407
75.0800,0.408
75.1200,0.397
75.1600,0.417
75.2000,0.436
75.2400,0.384
75.2800,0.401
75.3200,0.394
75.3600,0.400
75.4000,0.385
75.4400,0.390
75.4800,0.383
75.5200,0.392
75.5600,0.402
75.6000,0.374
75.6400,0.368
75.6800,0.396
75.7200,0.403
75.7600,0.382
75.8000,0.384
75.8400,0.373
75.8800,0.373
75.9200,0.377
75.9600,0.399
76.0000,0.378
76.0400,0.344
76.0800,0.352
76.1200,0.399
76.1600,0.325
76.2000,0.363
76.2400,0.363
76.2800,0.356
76.3200,0.361
76.3600,0.337
76.4000,0.388
76.4400,0.331
76.4800,0.381
76.5200,0.388
76.5600,0.372
76.6000,0.331
76.6400,0.348
76.6800,0.369
76.7200,0.350
76.7600,0.385
76.8000,0.332
76.8400,0.322
76.8800,0.351
76.9200,0.343
76.9600,0.351
77.0000,0.340
77.0400,0.322
77.0800,0.358
77.1200,0.323
77.1600,0.346
77.2000,0.342
77.2400,0.332
77.2800,0.334
77.3200,0.336
77.3600,0.321
77.4000,0.312
77.4400,0.389
77.4800,0.350
77.5200,0.335
77.5600,0.346
77.6000,0.365
77.6400,0.344
77.6800,0.320
77.7200,0.336
77.7600,0.329
77.8000,0.350
77.8400,0.324
77.8800,0.350
77.9200,0.315
77.9600,0.344
78.0000,0.327
78.0400,0.339
78.0800,0.349
78.1200,0.319
78.1600,0.334
78.2000,0.312
78.2400,0.343
78.2800,0.323
78.3200,0.301
78.3600,0.322
78.4000,0.322
78.4400,0.337
78.4800,0.322
78.5200,0.310
78.5600,0.331
78.6000,0.302
78.6400,0.315
78.6800,0.325
78.7200,0.293
78.7600,0.300
78.8000,0.309
78.8400,0.309
78.8800,0.318
78.9200,0.329
78.9600,0.323
79.0000,0.292
79.0400,0.316
79.0800,0.311
79.1200,0.287
79.1600,0.305
79.2000,0.285
79.2400,0.289
79.2800,0.299
79.3200,0.299
79.3600,0.307
79.4000,0.301
79.4400,0.281
79.4800,0.288
79.5200,0.262
79.5600,0.272
79.6000,0.290
79.6400,0.273
79.6800,0.291
79.7200,0.283
79.7600,0.310
79.8000,0.278
79.8400,0.295
79.8800,0.246
79.9200,0.293
79.9600,0.278
80.0000,0.267
