theta,intensity
5.0000,5.194
5.0400,5.260
5.0800,5.375
5.1200,5.249
5.1600,5.190
5.2000,5.054
5.2400,5.058
5.2800,5.011
5.3200,4.987
5.3600,4.982
5.4000,5.055
5.4400,5.138
5.4800,4.910
5.5200,4.864
5.5600,4.841
5.6000,4.763
5.6400,4.754
5.6800,4.774
5.7200,4.636
5.7600,4.596
5.8000,4.562
5.8400,4.468
5.8800,4.441
5.9200,4.412
5.9600,4.425
6.0000,4.359
6.0400,4.389
6.0800,4.316
6.1200,4.327
6.1600,4.209
6.2000,4.227
6.2400,4.160
6.2800,4.153
6.3200,4.034
6.3600,4.085
6.4000,3.932
6.4400,4.092
6.4800,3.999
6.5200,3.952
6.5600,4.050
6.6000,4.049
6.6400,3.952
6.6800,4.013
6.7200,4.007
6.7600,3.970
6.8000,4.038
6.8400,4.010
6.8800,4.022
6.9200,4.027
6.9600,3.978
7.0000,4.013
7.0400,4.005
7.0800,3.965
7.1200,3.962
7.1600,3.989
7.2000,3.959
7.2400,3.989
7.2800,3.973
7.3200,3.937
7.3600,3.970
7.4000,4.006
7.4400,3.930
7.4800,3.980
7.5200,3.862
7.5600,3.917
7.6000,3.887
7.6400,3.845
7.6800,3.812
7.7200,3.877
7.7600,3.921
7.8000,3.840
7.8400,3.839
7.8800,3.893
7.9200,3.877
7.9600,3.812
8.0000,3.875
8.0400,3.781
8.0800,3.823
8.1200,3.792
8.1600,3.819
8.2000,3.726
8.2400,3.776
8.2800,3.748
8.3200,3.788
8.3600,3.739
8.4000,3.937
8.4400,3.797
8.4800,3.736
8.5200,3.802
8.5600,3.852
8.6000,3.782
8.6400,3.789
8.6800,3.710
8.7200,3.837
8.7600,3.780
8.8000,3.685
8.8400,3.724
8.8800,3.801
8.9200,3.809
8.9600,3.649
9.0000,3.788
9.0400,3.747
9.0800,3.707
9.1200,3.788
9.1600,3.728
9.2000,3.742
9.2400,3.719
9.2800,3.687
9.3200,3.661
9.3600,3.714
9.4000,3.709
9.4400,3.713
9.4800,3.772
9.5200,3.725
9.5600,3.721
9.6000,3.715
9.6400,3.702
9.6800,3.653
9.7200,3.664
9.7600,3.633
9.8000,3.661
9.8400,3.697
9.8800,3.673
9.9200,3.582
9.9600,3.733
10.0000,3.590
10.0400,3.581
10.0800,3.642
10.1200,3.545
10.1600,3.592
10.2000,3.643
10.2400,3.673
10.2800,3.600
10.3200,3.587
10.3600,3.665
10.4000,3.564
10.4400,3.516
10.4800,3.702
10.5200,3.615
10.5600,3.598
10.6000,3.688
10.6400,3.609
10.6800,3.628
10.7200,3.557
10.7600,3.501
10.8000,3.589
10.8400,3.443
10.8800,3.489
10.9200,3.442
10.9600,3.442
11.0000,3.495
11.0400,3.429
11.0800,3.485
11.1200,3.507
11.1600,3.586
11.2000,3.464
11.2400,3.510
11.2800,3.549
11.3200,3.549
11.3600,3.444
11.4000,3.412
11.4400,3.429
11.4800,3.513
11.5200,3.507
11.5600,3.373
11.6000,3.525
11.6400,3.431
11.6800,3.444
11.7200,3.392
11.7600,3.523
11.8000,3.466
11.8400,3.385
11.8800,3.534
11.9200,3.502
11.9600,3.318
12.0000,3.449
12.0400,3.511
12.0800,3.441
12.1200,3.385
12.1600,3.419
12.2000,3.398
12.2400,3.378
12.2800,3.369
12.3200,3.461
12.3600,3.425
12.4000,3.354
12.4400,3.403
12.4800,3.301
12.5200,3.397
12.5600,3.341
12.6000,3.251
12.6400,3.395
12.6800,3.327
12.7200,3.363
12.7600,3.428
12.8000,3.358
12.8400,3.281
12.8800,3.344
12.9200,3.317
12.9600,3.361
13.0000,3.275
13.0400,3.345
13.0800,3.357
13.1200,3.294
13.1600,3.373
13.2000,3.314
13.2400,3.232
13.2800,3.284
13.3200,3.335
13.3600,3.324
13.4000,3.290
13.4400,3.229
13.4800,3.305
13.5200,3.205
13.5600,3.286
13.6000,3.377
13.6400,3.231
13.6800,3.222
13.7200,3.198
13.7600,3.305
13.8000,3.244
13.8400,3.308
13.8800,3.275
13.9200,3.208
13.9600,3.185
14.0000,3.184
14.0400,3.276
14.0800,3.293
14.1200,3.091
14.1600,3.201
14.2000,3.194
14.2400,3.305
14.2800,3.208
14.3200,3.224
14.3600,3.226
14.4000,3.128
14.4400,3.173
14.4800,3.234
14.5200,3.258
14.5600,3.203
14.6000,3.202
14.6400,3.220
14.6800,3.182
14.7200,3.129
14.7600,3.174
14.8000,3.249
14.8400,3.160
14.8800,3.124
14.9200,3.135
14.9600,3.278
15.0000,3.144
15.0400,3.231
15.0800,3.111
15.1200,3.056
15.1600,3.194
15.2000,3.010
15.2400,3.106
15.2800,3.055
15.3200,3.055
15.3600,3.051
15.4000,3.118
15.4400,3.062
15.4800,3.060
15.5200,3.139
15.5600,3.090
15.6000,3.174
15.6400,3.140
15.6800,3.129
15.7200,3.062
15.7600,3.132
15.8000,3.096
15.8400,3.005
15.8800,3.065
15.9200,2.916
15.9600,2.999
16.0000,3.020
16.0400,3.086
16.0800,3.089
16.1200,2.942
16.1600,2.969
16.2000,3.043
16.2400,3.032
16.2800,2.936
16.3200,2.979
16.3600,3.046
16.4000,2.932
16.4400,2.878
16.4800,2.997
16.5200,3.066
16.5600,2.987
16.6000,2.957
16.6400,3.096
16.6800,3.078
16.7200,2.989
16.7600,2.977
16.8000,3.006
16.8400,3.015
16.8800,3.018
16.9200,2.978
16.9600,2.937
17.0000,2.986
17.0400,3.009
17.0800,2.950
17.1200,2.982
17.1600,2.998
17.2000,2.924
17.2400,2.835
17.2800,2.897
17.3200,2.931
17.3600,2.903
17.4000,2.938
17.4400,2.903
17.4800,2.956
17.5200,2.922
17.5600,2.969
17.6000,2.919
17.6400,2.841
17.6800,2.816
17.7200,2.807
17.7600,2.940
17.8000,2.792
17.8400,2.859
17.8800,2.850
17.9200,2.921
17.9600,2.849
18.0000,2.782
18.0400,2.827
18.0800,2.826
18.1200,2.883
18.1600,2.950
18.2000,2.845
18.2400,2.803
18.2800,2.842
18.3200,2.774
18.3600,2.765
18.4000,2.793
18.4400,2.778
18.4800,2.849
18.5200,2.775
18.5600,2.814
18.6000,2.899
18.6400,2.747
18.6800,2.832
18.7200,2.810
18.7600,2.932
18.8000,2.889
18.8400,2.821
18.8800,2.705
18.9200,2.736
18.9600,2.739
19.0000,2.759
19.0400,2.687
19.0800,2.735
19.1200,2.843
19.1600,2.701
19.2000,2.777
19.2400,2.783
19.2800,2.777
19.3200,2.773
19.3600,2.796
19.4000,2.744
19.4400,2.705
19.4800,2.776
19.5200,2.751
19.5600,2.735
19.6000,2.744
19.6400,2.699
19.6800,2.697
19.7200,2.728
19.7600,2.685
19.8000,2.704
19.8400,2.643
19.8800,2.591
19.9200,2.645
19.9600,2.705
20.0000,2.638
20.0400,2.703
20.0800,2.740
20.1200,2.702
20.1600,2.629
20.2000,2.662
20.2400,2.623
20.2800,2.725
20.3200,2.685
20.3600,2.638
20.4000,2.628
20.4400,2.707
20.4800,2.694
20.5200,2.601
20.5600,2.550
20.6000,2.765
20.6400,2.770
20.6800,2.747
20.7200,2.737
20.7600,2.682
20.8000,2.597
20.8400,2.663
20.8800,2.643
20.9200,2.631
20.9600,2.637
21.0000,2.580
21.0400,2.593
21.0800,2.545
21.1200,2.554
21.1600,2.616
21.2000,2.466
21.2400,2.632
21.2800,2.631
21.3200,2.564
21.3600,2.592
21.4000,2.591
21.4400,2.610
21.4800,2.537
21.5200,2.507
21.5600,2.616
21.6000,2.565
21.6400,2.560
21.6800,2.550
21.7200,2.516
21.7600,2.626
21.8000,2.519
21.8400,2.613
21.8800,2.513
21.9200,2.532
21.9600,2.516
22.0000,2.540
22.0400,2.553
22.0800,2.461
22.1200,2.566
22.1600,2.482
22.2000,2.462
22.2400,2.498
22.2800,2.549
22.3200,2.469
22.3600,2.506
22.4000,2.588
22.4400,2.447
22.4800,2.420
22.5200,2.444
22.5600,2.529
22.6000,2.497
22.6400,2.455
22.6800,2.508
22.7200,2.378
22.7600,2.464
22.8000,2.407
22.8400,2.495
22.8800,2.420
22.9200,2.448
22.9600,2.380
23.0000,2.425
23.0400,2.373
23.0800,2.466
23.1200,2.409
23.1600,2.334
23.2000,2.396
23.2400,2.451
23.2800,2.335
23.3200,2.423
23.3600,2.367
23.4000,2.418
23.4400,2.317
23.4800,2.322
23.5200,2.394
23.5600,2.411
23.6000,2.369
23.6400,2.362
23.6800,2.297
23.7200,2.383
23.7600,2.332
23.8000,2.358
23.8400,2.306
23.8800,2.401
23.9200,2.348
23.9600,2.410
24.0000,2.356
24.0400,2.259
24.0800,2.266
24.1200,2.331
24.1600,2.303
24.2000,2.364
24.2400,2.299
24.2800,2.284
24.3200,2.274
24.3600,2.293
24.4000,2.265
24.4400,2.309
24.4800,2.343
24.5200,2.284
24.5600,2.331
24.6000,2.227
24.6400,2.270
24.6800,2.337
24.7200,2.312
24.7600,2.294
24.8000,2.259
24.8400,2.329
24.8800,2.301
24.9200,2.213
24.9600,2.274
25.0000,2.275
25.0400,2.332
25.0800,2.161
25.1200,2.179
25.1600,2.238
25.2000,2.312
25.2400,2.255
25.2800,2.282
25.3200,2.274
25.3600,2.236
25.4000,2.237
25.4400,2.230
25.4800,2.293
25.5200,2.176
25.5600,2.209
25.6000,2.208
25.6400,2.264
25.6800,2.239
25.7200,2.225
25.7600,2.281
25.8000,2.185
25.8400,2.265
25.8800,2.298
25.9200,2.155
25.9600,2.202
26.0000,2.279
26.0400,2.243
26.0800,2.374
26.1200,2.277
26.1600,2.289
26.2000,2.402
26.2400,2.399
26.2800,2.453
26.3200,2.402
26.3600,2.561
26.4000,2.632
26.4400,2.983
26.4800,3.309
26.5200,3.558
26.5600,3.930
26.6000,4.209
26.6400,4.401
26.6800,4.251
26.7200,3.837
26.7600,3.476
26.8000,3.197
26.8400,3.051
26.8800,2.901
26.9200,2.771
26.9600,2.658
27.0000,2.615
27.0400,2.490
27.0800,2.318
27.1200,2.272
27.1600,2.312
27.2000,2.231
27.2400,2.257
27.2800,2.138
27.3200,2.096
27.3600,2.116
27.4000,2.180
27.4400,2.096
27.4800,2.212
27.5200,2.211
27.5600,2.114
27.6000,2.151
27.6400,2.187
27.6800,2.126
27.7200,2.132
27.7600,2.112
27.8000,2.050
27.8400,2.115
27.8800,2.018
27.9200,1.996
27.9600,2.055
28.0000,2.041
28.0400,2.105
28.0800,2.074
28.1200,2.074
28.1600,2.210
28.2000,2.137
28.2400,2.033
28.2800,2.035
28.3200,2.085
28.3600,2.033
28.4000,2.018
28.4400,2.027
28.4800,2.002
28.5200,1.982
28.5600,1.998
28.6000,1.929
28.6400,1.945
28.6800,1.955
28.7200,1.976
28.7600,2.111
28.8000,1.916
28.8400,1.977
28.8800,1.934
28.9200,1.884
28.9600,1.974
29.0000,2.146
29.0400,2.013
29.0800,2.027
29.1200,2.008
29.1600,2.063
29.2000,1.989
29.2400,1.988
29.2800,2.012
29.3200,2.091
29.3600,2.233
29.4000,2.180
29.4400,2.094
29.4800,2.034
29.5200,1.963
29.5600,1.942
29.6000,1.931
29.6400,1.861
29.6800,1.978
29.7200,1.930
29.7600,1.949
29.8000,1.951
29.8400,2.005
29.8800,1.861
29.9200,2.037
29.9600,1.972
30.0000,1.970
30.0400,1.947
30.0800,1.967
30.1200,1.952
30.1600,1.962
30.2000,1.914
30.2400,1.940
30.2800,2.068
30.3200,2.058
30.3600,1.997
30.4000,2.160
30.4400,2.181
30.4800,2.317
30.5200,2.688
30.5600,3.253
30.6000,4.106
30.6400,4.769
30.6800,4.604
30.7200,4.079
30.7600,3.539
30.8000,2.767
30.8400,2.455
30.8800,2.161
30.9200,2.083
30.9600,2.080
31.0000,2.019
31.0400,1.981
31.0800,1.963
31.1200,2.008
31.1600,1.952
31.2000,2.021
31.2400,1.947
31.2800,2.044
31.3200,2.028
31.3600,2.019
31.4000,1.952
31.4400,1.954
31.4800,1.939
31.5200,1.982
31.5600,2.096
31.6000,2.286
31.6400,2.553
31.6800,2.920
31.7200,3.283
31.7600,3.589
31.8000,3.510
31.8400,3.238
31.8800,2.766
31.9200,2.400
31.9600,2.193
32.0000,2.029
32.0400,1.905
32.0800,1.943
32.1200,1.884
32.1600,1.827
32.2000,1.817
32.2400,1.860
32.2800,1.723
32.3200,1.872
32.3600,1.866
32.4000,1.904
32.4400,1.834
32.4800,1.796
32.5200,1.796
32.5600,1.783
32.6000,1.780
32.6400,1.781
32.6800,1.781
32.7200,1.740
32.7600,1.683
32.8000,1.668
32.8400,1.741
32.8800,1.797
32.9200,1.682
32.9600,1.696
33.0000,1.770
33.0400,1.761
33.0800,1.718
33.1200,1.723
33.1600,1.730
33.2000,1.782
33.2400,1.699
33.2800,1.700
33.3200,1.745
33.3600,1.706
33.4000,1.791
33.4400,1.835
33.4800,1.783
33.5200,1.782
33.5600,1.879
33.6000,1.896
33.6400,1.947
33.6800,2.114
33.7200,2.152
33.7600,2.368
33.8000,2.543
33.8400,2.659
33.8800,2.811
33.9200,2.927
33.9600,2.824
34.0000,2.784
34.0400,2.503
34.0800,2.299
34.1200,2.146
34.1600,2.019
34.2000,1.929
34.2400,1.779
34.2800,1.764
34.3200,1.735
34.3600,1.693
34.4000,1.734
34.4400,1.655
34.4800,1.583
34.5200,1.627
34.5600,1.564
34.6000,1.676
34.6400,1.633
34.6800,1.597
34.7200,1.533
34.7600,1.567
34.8000,1.564
34.8400,1.519
34.8800,1.491
34.9200,1.552
34.9600,1.536
35.0000,1.562
35.0400,1.499
35.0800,1.493
35.1200,1.555
35.1600,1.486
35.2000,1.538
35.2400,1.481
35.2800,1.465
35.3200,1.477
35.3600,1.535
35.4000,1.489
35.4400,1.458
35.4800,1.433
35.5200,1.548
35.5600,1.468
35.6000,1.496
35.6400,1.475
35.6800,1.440
35.7200,1.413
35.7600,1.396
35.8000,1.523
35.8400,1.515
35.8800,1.477
35.9200,1.455
35.9600,1.449
36.0000,1.440
36.0400,1.457
36.0800,1.437
36.1200,1.413
36.1600,1.457
36.2000,1.422
36.2400,1.442
36.2800,1.424
36.3200,1.456
36.3600,1.416
36.4000,1.416
36.4400,1.471
36.4800,1.472
36.5200,1.371
36.5600,1.413
36.6000,1.469
36.6400,1.425
36.6800,1.388
36.7200,1.431
36.7600,1.398
36.8000,1.409
36.8400,1.431
36.8800,1.387
36.9200,1.403
36.9600,1.491
37.0000,1.448
37.0400,1.420
37.0800,1.445
37.1200,1.510
37.1600,1.545
37.2000,1.715
37.2400,1.896
37.2800,2.120
37.3200,2.055
37.3600,1.988
37.4000,1.838
37.4400,1.698
37.4800,1.539
37.5200,1.545
37.5600,1.493
37.6000,1.452
37.6400,1.477
37.6800,1.425
37.7200,1.493
37.7600,1.486
37.8000,1.404
37.8400,1.516
37.8800,1.626
37.9200,1.648
37.9600,1.754
38.0000,1.719
38.0400,1.740
38.0800,1.614
38.1200,1.652
38.1600,1.560
38.2000,1.433
38.2400,1.426
38.2800,1.355
38.3200,1.354
38.3600,1.432
38.4000,1.346
38.4400,1.370
38.4800,1.354
38.5200,1.342
38.5600,1.372
38.6000,1.398
38.6400,1.334
38.6800,1.253
38.7200,1.374
38.7600,1.371
38.8000,1.394
38.8400,1.408
38.8800,1.323
38.9200,1.402
38.9600,1.429
39.0000,1.377
39.0400,1.380
39.0800,1.485
39.1200,1.512
39.1600,1.516
39.2000,1.588
39.2400,1.704
39.2800,1.820
39.3200,1.918
39.3600,2.049
39.4000,2.418
39.4400,2.942
39.4800,3.314
39.5200,3.324
39.5600,3.079
39.6000,2.711
39.6400,2.370
39.6800,1.934
39.7200,1.866
39.7600,1.799
39.8000,1.838
39.8400,1.889
39.8800,2.232
39.9200,2.705
39.9600,3.515
40.0000,4.070
40.0400,3.951
40.0800,3.688
40.1200,3.089
40.1600,2.523
40.2000,2.033
40.2400,1.786
40.2800,1.669
40.3200,1.549
40.3600,1.513
40.4000,1.410
40.4400,1.395
40.4800,1.396
40.5200,1.491
40.5600,1.569
40.6000,1.610
40.6400,1.708
40.6800,1.724
40.7200,1.710
40.7600,1.707
40.8000,1.725
40.8400,1.790
40.8800,2.014
40.9200,1.846
40.9600,1.825
41.0000,1.695
41.0400,1.547
41.0800,1.446
41.1200,1.343
41.1600,1.241
41.2000,1.315
41.2400,1.196
41.2800,1.203
41.3200,1.157
41.3600,1.136
41.4000,1.186
41.4400,1.186
41.4800,1.105
41.5200,1.151
41.5600,1.231
41.6000,1.159
41.6400,1.173
41.6800,1.146
41.7200,1.094
41.7600,1.150
41.8000,1.081
41.8400,1.141
41.8800,1.144
41.9200,1.135
41.9600,1.213
42.0000,1.232
42.0400,1.173
42.0800,1.202
42.1200,1.174
42.1600,1.141
42.2000,1.122
42.2400,1.132
42.2800,1.189
42.3200,1.120
42.3600,1.119
42.4000,1.103
42.4400,1.166
42.4800,1.072
42.5200,1.069
42.5600,1.034
42.6000,1.051
42.6400,1.103
42.6800,1.130
42.7200,1.072
42.7600,1.069
42.8000,1.005
42.8400,1.076
42.8800,1.078
42.9200,1.021
42.9600,1.093
43.0000,1.062
43.0400,0.994
43.0800,1.046
43.1200,1.045
43.1600,1.028
43.2000,1.004
43.2400,1.013
43.2800,1.067
43.3200,1.062
43.3600,1.054
43.4000,1.016
43.4400,1.001
43.4800,1.030
43.5200,1.049
43.5600,1.072
43.6000,1.021
43.6400,1.026
43.6800,1.056
43.7200,0.994
43.7600,1.042
43.8000,1.062
43.8400,1.063
43.8800,1.066
43.9200,0.954
43.9600,1.016
44.0000,1.011
44.0400,0.998
44.0800,1.001
44.1200,0.988
44.1600,1.004
44.2000,0.994
44.2400,1.031
44.2800,0.999
44.3200,0.963
44.3600,1.053
44.4000,0.970
44.4400,0.984
44.4800,0.952
44.5200,0.998
44.5600,0.994
44.6000,1.013
44.6400,1.007
44.6800,1.050
44.7200,1.109
44.7600,1.104
44.8000,1.140
44.8400,1.085
44.8800,1.142
44.9200,1.104
44.9600,1.071
45.0000,1.033
45.0400,1.017
45.0800,1.003
45.1200,1.116
45.1600,1.028
45.2000,1.136
45.2400,1.158
45.2800,1.122
45.3200,1.218
45.3600,1.251
45.4000,1.291
45.4400,1.244
45.4800,1.206
45.5200,1.092
45.5600,1.035
45.6000,1.047
45.6400,1.004
45.6800,1.004
45.7200,0.982
45.7600,0.946
45.8000,0.993
45.8400,0.977
45.8800,0.967
45.9200,0.998
45.9600,0.960
46.0000,0.910
46.0400,0.936
46.0800,0.959
46.1200,0.961
46.1600,0.929
46.2000,0.957
46.2400,0.953
46.2800,0.992
46.3200,1.042
46.3600,1.067
46.4000,1.080
46.4400,1.129
46.4800,1.244
46.5200,1.458
46.5600,1.633
46.6000,1.742
46.6400,1.828
46.6800,1.956
46.7200,1.859
46.7600,1.761
46.8000,1.606
46.8400,1.431
46.8800,1.338
46.9200,1.202
46.9600,1.166
47.0000,1.082
47.0400,1.026
47.0800,1.034
47.1200,0.982
47.1600,0.975
47.2000,0.926
47.2400,0.899
47.2800,0.896
47.3200,0.927
47.3600,0.926
47.4000,0.894
47.4400,0.909
47.4800,0.887
47.5200,0.907
47.5600,0.900
47.6000,0.909
47.6400,0.885
47.6800,0.874
47.7200,0.867
47.7600,0.888
47.8000,0.822
47.8400,0.881
47.8800,0.845
47.9200,0.872
47.9600,0.871
48.0000,0.893
48.0400,0.841
48.0800,0.834
48.1200,0.884
48.1600,0.893
48.2000,0.880
48.2400,0.849
48.2800,0.867
48.3200,0.878
48.3600,0.859
48.4000,0.829
48.4400,0.837
48.4800,0.891
48.5200,0.892
48.5600,0.868
48.6000,0.875
48.6400,0.869
48.6800,0.938
48.7200,0.900
48.7600,0.921
48.8000,0.929
48.8400,0.984
48.8800,1.040
48.9200,1.149
48.9600,1.252
49.0000,1.453
49.0400,1.492
49.0800,1.412
49.1200,1.363
49.1600,1.297
49.2000,1.160
49.2400,1.076
49.2800,1.004
49.3200,0.963
49.3600,0.899
49.4000,0.836
49.4400,0.826
49.4800,0.791
49.5200,0.827
49.5600,0.842
49.6000,0.891
49.6400,0.814
49.6800,0.808
49.7200,0.791
49.7600,0.820
49.8000,0.823
49.8400,0.800
49.8800,0.820
49.9200,0.821
49.9600,0.817
50.0000,0.789
50.0400,0.775
50.0800,0.812
50.1200,0.814
50.1600,0.796
50.2000,0.771
50.2400,0.809
50.2800,0.780
50.3200,0.753
50.3600,0.778
50.4000,0.749
50.4400,0.790
50.4800,0.796
50.5200,0.799
50.5600,0.799
50.6000,0.804
50.6400,0.784
50.6800,0.797
50.7200,0.731
50.7600,0.806
50.8000,0.794
50.8400,0.770
50.8800,0.794
50.9200,0.774
50.9600,0.788
51.0000,0.817
51.0400,0.761
51.0800,0.791
51.1200,0.821
51.1600,0.799
51.2000,0.786
51.2400,0.825
51.2800,0.834
51.3200,0.905
51.3600,0.857
51.4000,0.920
51.4400,0.874
51.4800,0.860
51.5200,0.934
51.5600,0.986
51.6000,1.051
51.6400,1.086
51.6800,1.269
51.7200,1.391
51.7600,1.442
51.8000,1.479
51.8400,1.482
51.8800,1.462
51.9200,1.394
51.9600,1.321
52.0000,1.211
52.0400,1.116
52.0800,1.029
52.1200,0.943
52.1600,0.920
52.2000,0.882
52.2400,0.872
52.2800,0.865
52.3200,0.842
52.3600,0.845
52.4000,0.856
52.4400,0.932
52.4800,1.003
52.5200,0.914
52.5600,0.961
52.6000,1.000
52.6400,0.904
52.6800,0.884
52.7200,0.845
52.7600,0.817
52.8000,0.767
52.8400,0.784
52.8800,0.751
52.9200,0.752
52.9600,0.686
53.0000,0.763
53.0400,0.708
53.0800,0.725
53.1200,0.763
53.1600,0.706
53.2000,0.762
53.2400,0.729
53.2800,0.713
53.3200,0.702
53.3600,0.717
53.4000,0.714
53.4400,0.734
53.4800,0.694
53.5200,0.703
53.5600,0.691
53.6000,0.714
53.6400,0.717
53.6800,0.707
53.7200,0.680
53.7600,0.696
53.8000,0.690
53.8400,0.711
53.8800,0.691
53.9200,0.657
53.9600,0.710
54.0000,0.683
54.0400,0.691
54.0800,0.707
54.1200,0.716
54.1600,0.694
54.2000,0.683
54.2400,0.665
54.2800,0.649
54.3200,0.744
54.3600,0.720
54.4000,0.709
54.4400,0.747
54.4800,0.711
54.5200,0.687
54.5600,0.712
54.6000,0.743
54.6400,0.719
54.6800,0.775
54.7200,0.800
54.7600,0.850
54.8000,0.841
54.8400,0.844
54.8800,0.788
54.9200,0.868
54.9600,0.765
55.0000,0.725
55.0400,0.702
55.0800,0.734
55.1200,0.700
55.1600,0.708
55.2000,0.679
55.2400,0.715
55.2800,0.661
55.3200,0.691
55.3600,0.702
55.4000,0.651
55.4400,0.699
55.4800,0.692
55.5200,0.661
55.5600,0.661
55.6000,0.681
55.6400,0.658
55.6800,0.628
55.7200,0.638
55.7600,0.643
55.8000,0.685
55.8400,0.649
55.8800,0.645
55.9200,0.652
55.9600,0.610
56.0000,0.648
56.0400,0.617
56.0800,0.662
56.1200,0.637
56.1600,0.630
56.2000,0.653
56.2400,0.635
56.2800,0.655
56.3200,0.652
56.3600,0.628
56.4000,0.623
56.4400,0.666
56.4800,0.601
56.5200,0.652
56.5600,0.620
56.6000,0.669
56.6400,0.593
56.6800,0.623
56.7200,0.630
56.7600,0.648
56.8000,0.690
56.8400,0.693
56.8800,0.642
56.9200,0.640
56.9600,0.628
57.0000,0.619
57.0400,0.606
57.0800,0.621
57.1200,0.637
57.1600,0.626
57.2000,0.670
57.2400,0.649
57.2800,0.677
57.3200,0.672
57.3600,0.650
57.4000,0.736
57.4400,0.774
57.4800,0.802
57.5200,0.824
57.5600,0.914
57.6000,0.902
57.6400,0.840
57.6800,0.912
57.7200,0.886
57.7600,0.843
57.8000,0.803
57.8400,0.792
57.8800,0.788
57.9200,0.785
57.9600,0.762
58.0000,0.752
58.0400,0.763
58.0800,0.773
58.1200,0.712
58.1600,0.717
58.2000,0.683
58.2400,0.700
58.2800,0.771
58.3200,0.693
58.3600,0.626
58.4000,0.663
58.4400,0.646
58.4800,0.599
58.5200,0.612
58.5600,0.616
58.6000,0.649
58.6400,0.638
58.6800,0.643
58.7200,0.596
58.7600,0.609
58.8000,0.653
58.8400,0.613
58.8800,0.642
58.9200,0.667
58.9600,0.624
59.0000,0.620
59.0400,0.625
59.0800,0.583
59.1200,0.629
59.1600,0.640
59.2000,0.639
59.2400,0.566
59.2800,0.609
59.3200,0.622
59.3600,0.634
59.4000,0.643
59.4400,0.632
59.4800,0.616
59.5200,0.568
59.5600,0.561
59.6000,0.601
59.6400,0.590
59.6800,0.609
59.7200,0.549
59.7600,0.610
59.8000,0.596
59.8400,0.584
59.8800,0.620
59.9200,0.613
59.9600,0.593
60.0000,0.594
60.0400,0.633
60.0800,0.620
60.1200,0.662
60.1600,0.638
60.2000,0.660
60.2400,0.661
60.2800,0.636
60.3200,0.640
60.3600,0.656
60.4000,0.628
60.4400,0.613
60.4800,0.580
60.5200,0.594
60.5600,0.601
60.6000,0.548
60.6400,0.602
60.6800,0.583
60.7200,0.575
60.7600,0.587
60.8000,0.564
60.8400,0.567
60.8800,0.585
60.9200,0.585
60.9600,0.591
61.0000,0.598
61.0400,0.579
61.0800,0.599
61.1200,0.577
61.1600,0.593
61.2000,0.581
61.2400,0.594
61.2800,0.544
61.3200,0.550
61.3600,0.531
61.4000,0.556
61.4400,0.551
61.4800,0.589
61.5200,0.588
61.5600,0.587
61.6000,0.574
61.6400,0.595
61.6800,0.693
61.7200,0.701
61.7600,0.652
61.8000,0.670
61.8400,0.649
61.8800,0.667
61.9200,0.686
61.9600,0.689
62.0000,0.732
62.0400,0.677
62.0800,0.704
62.1200,0.688
62.1600,0.658
62.2000,0.638
62.2400,0.641
62.2800,0.650
62.3200,0.620
62.3600,0.587
62.4000,0.578
62.4400,0.565
62.4800,0.527
62.5200,0.541
62.5600,0.590
62.6000,0.584
62.6400,0.510
62.6800,0.520
62.7200,0.552
62.7600,0.557
62.8000,0.578
62.8400,0.567
62.8800,0.572
62.9200,0.554
62.9600,0.590
63.0000,0.593
63.0400,0.576
63.0800,0.591
63.1200,0.618
63.1600,0.611
63.2000,0.627
63.2400,0.658
63.2800,0.630
63.3200,0.581
63.3600,0.596
63.4000,0.609
63.4400,0.597
63.4800,0.582
63.5200,0.640
63.5600,0.591
63.6000,0.607
63.6400,0.652
63.6800,0.681
63.7200,0.696
63.7600,0.761
63.8000,0.788
63.8400,0.652
63.8800,0.688
63.9200,0.660
63.9600,0.645
64.0000,0.654
64.0400,0.621
64.0800,0.555
64.1200,0.564
64.1600,0.611
64.2000,0.563
64.2400,0.559
64.2800,0.597
64.3200,0.590
64.3600,0.594
64.4000,0.592
64.4400,0.605
64.4800,0.592
64.5200,0.630
64.5600,0.641
64.6000,0.639
64.6400,0.657
64.6800,0.632
64.7200,0.669
64.7600,0.691
64.8000,0.696
64.8400,0.747
64.8800,0.658
64.9200,0.667
64.9600,0.687
65.0000,0.690
65.0400,0.638
65.0800,0.640
65.1200,0.719
65.1600,0.703
65.2000,0.722
65.2400,0.674
65.2800,0.769
65.3200,0.764
65.3600,0.699
65.4000,0.722
65.4400,0.757
65.4800,0.729
65.5200,0.709
65.5600,0.689
65.6000,0.775
65.6400,0.732
65.6800,0.743
65.7200,0.763
65.7600,0.672
65.8000,0.771
65.8400,0.764
65.8800,0.774
65.9200,0.817
65.9600,0.870
66.0000,0.834
66.0400,0.880
66.0800,0.857
66.1200,0.848
66.1600,0.861
66.2000,0.812
66.2400,0.915
66.2800,0.912
66.3200,0.856
66.3600,0.810
66.4000,0.864
66.4400,0.871
66.4800,0.832
66.5200,0.849
66.5600,0.846
66.6000,0.878
66.6400,0.845
66.6800,0.882
66.7200,0.894
66.7600,0.923
66.8000,0.873
66.8400,0.911
66.8800,0.953
66.9200,0.973
66.9600,1.038
67.0000,1.005
67.0400,1.107
67.0800,1.127
67.1200,1.197
67.1600,1.168
67.2000,1.151
67.2400,1.162
67.2800,1.169
67.3200,1.157
67.3600,1.203
67.4000,1.158
67.4400,1.198
67.4800,1.248
67.5200,1.221
67.5600,1.278
67.6000,1.211
67.6400,1.306
67.6800,1.304
67.7200,1.377
67.7600,1.356
67.8000,1.338
67.8400,1.439
67.8800,1.481
67.9200,1.462
67.9600,1.614
68.0000,1.671
68.0400,1.715
68.0800,1.823
68.1200,1.816
68.1600,1.862
68.2000,1.854
68.2400,1.841
68.2800,1.988
68.3200,2.030
68.3600,2.085
68.4000,2.129
68.4400,2.282
68.4800,2.221
68.5200,2.430
68.5600,2.561
68.6000,2.675
68.6400,2.966
68.6800,3.180
68.7200,3.899
68.7600,5.069
68.8000,6.418
68.8400,7.189
68.8800,7.409
68.9200,7.465
68.9600,9.164
69.0000,12.793
69.0400,22.287
69.0800,58.250
69.1200,291.064
69.1600,510.120
69.2000,280.915
69.2400,69.617
69.2800,53.742
69.3200,169.459
69.3600,262.283
69.4000,138.600
69.4400,34.691
69.4800,14.733
69.5200,9.541
69.5600,7.412
69.6000,6.047
69.6400,5.099
69.6800,4.641
69.7200,4.114
69.7600,3.720
69.8000,3.477
69.8400,3.089
69.8800,2.874
69.9200,2.804
69.9600,2.737
70.0000,2.378
70.0400,2.386
70.0800,2.354
70.1200,2.216
70.1600,2.162
70.2000,2.068
70.2400,2.007
70.2800,1.955
70.3200,1.895
70.3600,1.825
70.4000,1.747
70.4400,1.666
70.4800,1.656
70.5200,1.556
70.5600,1.545
70.6000,1.541
70.6400,1.433
70.6800,1.479
70.7200,1.438
70.7600,1.366
70.8000,1.376
70.8400,1.365
70.8800,1.257
70.9200,1.253
70.9600,1.163
71.0000,1.192
71.0400,1.194
71.0800,1.191
71.1200,1.140
71.1600,1.154
71.2000,1.117
71.2400,1.088
71.2800,1.069
71.3200,1.096
71.3600,1.029
71.4000,1.026
71.4400,0.996
71.4800,0.926
71.5200,0.916
71.5600,0.921
71.6000,0.870
71.6400,0.903
71.6800,0.824
71.7200,0.813
71.7600,0.773
71.8000,0.793
71.8400,0.787
71.8800,0.751
71.9200,0.774
71.9600,0.729
72.0000,0.755
72.0400,0.730
72.0800,0.695
72.1200,0.684
72.1600,0.692
72.2000,0.703
72.2400,0.661
72.2800,0.662
72.3200,0.616
72.3600,0.644
72.4000,0.631
72.4400,0.628
72.4800,0.626
72.5200,0.636
72.5600,0.613
72.6000,0.634
72.6400,0.608
72.6800,0.587
72.7200,0.608
72.7600,0.622
72.8000,0.608
72.8400,0.638
72.8800,0.607
72.9200,0.593
72.9600,0.616
73.0000,0.546
73.0400,0.598
73.0800,0.547
73.1200,0.549
73.1600,0.551
73.2000,0.518
73.2400,0.499
73.2800,0.527
73.3200,0.514
73.3600,0.495
73.4000,0.461
73.4400,0.501
73.4800,0.473
73.5200,0.480
73.5600,0.466
73.6000,0.448
73.6400,0.410
73.6800,0.453
73.7200,0.497
73.7600,0.449
73.8000,0.420
73.8400,0.458
73.8800,0.434
73.9200,0.429
73.9600,0.442
74.0000,0.445
74.0400,0.416
74.0800,0.468
74.1200,0.442
74.1600,0.383
74.2000,0.431
74.2400,0.393
74.2800,0.412
74.3200,0.400
74.3600,0.423
74.4000,0.407
74.4400,0.416
74.4800,0.394
74.5200,0.439
74.5600,0.402
74.6000,0.374
74.6400,0.408
74.6800,0.418
74.7200,0.395
74.7600,0.371
74.8000,0.422
74.8400,0.430
74.8800,0.375
74.9200,0.418
74.9600,0.460
75.0000,0.428
75.0400,0.386
75.0800,0.413
75.1200,0.391
75.1600,0.436
75.2000,0.394
75.2400,0.372
75.2800,0.369
75.3200,0.392
75.3600,0.367
75.4000,0.356
75.4400,0.381
75.4800,0.382
75.5200,0.365
75.5600,0.348
75.6000,0.359
75.6400,0.380
75.6800,0.372
75.7200,0.351
75.7600,0.358
75.8000,0.375
75.8400,0.357
75.8800,0.413
75.9200,0.374
75.9600,0.345
76.0000,0.379
76.0400,0.356
76.0800,0.360
76.1200,0.360
76.1600,0.370
76.2000,0.392
76.2400,0.419
76.2800,0.366
76.3200,0.358
76.3600,0.383
76.4000,0.361
76.4400,0.399
76.4800,0.416
76.5200,0.419
76.5600,0.415
76.6000,0.434
76.6400,0.437
76.6800,0.447
76.7200,0.413
76.7600,0.430
76.8000,0.423
76.8400,0.448
76.8800,0.403
76.9200,0.390
76.9600,0.352
77.0000,0.403
77.0400,0.392
77.0800,0.334
77.1200,0.362
77.1600,0.311
77.2000,0.346
77.2400,0.338
77.2800,0.312
77.3200,0.350
77.3600,0.332
77.4000,0.330
77.4400,0.306
77.4800,0.332
77.5200,0.364
77.5600,0.339
77.6000,0.380
77.6400,0.358
77.6800,0.343
77.7200,0.354
77.7600,0.354
77.8000,0.312
77.8400,0.307
77.8800,0.346
77.9200,0.340
77.9600,0.342
78.0000,0.311
78.0400,0.330
78.0800,0.312
78.1200,0.357
78.1600,0.340
78.2000,0.299
78.2400,0.322
78.2800,0.339
78.3200,0.309
78.3600,0.339
78.4000,0.343
78.4400,0.327
78.4800,0.327
78.5200,0.371
78.5600,0.369
78.6000,0.348
78.6400,0.358
78.6800,0.344
78.7200,0.377
78.7600,0.367
78.8000,0.403
78.8400,0.374
78.8800,0.423
78.9200,0.390
78.9600,0.323
79.0000,0.349
79.0400,0.360
79.0800,0.341
79.1200,0.332
79.1600,0.347
79.2000,0.336
79.2400,0.353
79.2800,0.355
79.3200,0.347
79.3600,0.388
79.4000,0.324
79.4400,0.390
79.4800,0.365
79.5200,0.371
79.5600,0.366
79.6000,0.354
79.6400,0.335
79.6800,0.371
79.7200,0.383
79.7600,0.349
79.8000,0.368
79.8400,0.333
79.8800,0.334
79.9200,0.312
79.9600,0.323
80.0000,0.329
