theta,intensity
5.0000,4.761
5.0400,4.718
5.0800,4.710
5.1200,4.600
5.1600,4.673
5.2000,4.646
5.2400,4.624
5.2800,4.735
5.3200,4.620
5.3600,4.585
5.4000,4.560
5.4400,4.506
5.4800,4.623
5.5200,4.576
5.5600,4.431
5.6000,4.541
5.6400,4.565
5.6800,4.410
5.7200,4.525
5.7600,4.544
5.8000,4.376
5.8400,4.518
5.8800,4.484
5.9200,4.430
5.9600,4.376
6.0000,4.337
6.0400,4.179
6.0800,4.156
6.1200,4.315
6.1600,4.129
6.2000,4.151
6.2400,4.058
6.2800,4.048
6.3200,4.060
6.3600,3.976
6.4000,4.101
6.4400,4.013
6.4800,4.045
6.5200,3.971
6.5600,4.031
6.6000,3.963
6.6400,3.985
6.6800,4.013
6.7200,4.023
6.7600,3.992
6.8000,3.920
6.8400,3.975
6.8800,3.902
6.9200,3.869
6.9600,3.924
7.0000,3.930
7.0400,3.935
7.0800,3.955
7.1200,3.826
7.1600,3.920
7.2000,3.956
7.2400,3.756
7.2800,3.947
7.3200,3.825
7.3600,3.865
7.4000,3.912
7.4400,3.936
7.4800,3.796
7.5200,3.899
7.5600,3.902
7.6000,3.856
7.6400,3.813
7.6800,3.936
7.7200,3.778
7.7600,3.744
7.8000,3.801
7.8400,3.877
7.8800,3.895
7.9200,3.771
7.9600,3.911
8.0000,3.748
8.0400,3.869
8.0800,3.824
8.1200,3.731
8.1600,3.764
8.2000,3.818
8.2400,3.638
8.2800,3.788
8.3200,3.843
8.3600,3.813
8.4000,3.765
8.4400,3.848
8.4800,3.701
8.5200,3.696
8.5600,3.805
8.6000,3.754
8.6400,3.800
8.6800,3.884
8.7200,3.721
8.7600,3.723
8.8000,3.730
8.8400,3.885
8.8800,3.657
8.9200,3.753
8.9600,3.741
9.0000,3.652
9.0400,3.669
9.0800,3.725
9.1200,3.820
9.1600,3.699
9.2000,3.742
9.2400,3.650
9.2800,3.703
9.3200,3.704
9.3600,3.640
9.4000,3.671
9.4400,3.614
9.4800,3.633
9.5200,3.639
9.5600,3.637
9.6000,3.620
9.6400,3.619
9.6800,3.621
9.7200,3.655
9.7600,3.608
9.8000,3.615
9.8400,3.523
9.8800,3.694
9.9200,3.647
9.9600,3.607
10.0000,3.637
10.0400,3.651
10.0800,3.645
10.1200,3.631
10.1600,3.527
10.2000,3.543
10.2400,3.536
10.2800,3.539
10.3200,3.526
10.3600,3.509
10.4000,3.560
10.4400,3.639
10.4800,3.516
10.5200,3.526
10.5600,3.572
10.6000,3.482
10.6400,3.528
10.6800,3.495
10.7200,3.532
10.7600,3.563
10.8000,3.587
10.8400,3.570
10.8800,3.529
10.9200,3.416
10.9600,3.490
11.0000,3.491
11.0400,3.691
11.0800,3.413
11.1200,3.442
11.1600,3.554
11.2000,3.635
11.2400,3.370
11.2800,3.472
11.3200,3.669
11.3600,3.385
11.4000,3.528
11.4400,3.460
11.4800,3.523
11.5200,3.471
11.5600,3.470
11.6000,3.387
11.6400,3.490
11.6800,3.489
11.7200,3.476
11.7600,3.464
11.8000,3.496
11.8400,3.497
11.8800,3.372
11.9200,3.440
11.9600,3.396
12.0000,3.405
12.0400,3.481
12.0800,3.299
12.1200,3.428
12.1600,3.314
12.2000,3.372
12.2400,3.419
12.2800,3.370
12.3200,3.395
12.3600,3.310
12.4000,3.323
12.4400,3.365
12.4800,3.452
12.5200,3.283
12.5600,3.467
12.6000,3.348
12.6400,3.298
12.6800,3.318
12.7200,3.391
12.7600,3.344
12.8000,3.323
12.8400,3.291
12.8800,3.332
12.9200,3.343
12.9600,3.348
13.0000,3.278
13.0400,3.301
13.0800,3.243
13.1200,3.327
13.1600,3.377
13.2000,3.350
13.2400,3.241
13.2800,3.268
13.3200,3.265
13.3600,3.292
13.4000,3.249
13.4400,3.293
13.4800,3.356
13.5200,3.280
13.5600,3.362
13.6000,3.309
13.6400,3.251
13.6800,3.262
13.7200,3.293
13.7600,3.249
13.8000,3.238
13.8400,3.277
13.8800,3.310
13.9200,3.270
13.9600,3.280
14.0000,3.180
14.0400,3.203
14.0800,3.152
14.1200,3.274
14.1600,3.202
14.2000,3.208
14.2400,3.125
14.2800,3.196
14.3200,3.173
14.3600,3.180
14.4000,3.200
14.4400,3.236
14.4800,3.128
14.5200,3.228
14.5600,3.168
14.6000,3.153
14.6400,3.152
14.6800,3.215
14.7200,3.163
14.7600,3.156
14.8000,3.078
14.8400,3.016
14.8800,3.199
14.9200,3.111
14.9600,3.006
15.0000,3.065
15.0400,3.240
15.0800,3.120
15.1200,3.073
15.1600,3.104
15.2000,3.162
15.2400,3.062
15.2800,3.138
15.3200,3.067
15.3600,3.134
15.4000,3.058
15.4400,3.160
15.4800,3.157
15.5200,3.119
15.5600,3.093
15.6000,3.071
15.6400,3.032
15.6800,3.120
15.7200,3.160
15.7600,3.091
15.8000,2.997
15.8400,3.159
15.8800,3.032
15.9200,2.953
15.9600,3.152
16.0000,3.006
16.0400,2.970
16.0800,3.034
16.1200,2.979
16.1600,3.008
16.2000,3.101
16.2400,3.049
16.2800,2.953
16.3200,3.023
16.3600,3.025
16.4000,2.951
16.4400,2.925
16.4800,2.933
16.5200,2.911
16.5600,2.998
16.6000,2.993
16.6400,2.997
16.6800,2.953
16.7200,2.951
16.7600,2.957
16.8000,3.027
16.8400,2.962
16.8800,2.968
16.9200,2.971
16.9600,2.976
17.0000,3.094
17.0400,3.056
17.0800,2.929
17.1200,2.892
17.1600,2.823
17.2000,2.974
17.2400,3.001
17.2800,2.890
17.3200,2.893
17.3600,2.787
17.4000,2.981
17.4400,2.883
17.4800,2.846
17.5200,2.892
17.5600,2.929
17.6000,2.878
17.6400,2.892
17.6800,2.862
17.7200,2.812
17.7600,2.895
17.8000,2.911
17.8400,2.701
17.8800,2.774
17.9200,2.876
17.9600,2.784
18.0000,2.973
18.0400,2.759
18.0800,2.965
18.1200,2.841
18.1600,2.865
18.2000,2.867
18.2400,2.852
18.2800,2.950
18.3200,2.771
18.3600,2.906
18.4000,2.908
18.4400,2.834
18.4800,2.763
18.5200,2.958
18.5600,2.848
18.6000,2.797
18.6400,2.819
18.6800,2.806
18.7200,2.871
18.7600,2.714
18.8000,2.685
18.8400,2.816
18.8800,2.725
18.9200,2.739
18.9600,2.811
19.0000,2.729
19.0400,2.755
19.0800,2.746
19.1200,2.803
19.1600,2.723
19.2000,2.722
19.2400,2.713
19.2800,2.762
19.3200,2.814
19.3600,2.675
19.4000,2.775
19.4400,2.757
19.4800,2.785
19.5200,2.695
19.5600,2.794
19.6000,2.676
19.6400,2.721
19.6800,2.685
19.7200,2.745
19.7600,2.738
19.8000,2.669
19.8400,2.714
19.8800,2.708
19.9200,2.601
19.9600,2.579
20.0000,2.682
20.0400,2.561
20.0800,2.757
20.1200,2.662
20.1600,2.725
20.2000,2.688
20.2400,2.690
20.2800,2.635
20.3200,2.673
20.3600,2.632
20.4000,2.737
20.4400,2.706
20.4800,2.759
20.5200,2.682
20.5600,2.734
20.6000,2.804
20.6400,3.048
20.6800,3.350
20.7200,3.390
20.7600,3.112
20.8000,3.007
20.8400,2.818
20.8800,2.752
20.9200,2.688
20.9600,2.643
21.0000,2.552
21.0400,2.690
21.0800,2.643
21.1200,2.673
21.1600,2.616
21.2000,2.469
21.2400,2.582
21.2800,2.537
21.3200,2.594
21.3600,2.604
21.4000,2.519
21.4400,2.585
21.4800,2.581
21.5200,2.473
21.5600,2.561
21.6000,2.525
21.6400,2.470
21.6800,2.488
21.7200,2.504
21.7600,2.546
21.8000,2.495
21.8400,2.547
21.8800,2.490
21.9200,2.433
21.9600,2.519
22.0000,2.564
22.0400,2.527
22.0800,2.532
22.1200,2.441
22.1600,2.485
22.2000,2.352
22.2400,2.408
22.2800,2.443
22.3200,2.428
22.3600,2.454
22.4000,2.438
22.4400,2.403
22.4800,2.450
22.5200,2.472
22.5600,2.416
22.6000,2.507
22.6400,2.497
22.6800,2.457
22.7200,2.365
22.7600,2.481
22.8000,2.452
22.8400,2.367
22.8800,2.410
22.9200,2.406
22.9600,2.382
23.0000,2.380
23.0400,2.393
23.0800,2.397
23.1200,2.422
23.1600,2.380
23.2000,2.450
23.2400,2.408
23.2800,2.363
23.3200,2.333
23.3600,2.355
23.4000,2.375
23.4400,2.329
23.4800,2.270
23.5200,2.359
23.5600,2.359
23.6000,2.401
23.6400,2.334
23.6800,2.319
23.7200,2.316
23.7600,2.290
23.8000,2.306
23.8400,2.319
23.8800,2.343
23.9200,2.375
23.9600,2.327
24.0000,2.281
24.0400,2.351
24.0800,2.334
24.1200,2.365
24.1600,2.393
24.2000,2.259
24.2400,2.302
24.2800,2.230
24.3200,2.351
24.3600,2.317
24.4000,2.351
24.4400,2.283
24.4800,2.192
24.5200,2.321
24.5600,2.251
24.6000,2.326
24.6400,2.296
24.6800,2.241
24.7200,2.304
24.7600,2.312
24.8000,2.302
24.8400,2.281
24.8800,2.236
24.9200,2.278
24.9600,2.187
25.0000,2.220
25.0400,2.219
25.0800,2.207
25.1200,2.219
25.1600,2.228
25.2000,2.261
25.2400,2.202
25.2800,2.250
25.3200,2.192
25.3600,2.279
25.4000,2.244
25.4400,2.234
25.4800,2.238
25.5200,2.251
25.5600,2.294
25.6000,2.145
25.6400,2.175
25.6800,2.269
25.7200,2.186
25.7600,2.245
25.8000,2.303
25.8400,2.244
25.8800,2.269
25.9200,2.288
25.9600,2.355
26.0000,2.185
26.0400,2.269
26.0800,2.320
26.1200,2.322
26.1600,2.418
26.2000,2.394
26.2400,2.367
26.2800,2.476
26.3200,2.394
26.3600,2.537
26.4000,2.693
26.4400,2.936
26.4800,3.218
26.5200,3.585
26.5600,4.185
26.6000,4.526
26.6400,4.946
26.6800,4.652
26.7200,4.357
26.7600,3.935
26.8000,3.471
26.8400,3.080
26.8800,3.030
26.9200,2.902
26.9600,2.659
27.0000,2.649
27.0400,2.414
27.0800,2.389
27.1200,2.369
27.1600,2.262
27.2000,2.225
27.2400,2.245
27.2800,2.165
27.3200,2.154
27.3600,2.184
27.4000,2.306
27.4400,2.334
27.4800,2.370
27.5200,2.446
27.5600,2.392
27.6000,2.303
27.6400,2.216
27.6800,2.163
27.7200,2.094
27.7600,2.073
27.8000,2.096
27.8400,2.062
27.8800,2.106
27.9200,1.971
27.9600,2.116
28.0000,2.088
28.0400,1.938
28.0800,2.089
28.1200,2.063
28.1600,2.076
28.2000,2.123
28.2400,2.071
28.2800,2.132
28.3200,2.045
28.3600,2.005
28.4000,2.051
28.4400,2.030
28.4800,2.085
28.5200,1.946
28.5600,1.975
28.6000,2.046
28.6400,1.984
28.6800,1.972
28.7200,1.966
28.7600,2.047
28.8000,1.970
28.8400,1.969
28.8800,2.034
28.9200,1.927
28.9600,2.007
29.0000,2.037
29.0400,2.016
29.0800,2.045
29.1200,2.055
29.1600,2.133
29.2000,2.157
29.2400,2.273
29.2800,2.501
29.3200,2.847
29.3600,3.346
29.4000,3.433
29.4400,3.273
29.4800,2.894
29.5200,2.567
29.5600,2.285
29.6000,2.174
29.6400,2.218
29.6800,2.148
29.7200,2.273
29.7600,2.260
29.8000,2.274
29.8400,2.325
29.8800,2.393
29.9200,2.387
29.9600,2.364
30.0000,2.252
30.0400,2.126
30.0800,2.074
30.1200,2.025
30.1600,2.031
30.2000,1.944
30.2400,1.951
30.2800,1.957
30.3200,1.911
30.3600,1.863
30.4000,1.872
30.4400,1.947
30.4800,2.004
30.5200,2.101
30.5600,2.307
30.6000,3.051
30.6400,3.751
30.6800,4.007
30.7200,3.557
30.7600,2.979
30.8000,2.599
30.8400,2.393
30.8800,2.343
30.9200,2.287
30.9600,2.234
31.0000,2.230
31.0400,2.275
31.0800,2.299
31.1200,2.334
31.1600,2.337
31.2000,2.597
31.2400,2.740
31.2800,2.680
31.3200,2.589
31.3600,2.374
31.4000,2.232
31.4400,2.041
31.4800,2.025
31.5200,2.015
31.5600,1.999
31.6000,1.987
31.6400,2.100
31.6800,2.337
31.7200,2.651
31.7600,3.115
31.8000,3.133
31.8400,2.993
31.8800,2.672
31.9200,2.226
31.9600,2.093
32.0000,1.936
32.0400,1.835
32.0800,1.899
32.1200,1.859
32.1600,1.829
32.2000,1.799
32.2400,1.892
32.2800,1.865
32.3200,1.867
32.3600,1.866
32.4000,1.881
32.4400,1.956
32.4800,1.925
32.5200,1.889
32.5600,1.810
32.6000,1.871
32.6400,1.868
32.6800,1.853
32.7200,1.912
32.7600,1.813
32.8000,1.822
32.8400,1.743
32.8800,1.930
32.9200,1.886
32.9600,1.798
33.0000,1.850
33.0400,1.774
33.0800,1.897
33.1200,1.857
33.1600,1.884
33.2000,1.951
33.2400,1.935
33.2800,1.926
33.3200,1.897
33.3600,1.956
33.4000,2.013
33.4400,1.923
33.4800,1.981
33.5200,1.992
33.5600,2.005
33.6000,1.998
33.6400,2.118
33.6800,2.175
33.7200,2.196
33.7600,2.434
33.8000,2.616
33.8400,2.814
33.8800,2.956
33.9200,3.044
33.9600,3.007
34.0000,2.950
34.0400,2.722
34.0800,2.547
34.1200,2.321
34.1600,2.196
34.2000,2.034
34.2400,1.948
34.2800,1.903
34.3200,1.842
34.3600,1.807
34.4000,1.743
34.4400,1.731
34.4800,1.685
34.5200,1.679
34.5600,1.696
34.6000,1.574
34.6400,1.538
34.6800,1.652
34.7200,1.638
34.7600,1.637
34.8000,1.620
34.8400,1.558
34.8800,1.657
34.9200,1.548
34.9600,1.574
35.0000,1.551
35.0400,1.572
35.0800,1.555
35.1200,1.544
35.1600,1.546
35.2000,1.503
35.2400,1.490
35.2800,1.554
35.3200,1.512
35.3600,1.553
35.4000,1.598
35.4400,1.528
35.4800,1.589
35.5200,1.491
35.5600,1.506
35.6000,1.537
35.6400,1.530
35.6800,1.550
35.7200,1.491
35.7600,1.545
35.8000,1.466
35.8400,1.603
35.8800,1.479
35.9200,1.514
35.9600,1.482
36.0000,1.552
36.0400,1.539
36.0800,1.474
36.1200,1.513
36.1600,1.526
36.2000,1.505
36.2400,1.519
36.2800,1.431
36.3200,1.472
36.3600,1.503
36.4000,1.464
36.4400,1.433
36.4800,1.443
36.5200,1.399
36.5600,1.431
36.6000,1.511
36.6400,1.464
36.6800,1.472
36.7200,1.455
36.7600,1.479
36.8000,1.410
36.8400,1.391
36.8800,1.395
36.9200,1.381
36.9600,1.387
37.0000,1.465
37.0400,1.442
37.0800,1.482
37.1200,1.435
37.1600,1.467
37.2000,1.564
37.2400,1.755
37.2800,1.903
37.3200,1.961
37.3600,1.794
37.4000,1.734
37.4400,1.656
37.4800,1.573
37.5200,1.444
37.5600,1.446
37.6000,1.499
37.6400,1.481
37.6800,1.430
37.7200,1.508
37.7600,1.497
37.8000,1.553
37.8400,1.531
37.8800,1.623
37.9200,1.733
37.9600,1.756
38.0000,1.804
38.0400,1.775
38.0800,1.789
38.1200,1.701
38.1600,1.593
38.2000,1.463
38.2400,1.513
38.2800,1.460
38.3200,1.356
38.3600,1.408
38.4000,1.405
38.4400,1.325
38.4800,1.357
38.5200,1.315
38.5600,1.387
38.6000,1.345
38.6400,1.358
38.6800,1.314
38.7200,1.323
38.7600,1.364
38.8000,1.350
38.8400,1.359
38.8800,1.382
38.9200,1.403
38.9600,1.381
39.0000,1.427
39.0400,1.370
39.0800,1.463
39.1200,1.625
39.1600,1.707
39.2000,2.134
39.2400,2.713
39.2800,3.174
39.3200,2.963
39.3600,2.798
39.4000,2.679
39.4400,2.733
39.4800,2.918
39.5200,2.731
39.5600,2.485
39.6000,2.250
39.6400,1.934
39.6800,1.671
39.7200,1.544
39.7600,1.449
39.8000,1.469
39.8400,1.505
39.8800,1.547
39.9200,1.774
39.9600,2.372
40.0000,3.144
40.0400,3.209
40.0800,2.800
40.1200,2.613
40.1600,2.115
40.2000,1.785
40.2400,1.511
40.2800,1.404
40.3200,1.468
40.3600,1.415
40.4000,1.472
40.4400,1.483
40.4800,1.614
40.5200,1.858
40.5600,2.421
40.6000,3.353
40.6400,3.969
40.6800,4.082
40.7200,3.621
40.7600,3.288
40.8000,2.794
40.8400,2.266
40.8800,2.112
40.9200,2.022
40.9600,1.774
41.0000,1.666
41.0400,1.574
41.0800,1.493
41.1200,1.372
41.1600,1.322
41.2000,1.253
41.2400,1.247
41.2800,1.231
41.3200,1.168
41.3600,1.168
41.4000,1.197
41.4400,1.193
41.4800,1.182
41.5200,1.179
41.5600,1.168
41.6000,1.145
41.6400,1.137
41.6800,1.223
41.7200,1.240
41.7600,1.160
41.8000,1.142
41.8400,1.204
41.8800,1.273
41.9200,1.354
41.9600,1.481
42.0000,1.665
42.0400,1.703
42.0800,1.798
42.1200,1.785
42.1600,1.580
42.2000,1.477
42.2400,1.350
42.2800,1.332
42.3200,1.191
42.3600,1.153
42.4000,1.123
42.4400,1.160
42.4800,1.182
42.5200,1.197
42.5600,1.158
42.6000,1.093
42.6400,1.096
42.6800,1.104
42.7200,1.102
42.7600,1.127
42.8000,1.086
42.8400,1.073
42.8800,1.110
42.9200,1.081
42.9600,1.064
43.0000,1.107
43.0400,1.020
43.0800,1.069
43.1200,1.048
43.1600,1.051
43.2000,1.094
43.2400,1.022
43.2800,1.080
43.3200,1.050
43.3600,1.059
43.4000,1.086
43.4400,1.057
43.4800,0.987
43.5200,1.050
43.5600,1.016
43.6000,1.049
43.6400,1.034
43.6800,1.021
43.7200,1.034
43.7600,0.993
43.8000,0.945
43.8400,1.037
43.8800,1.008
43.9200,1.075
43.9600,1.008
44.0000,0.995
44.0400,1.014
44.0800,1.015
44.1200,0.983
44.1600,0.998
44.2000,0.999
44.2400,1.043
44.2800,1.057
44.3200,1.036
44.3600,0.994
44.4000,1.015
44.4400,1.063
44.4800,1.037
44.5200,1.048
44.5600,1.139
44.6000,1.138
44.6400,1.174
44.6800,1.387
44.7200,1.736
44.7600,2.183
44.8000,2.309
44.8400,2.231
44.8800,2.015
44.9200,1.862
44.9600,1.596
45.0000,1.356
45.0400,1.202
45.0800,1.102
45.1200,1.035
45.1600,1.068
45.2000,1.027
45.2400,1.121
45.2800,1.044
45.3200,1.094
45.3600,1.206
45.4000,1.186
45.4400,1.135
45.4800,1.174
45.5200,1.079
45.5600,1.074
45.6000,1.026
45.6400,0.972
45.6800,0.935
45.7200,0.987
45.7600,0.947
45.8000,0.979
45.8400,0.929
45.8800,0.924
45.9200,0.919
45.9600,0.969
46.0000,0.946
46.0400,0.934
46.0800,0.994
46.1200,0.916
46.1600,0.942
46.2000,1.020
46.2400,0.991
46.2800,0.954
46.3200,0.937
46.3600,0.955
46.4000,0.975
46.4400,1.008
46.4800,0.996
46.5200,1.130
46.5600,1.302
46.6000,1.486
46.6400,1.585
46.6800,1.642
46.7200,1.593
46.7600,1.541
46.8000,1.418
46.8400,1.339
46.8800,1.190
46.9200,1.071
46.9600,1.045
47.0000,0.997
47.0400,0.943
47.0800,0.896
47.1200,0.932
47.1600,0.941
47.2000,0.945
47.2400,0.871
47.2800,0.871
47.3200,0.859
47.3600,0.947
47.4000,0.954
47.4400,0.892
47.4800,0.914
47.5200,0.996
47.5600,0.945
47.6000,0.928
47.6400,0.912
47.6800,0.915
47.7200,0.891
47.7600,0.897
47.8000,0.884
47.8400,0.912
47.8800,0.855
47.9200,0.907
47.9600,0.864
48.0000,0.865
48.0400,0.856
48.0800,0.853
48.1200,0.874
48.1600,0.900
48.2000,0.903
48.2400,0.849
48.2800,0.855
48.3200,0.794
48.3600,0.831
48.4000,0.871
48.4400,0.856
48.4800,0.851
48.5200,0.839
48.5600,0.825
48.6000,0.882
48.6400,0.885
48.6800,0.876
48.7200,0.841
48.7600,0.861
48.8000,0.894
48.8400,0.869
48.8800,0.886
48.9200,0.943
48.9600,0.994
49.0000,1.172
49.0400,1.351
49.0800,1.352
49.1200,1.210
49.1600,1.165
49.2000,1.092
49.2400,1.019
49.2800,0.904
49.3200,0.862
49.3600,0.840
49.4000,0.839
49.4400,0.776
49.4800,0.784
49.5200,0.868
49.5600,0.800
49.6000,0.816
49.6400,0.798
49.6800,0.817
49.7200,0.830
49.7600,0.834
49.8000,0.872
49.8400,0.802
49.8800,0.834
49.9200,0.777
49.9600,0.818
50.0000,0.814
50.0400,0.828
50.0800,0.842
50.1200,0.758
50.1600,0.806
50.2000,0.765
50.2400,0.827
50.2800,0.797
50.3200,0.788
50.3600,0.798
50.4000,0.823
50.4400,0.777
50.4800,0.804
50.5200,0.847
50.5600,0.822
50.6000,0.845
50.6400,0.857
50.6800,0.902
50.7200,0.866
50.7600,0.884
50.8000,0.879
50.8400,0.846
50.8800,0.861
50.9200,0.838
50.9600,0.858
51.0000,0.830
51.0400,0.863
51.0800,0.822
51.1200,0.866
51.1600,0.836
51.2000,0.849
51.2400,0.854
51.2800,0.829
51.3200,0.857
51.3600,0.805
51.4000,0.901
51.4400,0.916
51.4800,1.006
51.5200,0.977
51.5600,1.037
51.6000,1.106
51.6400,1.192
51.6800,1.225
51.7200,1.388
51.7600,1.451
51.8000,1.560
51.8400,1.620
51.8800,1.571
51.9200,1.508
51.9600,1.465
52.0000,1.319
52.0400,1.229
52.0800,1.149
52.1200,1.024
52.1600,0.995
52.2000,0.899
52.2400,0.884
52.2800,0.905
52.3200,0.874
52.3600,0.810
52.4000,0.829
52.4400,0.856
52.4800,0.940
52.5200,0.958
52.5600,0.969
52.6000,0.879
52.6400,0.899
52.6800,0.843
52.7200,0.862
52.7600,0.804
52.8000,0.745
52.8400,0.824
52.8800,0.773
52.9200,0.753
52.9600,0.772
53.0000,0.699
53.0400,0.783
53.0800,0.711
53.1200,0.691
53.1600,0.697
53.2000,0.757
53.2400,0.705
53.2800,0.772
53.3200,0.754
53.3600,0.718
53.4000,0.711
53.4400,0.757
53.4800,0.698
53.5200,0.718
53.5600,0.661
53.6000,0.678
53.6400,0.711
53.6800,0.739
53.7200,0.697
53.7600,0.733
53.8000,0.705
53.8400,0.685
53.8800,0.669
53.9200,0.708
53.9600,0.652
54.0000,0.696
54.0400,0.665
54.0800,0.697
54.1200,0.684
54.1600,0.761
54.2000,0.693
54.2400,0.677
54.2800,0.736
54.3200,0.673
54.3600,0.686
54.4000,0.746
54.4400,0.689
54.4800,0.713
54.5200,0.760
54.5600,0.782
54.6000,0.778
54.6400,0.830
54.6800,0.763
54.7200,0.831
54.7600,0.896
54.8000,0.828
54.8400,0.847
54.8800,0.819
54.9200,0.838
54.9600,0.796
55.0000,0.797
55.0400,0.748
55.0800,0.754
55.1200,0.749
55.1600,0.709
55.2000,0.699
55.2400,0.666
55.2800,0.698
55.3200,0.718
55.3600,0.664
55.4000,0.700
55.4400,0.696
55.4800,0.727
55.5200,0.713
55.5600,0.666
55.6000,0.640
55.6400,0.666
55.6800,0.645
55.7200,0.662
55.7600,0.602
55.8000,0.655
55.8400,0.685
55.8800,0.634
55.9200,0.639
55.9600,0.634
56.0000,0.643
56.0400,0.617
56.0800,0.634
56.1200,0.641
56.1600,0.697
56.2000,0.663
56.2400,0.686
56.2800,0.627
56.3200,0.662
56.3600,0.635
56.4000,0.620
56.4400,0.648
56.4800,0.646
56.5200,0.627
56.5600,0.661
56.6000,0.635
56.6400,0.677
56.6800,0.751
56.7200,0.738
56.7600,0.767
56.8000,0.722
56.8400,0.751
56.8800,0.723
56.9200,0.699
56.9600,0.688
57.0000,0.702
57.0400,0.654
57.0800,0.659
57.1200,0.649
57.1600,0.616
57.2000,0.680
57.2400,0.653
57.2800,0.670
57.3200,0.678
57.3600,0.741
57.4000,0.715
57.4400,0.710
57.4800,0.741
57.5200,0.799
57.5600,0.872
57.6000,0.924
57.6400,0.851
57.6800,0.811
57.7200,0.829
57.7600,0.787
57.8000,0.814
57.8400,0.795
57.8800,0.735
57.9200,0.785
57.9600,0.764
58.0000,0.725
58.0400,0.703
58.0800,0.718
58.1200,0.707
58.1600,0.670
58.2000,0.708
58.2400,0.664
58.2800,0.625
58.3200,0.688
58.3600,0.645
58.4000,0.681
58.4400,0.649
58.4800,0.630
58.5200,0.639
58.5600,0.687
58.6000,0.626
58.6400,0.692
58.6800,0.695
58.7200,0.711
58.7600,0.754
58.8000,0.753
58.8400,0.879
58.8800,0.984
58.9200,0.994
58.9600,0.871
59.0000,0.904
59.0400,0.865
59.0800,0.808
59.1200,0.785
59.1600,0.715
59.2000,0.644
59.2400,0.650
59.2800,0.678
59.3200,0.643
59.3600,0.612
59.4000,0.622
59.4400,0.585
59.4800,0.609
59.5200,0.622
59.5600,0.651
59.6000,0.576
59.6400,0.650
59.6800,0.614
59.7200,0.577
59.7600,0.589
59.8000,0.624
59.8400,0.581
59.8800,0.630
59.9200,0.588
59.9600,0.585
60.0000,0.608
60.0400,0.579
60.0800,0.604
60.1200,0.635
60.1600,0.602
60.2000,0.631
60.2400,0.634
60.2800,0.679
60.3200,0.674
60.3600,0.625
60.4000,0.635
60.4400,0.597
60.4800,0.662
60.5200,0.630
60.5600,0.588
60.6000,0.584
60.6400,0.561
60.6800,0.566
60.7200,0.649
60.7600,0.657
60.8000,0.720
60.8400,0.729
60.8800,0.707
60.9200,0.736
60.9600,0.758
61.0000,0.761
61.0400,0.712
61.0800,0.716
61.1200,0.635
61.1600,0.634
61.2000,0.658
61.2400,0.629
61.2800,0.601
61.3200,0.588
61.3600,0.578
61.4000,0.591
61.4400,0.613
61.4800,0.609
61.5200,0.580
61.5600,0.587
61.6000,0.597
61.6400,0.628
61.6800,0.669
61.7200,0.727
61.7600,0.680
61.8000,0.659
61.8400,0.676
61.8800,0.720
61.9200,0.657
61.9600,0.704
62.0000,0.748
62.0400,0.734
62.0800,0.689
62.1200,0.710
62.1600,0.633
62.2000,0.653
62.2400,0.642
62.2800,0.616
62.3200,0.624
62.3600,0.587
62.4000,0.604
62.4400,0.624
62.4800,0.571
62.5200,0.555
62.5600,0.564
62.6000,0.563
62.6400,0.557
62.6800,0.564
62.7200,0.546
62.7600,0.562
62.8000,0.560
62.8400,0.561
62.8800,0.545
62.9200,0.562
62.9600,0.558
63.0000,0.517
63.0400,0.599
63.0800,0.539
63.1200,0.558
63.1600,0.571
63.2000,0.656
63.2400,0.617
63.2800,0.618
63.3200,0.614
63.3600,0.582
63.4000,0.583
63.4400,0.578
63.4800,0.537
63.5200,0.570
63.5600,0.556
63.6000,0.583
63.6400,0.612
63.6800,0.646
63.7200,0.674
63.7600,0.680
63.8000,0.621
63.8400,0.654
63.8800,0.628
63.9200,0.644
63.9600,0.614
64.0000,0.620
64.0400,0.623
64.0800,0.604
64.1200,0.547
64.1600,0.566
64.2000,0.594
64.2400,0.589
64.2800,0.569
64.3200,0.566
64.3600,0.577
64.4000,0.580
64.4400,0.594
64.4800,0.604
64.5200,0.663
64.5600,0.633
64.6000,0.629
64.6400,0.635
64.6800,0.640
64.7200,0.669
64.7600,0.681
64.8000,0.706
64.8400,0.685
64.8800,0.724
64.9200,0.702
64.9600,0.686
65.0000,0.728
65.0400,0.785
65.0800,0.767
65.1200,0.838
65.1600,0.839
65.2000,0.803
65.2400,0.854
65.2800,0.865
65.3200,0.836
65.3600,0.841
65.4000,0.790
65.4400,0.784
65.4800,0.736
65.5200,0.766
65.5600,0.714
65.6000,0.676
65.6400,0.742
65.6800,0.735
65.7200,0.744
65.7600,0.768
65.8000,0.820
65.8400,0.818
65.8800,0.799
65.9200,0.801
65.9600,0.850
66.0000,0.881
66.0400,0.952
66.0800,0.954
66.1200,1.018
66.1600,1.078
66.2000,1.108
66.2400,1.030
66.2800,0.986
66.3200,1.026
66.3600,0.997
66.4000,0.959
66.4400,0.905
66.4800,0.903
66.5200,0.864
66.5600,0.850
66.6000,0.815
66.6400,0.829
66.6800,0.851
66.7200,0.825
66.7600,0.855
66.8000,0.826
66.8400,0.844
66.8800,0.872
66.9200,0.838
66.9600,0.950
67.0000,0.975
67.0400,1.024
67.0800,1.090
67.1200,1.114
67.1600,1.128
67.2000,1.113
67.2400,1.117
67.2800,1.121
67.3200,1.167
67.3600,1.154
67.4000,1.223
67.4400,1.258
67.4800,1.071
67.5200,1.118
67.5600,1.152
67.6000,1.205
67.6400,1.264
67.6800,1.199
67.7200,1.153
67.7600,1.235
67.8000,1.329
67.8400,1.416
67.8800,1.400
67.9200,1.454
67.9600,1.529
68.0000,1.610
68.0400,1.700
68.0800,1.773
68.1200,1.669
68.1600,1.776
68.2000,1.789
68.2400,1.820
68.2800,1.892
68.3200,1.913
68.3600,2.054
68.4000,2.035
68.4400,2.092
68.4800,2.129
68.5200,2.307
68.5600,2.344
68.6000,2.633
68.6400,2.641
68.6800,2.885
68.7200,3.419
68.7600,4.317
68.8000,5.622
68.8400,6.475
68.8800,6.716
68.9200,6.783
68.9600,7.651
69.0000,10.396
69.0400,17.402
69.0800,37.536
69.1200,167.816
69.1600,441.442
69.2000,368.141
69.2400,105.617
69.2800,45.067
69.3200,107.710
69.3600,232.665
69.4000,181.776
69.4400,52.748
69.4800,16.866
69.5200,10.053
69.5600,7.330
69.6000,5.842
69.6400,5.171
69.6800,4.419
69.7200,3.877
69.7600,3.571
69.8000,3.252
69.8400,3.020
69.8800,2.843
69.9200,2.587
69.9600,2.571
70.0000,2.391
70.0400,2.386
70.0800,2.311
70.1200,2.115
70.1600,2.057
70.2000,2.015
70.2400,1.885
70.2800,1.866
70.3200,1.768
70.3600,1.730
70.4000,1.733
70.4400,1.607
70.4800,1.625
70.5200,1.541
70.5600,1.558
70.6000,1.493
70.6400,1.398
70.6800,1.349
70.7200,1.319
70.7600,1.358
70.8000,1.302
70.8400,1.248
70.8800,1.200
70.9200,1.215
70.9600,1.210
71.0000,1.231
71.0400,1.189
71.0800,1.191
71.1200,1.126
71.1600,1.065
71.2000,1.069
71.2400,1.096
71.2800,1.028
71.3200,1.018
71.3600,1.039
71.4000,1.009
71.4400,0.992
71.4800,0.913
71.5200,0.918
71.5600,0.852
71.6000,0.838
71.6400,0.834
71.6800,0.819
71.7200,0.835
71.7600,0.819
71.8000,0.796
71.8400,0.793
71.8800,0.769
71.9200,0.716
71.9600,0.780
72.0000,0.824
72.0400,0.890
72.0800,0.910
72.1200,0.920
72.1600,0.838
72.2000,0.799
72.2400,0.789
72.2800,0.751
72.3200,0.746
72.3600,0.729
72.4000,0.717
72.4400,0.640
72.4800,0.629
72.5200,0.637
72.5600,0.631
72.6000,0.602
72.6400,0.584
72.6800,0.564
72.7200,0.568
72.7600,0.585
72.8000,0.568
72.8400,0.608
72.8800,0.634
72.9200,0.599
72.9600,0.635
73.0000,0.621
73.0400,0.655
73.0800,0.608
73.1200,0.621
73.1600,0.623
73.2000,0.561
73.2400,0.538
73.2800,0.547
73.3200,0.532
73.3600,0.533
73.4000,0.478
73.4400,0.507
73.4800,0.474
73.5200,0.455
73.5600,0.424
73.6000,0.464
73.6400,0.466
73.6800,0.436
73.7200,0.439
73.7600,0.466
73.8000,0.443
73.8400,0.453
73.8800,0.438
73.9200,0.451
73.9600,0.413
74.0000,0.446
74.0400,0.429
74.0800,0.423
74.1200,0.448
74.1600,0.457
74.2000,0.460
74.2400,0.428
74.2800,0.419
74.3200,0.428
74.3600,0.432
74.4000,0.430
74.4400,0.445
74.4800,0.447
74.5200,0.407
74.5600,0.425
74.6000,0.415
74.6400,0.411
74.6800,0.423
74.7200,0.489
74.7600,0.532
74.8000,0.543
74.8400,0.644
74.8800,0.625
74.9200,0.614
74.9600,0.551
75.0000,0.597
75.0400,0.590
75.0800,0.520
75.1200,0.510
75.1600,0.470
75.2000,0.444
75.2400,0.414
75.2800,0.412
75.3200,0.394
75.3600,0.387
75.4000,0.385
75.4400,0.359
75.4800,0.372
75.5200,0.367
75.5600,0.374
75.6000,0.358
75.6400,0.329
75.6800,0.366
75.7200,0.346
75.7600,0.367
75.8000,0.358
75.8400,0.373
75.8800,0.364
75.9200,0.370
75.9600,0.338
76.0000,0.326
76.0400,0.336
76.0800,0.345
76.1200,0.357
76.1600,0.335
76.2000,0.348
76.2400,0.368
76.2800,0.338
76.3200,0.326
76.3600,0.347
76.4000,0.366
76.4400,0.373
76.4800,0.354
76.5200,0.402
76.5600,0.355
76.6000,0.393
76.6400,0.412
76.6800,0.426
76.7200,0.417
76.7600,0.421
76.8000,0.405
76.8400,0.376
76.8800,0.370
76.9200,0.382
76.9600,0.347
77.0000,0.354
77.0400,0.347
77.0800,0.327
77.1200,0.314
77.1600,0.337
77.2000,0.355
77.2400,0.346
77.2800,0.332
77.3200,0.320
77.3600,0.322
77.4000,0.331
77.4400,0.343
77.4800,0.334
77.5200,0.346
77.5600,0.326
77.6000,0.345
77.6400,0.362
77.6800,0.335
77.7200,0.333
77.7600,0.372
77.8000,0.322
77.8400,0.311
77.8800,0.346
77.9200,0.315
77.9600,0.321
78.0000,0.340
78.0400,0.338
78.0800,0.311
78.1200,0.316
78.1600,0.335
78.2000,0.356
78.2400,0.334
78.2800,0.334
78.3200,0.322
78.3600,0.324
78.4000,0.339
78.4400,0.330
78.4800,0.317
78.5200,0.342
78.5600,0.364
78.6000,0.378
78.6400,0.392
78.6800,0.434
78.7200,0.445
78.7600,0.411
78.8000,0.403
78.8400,0.471
78.8800,0.386
78.9200,0.391
78.9600,0.381
79.0000,0.403
79.0400,0.365
79.0800,0.347
79.1200,0.353
79.1600,0.340
79.2000,0.308
79.2400,0.303
79.2800,0.331
79.3200,0.312
79.3600,0.357
79.4000,0.345
79.4400,0.361
79.4800,0.351
79.5200,0.376
79.5600,0.364
79.6000,0.342
79.6400,0.341
79.6800,0.338
79.7200,0.382
79.7600,0.339
79.8000,0.349
79.8400,0.344
79.8800,0.312
79.9200,0.339
79.9600,0.311
80.0000,0.304
