theta,intensity
5.0000,5.760
5.0400,5.734
5.0800,5.652
5.1200,5.526
5.1600,5.593
5.2000,5.432
5.2400,5.335
5.2800,5.322
5.3200,5.388
5.3600,5.287
5.4000,5.215
5.4400,5.259
5.4800,5.248
5.5200,4.986
5.5600,5.033
5.6000,5.105
5.6400,5.005
5.6800,4.852
5.7200,4.845
5.7600,4.908
5.8000,4.664
5.8400,4.709
5.8800,4.596
5.9200,4.607
5.9600,4.485
6.0000,4.555
6.0400,4.474
6.0800,4.461
6.1200,4.371
6.1600,4.413
6.2000,4.379
6.2400,4.395
6.2800,4.198
6.3200,4.199
6.3600,4.237
6.4000,4.241
6.4400,4.148
6.4800,4.113
6.5200,4.016
6.5600,4.015
6.6000,4.077
6.6400,3.975
6.6800,4.177
6.7200,4.055
6.7600,4.057
6.8000,4.059
6.8400,4.096
6.8800,4.024
6.9200,4.044
6.9600,4.019
7.0000,4.006
7.0400,4.058
7.0800,3.970
7.1200,3.977
7.1600,4.038
7.2000,3.976
7.2400,4.000
7.2800,4.016
7.3200,3.900
7.3600,3.948
7.4000,3.923
7.4400,3.936
7.4800,4.022
7.5200,3.855
7.5600,3.979
7.6000,3.917
7.6400,3.867
7.6800,3.877
7.7200,3.823
7.7600,3.861
7.8000,3.909
7.8400,3.924
7.8800,3.951
7.9200,3.817
7.9600,3.892
8.0000,3.884
8.0400,3.869
8.0800,3.872
8.1200,3.884
8.1600,3.813
8.2000,3.709
8.2400,3.849
8.2800,3.816
8.3200,3.892
8.3600,3.863
8.4000,3.892
8.4400,3.714
8.4800,3.854
8.5200,3.799
8.5600,3.652
8.6000,3.829
8.6400,3.836
8.6800,3.781
8.7200,3.795
8.7600,3.795
8.8000,3.811
8.8400,3.825
8.8800,3.739
8.9200,3.781
8.9600,3.702
9.0000,3.755
9.0400,3.731
9.0800,3.648
9.1200,3.734
9.1600,3.731
9.2000,3.775
9.2400,3.672
9.2800,3.699
9.3200,3.676
9.3600,3.724
9.4000,3.728
9.4400,3.573
9.4800,3.740
9.5200,3.728
9.5600,3.699
9.6000,3.673
9.6400,3.625
9.6800,3.704
9.7200,3.731
9.7600,3.592
9.8000,3.575
9.8400,3.679
9.8800,3.697
9.9200,3.603
9.9600,3.633
10.0000,3.680
10.0400,3.644
10.0800,3.705
10.1200,3.672
10.1600,3.689
10.2000,3.569
10.2400,3.608
10.2800,3.588
10.3200,3.643
10.3600,3.597
10.4000,3.619
10.4400,3.629
10.4800,3.528
10.5200,3.566
10.5600,3.643
10.6000,3.564
10.6400,3.644
10.6800,3.666
10.7200,3.499
10.7600,3.614
10.8000,3.637
10.8400,3.560
10.8800,3.576
10.9200,3.515
10.9600,3.521
11.0000,3.538
11.0400,3.593
11.0800,3.575
11.1200,3.438
11.1600,3.563
11.2000,3.444
11.2400,3.597
11.2800,3.491
11.3200,3.532
11.3600,3.492
11.4000,3.517
11.4400,3.475
11.4800,3.479
11.5200,3.509
11.5600,3.564
11.6000,3.536
11.6400,3.428
11.6800,3.490
11.7200,3.496
11.7600,3.501
11.8000,3.522
11.8400,3.463
11.8800,3.488
11.9200,3.420
11.9600,3.606
12.0000,3.437
12.0400,3.459
12.0800,3.396
12.1200,3.549
12.1600,3.425
12.2000,3.393
12.2400,3.422
12.2800,3.422
12.3200,3.347
12.3600,3.463
12.4000,3.322
12.4400,3.272
12.4800,3.413
12.5200,3.320
12.5600,3.326
12.6000,3.443
12.6400,3.507
12.6800,3.361
12.7200,3.328
12.7600,3.389
12.8000,3.340
12.8400,3.381
12.8800,3.382
12.9200,3.318
12.9600,3.340
13.0000,3.312
13.0400,3.407
13.0800,3.423
13.1200,3.305
13.1600,3.262
13.2000,3.336
13.2400,3.266
13.2800,3.408
13.3200,3.321
13.3600,3.315
13.4000,3.329
13.4400,3.227
13.4800,3.251
13.5200,3.274
13.5600,3.285
13.6000,3.251
13.6400,3.241
13.6800,3.296
13.7200,3.292
13.7600,3.277
13.8000,3.426
13.8400,3.289
13.8800,3.287
13.9200,3.247
13.9600,3.265
14.0000,3.233
14.0400,3.193
14.0800,3.231
14.1200,3.318
14.1600,3.295
14.2000,3.255
14.2400,3.280
14.2800,3.187
14.3200,3.153
14.3600,3.172
14.4000,3.214
14.4400,3.190
14.4800,3.120
14.5200,3.219
14.5600,3.252
14.6000,3.158
14.6400,3.241
14.6800,3.156
14.7200,3.175
14.7600,3.173
14.8000,3.112
14.8400,3.140
14.8800,3.098
14.9200,3.156
14.9600,3.139
15.0000,3.149
15.0400,3.180
15.0800,3.110
15.1200,3.087
15.1600,3.225
15.2000,3.168
15.2400,3.155
15.2800,3.215
15.3200,3.171
15.3600,3.122
15.4000,3.047
15.4400,3.093
15.4800,3.089
15.5200,3.049
15.5600,3.090
15.6000,3.091
15.6400,3.037
15.6800,3.158
15.7200,3.025
15.7600,3.034
15.8000,2.989
15.8400,3.018
15.8800,2.959
15.9200,3.063
15.9600,3.160
16.0000,3.032
16.0400,3.167
16.0800,3.098
16.1200,2.973
16.1600,3.048
16.2000,3.016
16.2400,2.999
16.2800,3.080
16.3200,3.117
16.3600,3.129
16.4000,3.020
16.4400,2.925
16.4800,3.080
16.5200,3.031
16.5600,3.023
16.6000,2.952
16.6400,3.020
16.6800,2.899
16.7200,2.917
16.7600,2.909
16.8000,2.894
16.8400,3.024
16.8800,3.005
16.9200,3.119
16.9600,2.929
17.0000,2.963
17.0400,3.004
17.0800,2.969
17.1200,2.924
17.1600,2.992
17.2000,2.934
17.2400,2.970
17.2800,2.935
17.3200,2.827
17.3600,2.887
17.4000,2.927
17.4400,2.836
17.4800,2.947
17.5200,2.893
17.5600,2.908
17.6000,2.819
17.6400,2.819
17.6800,2.820
17.7200,2.753
17.7600,2.878
17.8000,2.868
17.8400,2.911
17.8800,2.804
17.9200,2.854
17.9600,2.802
18.0000,2.854
18.0400,2.883
18.0800,2.888
18.1200,2.811
18.1600,2.842
18.2000,2.903
18.2400,2.879
18.2800,2.933
18.3200,2.751
18.3600,2.837
18.4000,2.819
18.4400,2.817
18.4800,2.825
18.5200,2.837
18.5600,2.949
18.6000,2.882
18.6400,2.863
18.6800,2.783
18.7200,2.862
18.7600,2.754
18.8000,2.785
18.8400,2.823
18.8800,2.743
18.9200,2.763
18.9600,2.894
19.0000,2.772
19.0400,2.774
19.0800,2.810
19.1200,2.718
19.1600,2.766
19.2000,2.806
19.2400,2.786
19.2800,2.743
19.3200,2.745
19.3600,2.704
19.4000,2.684
19.4400,2.774
19.4800,2.746
19.5200,2.790
19.5600,2.749
19.6000,2.829
19.6400,2.674
19.6800,2.626
19.7200,2.639
19.7600,2.662
19.8000,2.722
19.8400,2.635
19.8800,2.681
19.9200,2.628
19.9600,2.685
20.0000,2.674
20.0400,2.672
20.0800,2.654
20.1200,2.617
20.1600,2.740
20.2000,2.621
20.2400,2.611
20.2800,2.688
20.3200,2.731
20.3600,2.670
20.4000,2.612
20.4400,2.655
20.4800,2.616
20.5200,2.656
20.5600,2.670
20.6000,2.623
20.6400,2.585
20.6800,2.660
20.7200,2.595
20.7600,2.624
20.8000,2.492
20.8400,2.643
20.8800,2.576
20.9200,2.634
20.9600,2.582
21.0000,2.632
21.0400,2.655
21.0800,2.580
21.1200,2.547
21.1600,2.536
21.2000,2.554
21.2400,2.581
21.2800,2.564
21.3200,2.591
21.3600,2.529
21.4000,2.592
21.4400,2.648
21.4800,2.577
21.5200,2.557
21.5600,2.537
21.6000,2.604
21.6400,2.556
21.6800,2.453
21.7200,2.539
21.7600,2.517
21.8000,2.500
21.8400,2.583
21.8800,2.444
21.9200,2.480
21.9600,2.567
22.0000,2.462
22.0400,2.522
22.0800,2.504
22.1200,2.542
22.1600,2.488
22.2000,2.488
22.2400,2.470
22.2800,2.524
22.3200,2.516
22.3600,2.507
22.4000,2.505
22.4400,2.448
22.4800,2.505
22.5200,2.554
22.5600,2.478
22.6000,2.341
22.6400,2.476
22.6800,2.458
22.7200,2.477
22.7600,2.377
22.8000,2.416
22.8400,2.396
22.8800,2.437
22.9200,2.425
22.9600,2.391
23.0000,2.494
23.0400,2.416
23.0800,2.430
23.1200,2.424
23.1600,2.399
23.2000,2.337
23.2400,2.351
23.2800,2.354
23.3200,2.364
23.3600,2.366
23.4000,2.425
23.4400,2.338
23.4800,2.395
23.5200,2.343
23.5600,2.399
23.6000,2.252
23.6400,2.349
23.6800,2.325
23.7200,2.348
23.7600,2.368
23.8000,2.320
23.8400,2.298
23.8800,2.355
23.9200,2.412
23.9600,2.320
24.0000,2.376
24.0400,2.408
24.0800,2.326
24.1200,2.303
24.1600,2.330
24.2000,2.297
24.2400,2.278
24.2800,2.414
24.3200,2.275
24.3600,2.286
24.4000,2.343
24.4400,2.251
24.4800,2.264
24.5200,2.373
24.5600,2.327
24.6000,2.261
24.6400,2.180
24.6800,2.196
24.7200,2.254
24.7600,2.290
24.8000,2.274
24.8400,2.176
24.8800,2.265
24.9200,2.281
24.9600,2.260
25.0000,2.242
25.0400,2.211
25.0800,2.160
25.1200,2.185
25.1600,2.223
25.2000,2.223
25.2400,2.183
25.2800,2.227
25.3200,2.236
25.3600,2.193
25.4000,2.184
25.4400,2.110
25.4800,2.144
25.5200,2.150
25.5600,2.099
25.6000,2.101
25.6400,2.054
25.6800,2.089
25.7200,2.213
25.7600,2.089
25.8000,2.208
25.8400,2.219
25.8800,2.109
25.9200,2.107
25.9600,2.095
26.0000,2.085
26.0400,2.111
26.0800,2.125
26.1200,2.127
26.1600,2.142
26.2000,2.106
26.2400,2.171
26.2800,2.123
26.3200,2.127
26.3600,2.152
26.4000,2.119
26.4400,2.144
26.4800,2.105
26.5200,2.141
26.5600,2.133
26.6000,2.113
26.6400,2.172
26.6800,2.086
26.7200,2.105
26.7600,1.992
26.8000,2.033
26.8400,2.103
26.8800,2.069
26.9200,2.038
26.9600,2.081
27.0000,2.085
27.0400,2.126
27.0800,2.086
27.1200,1.994
27.1600,2.041
27.2000,1.996
27.2400,2.061
27.2800,2.070
27.3200,1.917
27.3600,1.990
27.4000,1.956
27.4400,2.003
27.4800,1.977
27.5200,1.954
27.5600,1.988
27.6000,1.967
27.6400,1.930
27.6800,2.041
27.7200,1.993
27.7600,1.975
27.8000,1.939
27.8400,2.035
27.8800,1.950
27.9200,1.924
27.9600,2.039
28.0000,1.984
28.0400,1.935
28.0800,1.970
28.1200,1.991
28.1600,1.911
28.2000,1.959
28.2400,1.992
28.2800,1.983
28.3200,1.923
28.3600,1.985
28.4000,1.927
28.4400,1.941
28.4800,1.973
28.5200,1.869
28.5600,1.910
28.6000,1.964
28.6400,1.975
28.6800,1.970
28.7200,1.901
28.7600,1.935
28.8000,1.950
28.8400,1.946
28.8800,1.833
28.9200,1.853
28.9600,1.896
29.0000,1.933
29.0400,1.888
29.0800,1.835
29.1200,1.887
29.1600,1.878
29.2000,1.839
29.2400,1.945
29.2800,1.862
29.3200,1.895
29.3600,1.782
29.4000,1.895
29.4400,1.923
29.4800,1.887
29.5200,1.892
29.5600,1.789
29.6000,1.849
29.6400,1.863
29.6800,1.923
29.7200,1.821
29.7600,1.875
29.8000,1.841
29.8400,1.805
29.8800,1.849
29.9200,1.894
29.9600,1.811
30.0000,1.793
30.0400,1.797
30.0800,1.809
30.1200,1.790
30.1600,1.794
30.2000,1.840
30.2400,1.750
30.2800,1.814
30.3200,1.819
30.3600,1.752
30.4000,1.798
30.4400,1.804
30.4800,1.803
30.5200,1.799
30.5600,1.794
30.6000,1.835
30.6400,1.773
30.6800,1.814
30.7200,1.781
30.7600,1.801
30.8000,1.732
30.8400,1.753
30.8800,1.715
30.9200,1.756
30.9600,1.708
31.0000,1.708
31.0400,1.741
31.0800,1.735
31.1200,1.736
31.1600,1.791
31.2000,1.757
31.2400,1.727
31.2800,1.725
31.3200,1.777
31.3600,1.724
31.4000,1.651
31.4400,1.774
31.4800,1.692
31.5200,1.707
31.5600,1.594
31.6000,1.697
31.6400,1.779
31.6800,1.700
31.7200,1.635
31.7600,1.743
31.8000,1.718
31.8400,1.636
31.8800,1.728
31.9200,1.602
31.9600,1.681
32.0000,1.703
32.0400,1.636
32.0800,1.644
32.1200,1.641
32.1600,1.583
32.2000,1.608
32.2400,1.685
32.2800,1.671
32.3200,1.663
32.3600,1.621
32.4000,1.703
32.4400,1.645
32.4800,1.665
32.5200,1.610
32.5600,1.665
32.6000,1.646
32.6400,1.591
32.6800,1.664
32.7200,1.562
32.7600,1.641
32.8000,1.619
32.8400,1.631
32.8800,1.561
32.9200,1.602
32.9600,1.565
33.0000,1.597
33.0400,1.598
33.0800,1.570
33.1200,1.555
33.1600,1.598
33.2000,1.596
33.2400,1.564
33.2800,1.625
33.3200,1.580
33.3600,1.577
33.4000,1.612
33.4400,1.502
33.4800,1.627
33.5200,1.546
33.5600,1.590
33.6000,1.624
33.6400,1.556
33.6800,1.525
33.7200,1.538
33.7600,1.534
33.8000,1.488
33.8400,1.555
33.8800,1.602
33.9200,1.601
33.9600,1.493
34.0000,1.537
34.0400,1.544
34.0800,1.567
34.1200,1.528
34.1600,1.481
34.2000,1.571
34.2400,1.606
34.2800,1.509
34.3200,1.558
34.3600,1.440
34.4000,1.475
34.4400,1.536
34.4800,1.528
34.5200,1.475
34.5600,1.513
34.6000,1.484
34.6400,1.488
34.6800,1.510
34.7200,1.520
34.7600,1.531
34.8000,1.527
34.8400,1.404
34.8800,1.461
34.9200,1.428
34.9600,1.459
35.0000,1.428
35.0400,1.442
35.0800,1.391
35.1200,1.457
35.1600,1.480
35.2000,1.482
35.2400,1.474
35.2800,1.412
35.3200,1.397
35.3600,1.398
35.4000,1.443
35.4400,1.453
35.4800,1.445
35.5200,1.395
35.5600,1.524
35.6000,1.441
35.6400,1.381
35.6800,1.420
35.7200,1.422
35.7600,1.442
35.8000,1.390
35.8400,1.444
35.8800,1.389
35.9200,1.483
35.9600,1.438
36.0000,1.451
36.0400,1.466
36.0800,1.393
36.1200,1.398
36.1600,1.422
36.2000,1.419
36.2400,1.352
36.2800,1.401
36.3200,1.360
36.3600,1.301
36.4000,1.401
36.4400,1.427
36.4800,1.399
36.5200,1.372
36.5600,1.423
36.6000,1.353
36.6400,1.372
36.6800,1.382
36.7200,1.351
36.7600,1.385
36.8000,1.386
36.8400,1.361
36.8800,1.405
36.9200,1.334
36.9600,1.413
37.0000,1.367
37.0400,1.367
37.0800,1.355
37.1200,1.329
37.1600,1.311
37.2000,1.316
37.2400,1.336
37.2800,1.338
37.3200,1.329
37.3600,1.302
37.4000,1.333
37.4400,1.344
37.4800,1.329
37.5200,1.337
37.5600,1.298
37.6000,1.314
37.6400,1.324
37.6800,1.295
37.7200,1.323
37.7600,1.375
37.8000,1.288
37.8400,1.356
37.8800,1.403
37.9200,1.326
37.9600,1.325
38.0000,1.312
38.0400,1.365
38.0800,1.325
38.1200,1.374
38.1600,1.428
38.2000,1.329
38.2400,1.324
38.2800,1.349
38.3200,1.399
38.3600,1.266
38.4000,1.348
38.4400,1.382
38.4800,1.366
38.5200,1.405
38.5600,1.344
38.6000,1.309
38.6400,1.361
38.6800,1.430
38.7200,1.436
38.7600,1.377
38.8000,1.438
38.8400,1.416
38.8800,1.455
38.9200,1.437
38.9600,1.541
39.0000,1.532
39.0400,1.552
39.0800,1.642
39.1200,1.693
39.1600,1.796
39.2000,1.793
39.2400,1.819
39.2800,1.878
39.3200,1.948
39.3600,2.031
39.4000,2.079
39.4400,2.013
39.4800,1.953
39.5200,2.008
39.5600,2.052
39.6000,2.126
39.6400,2.180
39.6800,2.300
39.7200,2.252
39.7600,2.409
39.8000,2.565
39.8400,2.650
39.8800,2.826
39.9200,2.965
39.9600,3.137
40.0000,3.293
40.0400,3.340
40.0800,3.166
40.1200,2.976
40.1600,2.764
40.2000,2.530
40.2400,2.203
40.2800,1.983
40.3200,1.844
40.3600,1.677
40.4000,1.582
40.4400,1.607
40.4800,1.458
40.5200,1.462
40.5600,1.440
40.6000,1.347
40.6400,1.367
40.6800,1.408
40.7200,1.344
40.7600,1.312
40.8000,1.226
40.8400,1.229
40.8800,1.238
40.9200,1.278
40.9600,1.171
41.0000,1.231
41.0400,1.257
41.0800,1.203
41.1200,1.199
41.1600,1.189
41.2000,1.179
41.2400,1.176
41.2800,1.143
41.3200,1.165
41.3600,1.167
41.4000,1.141
41.4400,1.202
41.4800,1.186
41.5200,1.180
41.5600,1.118
41.6000,1.186
41.6400,1.138
41.6800,1.139
41.7200,1.164
41.7600,1.118
41.8000,1.112
41.8400,1.118
41.8800,1.136
41.9200,1.145
41.9600,1.141
42.0000,1.163
42.0400,1.172
42.0800,1.114
42.1200,1.102
42.1600,1.073
42.2000,1.159
42.2400,1.057
42.2800,1.108
42.3200,1.057
42.3600,1.073
42.4000,1.047
42.4400,1.100
42.4800,1.123
42.5200,1.112
42.5600,1.069
42.6000,1.064
42.6400,1.029
42.6800,1.038
42.7200,1.089
42.7600,1.100
42.8000,1.134
42.8400,1.107
42.8800,1.103
42.9200,1.076
42.9600,1.078
43.0000,1.063
43.0400,1.076
43.0800,1.048
43.1200,1.056
43.1600,1.054
43.2000,1.127
43.2400,1.028
43.2800,0.979
43.3200,0.960
43.3600,1.004
43.4000,1.004
43.4400,1.024
43.4800,1.042
43.5200,1.024
43.5600,1.087
43.6000,1.077
43.6400,1.036
43.6800,1.033
43.7200,1.081
43.7600,1.103
43.8000,1.082
43.8400,1.072
43.8800,1.025
43.9200,1.043
43.9600,1.012
44.0000,0.973
44.0400,0.982
44.0800,1.084
44.1200,1.060
44.1600,1.063
44.2000,1.057
44.2400,1.029
44.2800,1.116
44.3200,1.038
44.3600,0.996
44.4000,1.092
44.4400,1.110
44.4800,1.061
44.5200,1.041
44.5600,1.088
44.6000,1.118
44.6400,1.021
44.6800,1.076
44.7200,1.046
44.7600,1.055
44.8000,1.007
44.8400,1.030
44.8800,1.017
44.9200,1.028
44.9600,1.110
45.0000,1.059
45.0400,1.025
45.0800,0.977
45.1200,1.085
45.1600,1.079
45.2000,0.988
45.2400,1.035
45.2800,1.073
45.3200,1.004
45.3600,1.044
45.4000,1.035
45.4400,1.015
45.4800,1.063
45.5200,1.022
45.5600,1.053
45.6000,1.039
45.6400,1.039
45.6800,1.043
45.7200,1.086
45.7600,1.018
45.8000,1.058
45.8400,1.072
45.8800,1.093
45.9200,1.106
45.9600,1.133
46.0000,1.129
46.0400,1.184
46.0800,1.132
46.1200,1.184
46.1600,1.210
46.2000,1.279
46.2400,1.261
46.2800,1.226
46.3200,1.319
46.3600,1.345
46.4000,1.401
46.4400,1.467
46.4800,1.454
46.5200,1.454
46.5600,1.597
46.6000,1.439
46.6400,1.458
46.6800,1.385
46.7200,1.376
46.7600,1.353
46.8000,1.278
46.8400,1.206
46.8800,1.163
46.9200,1.098
46.9600,1.054
47.0000,1.036
47.0400,1.002
47.0800,1.004
47.1200,0.972
47.1600,0.963
47.2000,0.972
47.2400,0.943
47.2800,0.971
47.3200,0.907
47.3600,0.915
47.4000,0.917
47.4400,0.888
47.4800,0.893
47.5200,0.876
47.5600,0.871
47.6000,0.944
47.6400,0.913
47.6800,0.883
47.7200,0.878
47.7600,0.858
47.8000,0.886
47.8400,0.903
47.8800,0.886
47.9200,0.855
47.9600,0.913
48.0000,0.889
48.0400,0.846
48.0800,0.863
48.1200,0.853
48.1600,0.878
48.2000,0.840
48.2400,0.831
48.2800,0.908
48.3200,0.884
48.3600,0.869
48.4000,0.866
48.4400,0.797
48.4800,0.863
48.5200,0.869
48.5600,0.795
48.6000,0.831
48.6400,0.774
48.6800,0.825
48.7200,0.808
48.7600,0.878
48.8000,0.853
48.8400,0.843
48.8800,0.823
48.9200,0.839
48.9600,0.810
49.0000,0.876
49.0400,0.809
49.0800,0.764
49.1200,0.834
49.1600,0.800
49.2000,0.776
49.2400,0.769
49.2800,0.781
49.3200,0.803
49.3600,0.819
49.4000,0.792
49.4400,0.804
49.4800,0.817
49.5200,0.742
49.5600,0.795
49.6000,0.762
49.6400,0.792
49.6800,0.792
49.7200,0.783
49.7600,0.777
49.8000,0.753
49.8400,0.840
49.8800,0.772
49.9200,0.802
49.9600,0.792
50.0000,0.784
50.0400,0.753
50.0800,0.777
50.1200,0.776
50.1600,0.746
50.2000,0.736
50.2400,0.764
50.2800,0.784
50.3200,0.775
50.3600,0.790
50.4000,0.791
50.4400,0.783
50.4800,0.796
50.5200,0.755
50.5600,0.766
50.6000,0.758
50.6400,0.748
50.6800,0.799
50.7200,0.749
50.7600,0.768
50.8000,0.761
50.8400,0.764
50.8800,0.744
50.9200,0.731
50.9600,0.769
51.0000,0.699
51.0400,0.738
51.0800,0.778
51.1200,0.771
51.1600,0.724
51.2000,0.737
51.2400,0.783
51.2800,0.730
51.3200,0.742
51.3600,0.760
51.4000,0.714
51.4400,0.721
51.4800,0.741
51.5200,0.767
51.5600,0.781
51.6000,0.733
51.6400,0.769
51.6800,0.703
51.7200,0.718
51.7600,0.669
51.8000,0.717
51.8400,0.707
51.8800,0.740
51.9200,0.727
51.9600,0.721
52.0000,0.755
52.0400,0.699
52.0800,0.685
52.1200,0.716
52.1600,0.737
52.2000,0.729
52.2400,0.741
52.2800,0.730
52.3200,0.706
52.3600,0.723
52.4000,0.739
52.4400,0.706
52.4800,0.750
52.5200,0.719
52.5600,0.699
52.6000,0.722
52.6400,0.688
52.6800,0.711
52.7200,0.711
52.7600,0.705
52.8000,0.662
52.8400,0.719
52.8800,0.683
52.9200,0.672
52.9600,0.686
53.0000,0.722
53.0400,0.656
53.0800,0.717
53.1200,0.642
53.1600,0.659
53.2000,0.673
53.2400,0.712
53.2800,0.719
53.3200,0.704
53.3600,0.702
53.4000,0.680
53.4400,0.687
53.4800,0.649
53.5200,0.665
53.5600,0.696
53.6000,0.685
53.6400,0.670
53.6800,0.689
53.7200,0.703
53.7600,0.657
53.8000,0.631
53.8400,0.655
53.8800,0.668
53.9200,0.655
53.9600,0.679
54.0000,0.654
54.0400,0.664
54.0800,0.664
54.1200,0.668
54.1600,0.667
54.2000,0.704
54.2400,0.694
54.2800,0.651
54.3200,0.668
54.3600,0.668
54.4000,0.657
54.4400,0.642
54.4800,0.650
54.5200,0.659
54.5600,0.637
54.6000,0.674
54.6400,0.639
54.6800,0.633
54.7200,0.690
54.7600,0.653
54.8000,0.607
54.8400,0.630
54.8800,0.625
54.9200,0.669
54.9600,0.608
55.0000,0.621
55.0400,0.599
55.0800,0.658
55.1200,0.656
55.1600,0.671
55.2000,0.612
55.2400,0.619
55.2800,0.647
55.3200,0.655
55.3600,0.648
55.4000,0.626
55.4400,0.626
55.4800,0.618
55.5200,0.609
55.5600,0.659
55.6000,0.645
55.6400,0.674
55.6800,0.620
55.7200,0.628
55.7600,0.674
55.8000,0.631
55.8400,0.632
55.8800,0.623
55.9200,0.620
55.9600,0.647
56.0000,0.646
56.0400,0.612
56.0800,0.655
56.1200,0.615
56.1600,0.627
56.2000,0.676
56.2400,0.612
56.2800,0.639
56.3200,0.606
56.3600,0.661
56.4000,0.656
56.4400,0.635
56.4800,0.626
56.5200,0.587
56.5600,0.648
56.6000,0.622
56.6400,0.595
56.6800,0.595
56.7200,0.651
56.7600,0.607
56.8000,0.600
56.8400,0.633
56.8800,0.637
56.9200,0.618
56.9600,0.613
57.0000,0.638
57.0400,0.636
57.0800,0.607
57.1200,0.613
57.1600,0.596
57.2000,0.587
57.2400,0.603
57.2800,0.597
57.3200,0.579
57.3600,0.590
57.4000,0.594
57.4400,0.580
57.4800,0.551
57.5200,0.575
57.5600,0.602
57.6000,0.580
57.6400,0.592
57.6800,0.594
57.7200,0.549
57.7600,0.649
57.8000,0.587
57.8400,0.641
57.8800,0.612
57.9200,0.615
57.9600,0.594
58.0000,0.616
58.0400,0.624
58.0800,0.611
58.1200,0.630
58.1600,0.561
58.2000,0.579
58.2400,0.613
58.2800,0.598
58.3200,0.610
58.3600,0.572
58.4000,0.592
58.4400,0.630
58.4800,0.579
58.5200,0.566
58.5600,0.586
58.6000,0.621
58.6400,0.605
58.6800,0.592
58.7200,0.580
58.7600,0.578
58.8000,0.610
58.8400,0.568
58.8800,0.579
58.9200,0.626
58.9600,0.540
59.0000,0.617
59.0400,0.563
59.0800,0.539
59.1200,0.546
59.1600,0.558
59.2000,0.573
59.2400,0.570
59.2800,0.621
59.3200,0.550
59.3600,0.574
59.4000,0.592
59.4400,0.595
59.4800,0.602
59.5200,0.582
59.5600,0.583
59.6000,0.542
59.6400,0.584
59.6800,0.548
59.7200,0.575
59.7600,0.527
59.8000,0.547
59.8400,0.567
59.8800,0.560
59.9200,0.571
59.9600,0.563
60.0000,0.528
60.0400,0.583
60.0800,0.604
60.1200,0.547
60.1600,0.554
60.2000,0.540
60.2400,0.578
60.2800,0.565
60.3200,0.544
60.3600,0.543
60.4000,0.553
60.4400,0.556
60.4800,0.547
60.5200,0.513
60.5600,0.538
60.6000,0.561
60.6400,0.540
60.6800,0.585
60.7200,0.535
60.7600,0.529
60.8000,0.520
60.8400,0.529
60.8800,0.540
60.9200,0.562
60.9600,0.538
61.0000,0.552
61.0400,0.538
61.0800,0.574
61.1200,0.517
61.1600,0.581
61.2000,0.524
61.2400,0.575
61.2800,0.555
61.3200,0.571
61.3600,0.582
61.4000,0.522
61.4400,0.546
61.4800,0.489
61.5200,0.535
61.5600,0.587
61.6000,0.548
61.6400,0.632
61.6800,0.660
61.7200,0.587
61.7600,0.554
61.8000,0.531
61.8400,0.544
61.8800,0.527
61.9200,0.565
61.9600,0.550
62.0000,0.537
62.0400,0.539
62.0800,0.522
62.1200,0.526
62.1600,0.496
62.2000,0.521
62.2400,0.506
62.2800,0.555
62.3200,0.535
62.3600,0.525
62.4000,0.511
62.4400,0.586
62.4800,0.590
62.5200,0.534
62.5600,0.552
62.6000,0.574
62.6400,0.572
62.6800,0.528
62.7200,0.540
62.7600,0.512
62.8000,0.529
62.8400,0.530
62.8800,0.494
62.9200,0.553
62.9600,0.563
63.0000,0.511
63.0400,0.515
63.0800,0.572
63.1200,0.532
63.1600,0.555
63.2000,0.543
63.2400,0.529
63.2800,0.544
63.3200,0.518
63.3600,0.504
63.4000,0.570
63.4400,0.529
63.4800,0.554
63.5200,0.524
63.5600,0.489
63.6000,0.527
63.6400,0.538
63.6800,0.545
63.7200,0.518
63.7600,0.586
63.8000,0.505
63.8400,0.568
63.8800,0.539
63.9200,0.536
63.9600,0.556
64.0000,0.546
64.0400,0.535
64.0800,0.572
64.1200,0.549
64.1600,0.585
64.2000,0.609
64.2400,0.546
64.2800,0.600
64.3200,0.519
64.3600,0.539
64.4000,0.558
64.4400,0.591
64.4800,0.618
64.5200,0.541
64.5600,0.534
64.6000,0.599
64.6400,0.612
64.6800,0.580
64.7200,0.597
64.7600,0.597
64.8000,0.558
64.8400,0.621
64.8800,0.596
64.9200,0.570
64.9600,0.607
65.0000,0.604
65.0400,0.575
65.0800,0.598
65.1200,0.625
65.1600,0.571
65.2000,0.614
65.2400,0.631
65.2800,0.610
65.3200,0.597
65.3600,0.613
65.4000,0.619
65.4400,0.618
65.4800,0.670
65.5200,0.661
65.5600,0.630
65.6000,0.632
65.6400,0.683
65.6800,0.668
65.7200,0.701
65.7600,0.716
65.8000,0.722
65.8400,0.665
65.8800,0.732
65.9200,0.722
65.9600,0.736
66.0000,0.736
66.0400,0.751
66.0800,0.702
66.1200,0.749
66.1600,0.719
66.2000,0.749
66.2400,0.768
66.2800,0.783
66.3200,0.846
66.3600,0.831
66.4000,0.828
66.4400,0.795
66.4800,0.841
66.5200,0.877
66.5600,0.870
66.6000,0.921
66.6400,0.896
66.6800,0.873
66.7200,0.937
66.7600,0.940
66.8000,0.950
66.8400,0.972
66.8800,0.971
66.9200,1.010
66.9600,1.041
67.0000,1.086
67.0400,1.072
67.0800,1.087
67.1200,1.062
67.1600,1.158
67.2000,1.158
67.2400,1.221
67.2800,1.202
67.3200,1.231
67.3600,1.313
67.4000,1.359
67.4400,1.359
67.4800,1.487
67.5200,1.446
67.5600,1.407
67.6000,1.526
67.6400,1.453
67.6800,1.504
67.7200,1.579
67.7600,1.659
67.8000,1.718
67.8400,1.708
67.8800,1.820
67.9200,1.850
67.9600,1.864
68.0000,1.916
68.0400,2.014
68.0800,2.051
68.1200,2.007
68.1600,2.008
68.2000,2.077
68.2400,2.178
68.2800,2.222
68.3200,2.237
68.3600,2.301
68.4000,2.388
68.4400,2.478
68.4800,2.590
68.5200,2.706
68.5600,2.794
68.6000,3.001
68.6400,3.347
68.6800,3.819
68.7200,4.703
68.7600,6.126
68.8000,7.338
68.8400,7.597
68.8800,7.563
68.9200,8.414
68.9600,10.823
69.0000,16.784
69.0400,32.994
69.0800,141.449
69.1200,480.169
69.1600,475.517
69.2000,153.888
69.2400,50.809
69.2800,99.119
69.3200,258.184
69.3600,237.842
69.4000,76.880
69.4400,22.131
69.4800,12.247
69.5200,8.931
69.5600,7.202
69.6000,6.111
69.6400,5.043
69.6800,4.790
69.7200,4.325
69.7600,3.776
69.8000,3.493
69.8400,3.270
69.8800,3.134
69.9200,3.045
69.9600,2.833
70.0000,2.716
70.0400,2.580
70.0800,2.517
70.1200,2.399
70.1600,2.257
70.2000,2.297
70.2400,2.153
70.2800,2.035
70.3200,2.061
70.3600,1.957
70.4000,1.845
70.4400,1.795
70.4800,1.848
70.5200,1.709
70.5600,1.601
70.6000,1.574
70.6400,1.583
70.6800,1.524
70.7200,1.497
70.7600,1.442
70.8000,1.371
70.8400,1.447
70.8800,1.345
70.9200,1.271
70.9600,1.308
71.0000,1.206
71.0400,1.214
71.0800,1.192
71.1200,1.099
71.1600,1.118
71.2000,1.054
71.2400,1.029
71.2800,1.017
71.3200,1.021
71.3600,0.978
71.4000,0.985
71.4400,0.993
71.4800,0.949
71.5200,0.915
71.5600,0.871
71.6000,0.903
71.6400,0.845
71.6800,0.878
71.7200,0.825
71.7600,0.816
71.8000,0.832
71.8400,0.789
71.8800,0.744
71.9200,0.745
71.9600,0.750
72.0000,0.761
72.0400,0.742
72.0800,0.737
72.1200,0.659
72.1600,0.679
72.2000,0.713
72.2400,0.681
72.2800,0.635
72.3200,0.659
72.3600,0.614
72.4000,0.634
72.4400,0.652
72.4800,0.587
72.5200,0.610
72.5600,0.577
72.6000,0.568
72.6400,0.563
72.6800,0.581
72.7200,0.596
72.7600,0.549
72.8000,0.548
72.8400,0.565
72.8800,0.582
72.9200,0.549
72.9600,0.508
73.0000,0.518
73.0400,0.503
73.0800,0.501
73.1200,0.495
73.1600,0.515
73.2000,0.504
73.2400,0.513
73.2800,0.484
73.3200,0.464
73.3600,0.483
73.4000,0.472
73.4400,0.486
73.4800,0.477
73.5200,0.467
73.5600,0.495
73.6000,0.494
73.6400,0.481
73.6800,0.474
73.7200,0.410
73.7600,0.434
73.8000,0.429
73.8400,0.463
73.8800,0.407
73.9200,0.419
73.9600,0.425
74.0000,0.416
74.0400,0.448
74.0800,0.457
74.1200,0.467
74.1600,0.416
74.2000,0.448
74.2400,0.422
74.2800,0.449
74.3200,0.386
74.3600,0.415
74.4000,0.372
74.4400,0.409
74.4800,0.429
74.5200,0.438
74.5600,0.416
74.6000,0.396
74.6400,0.413
74.6800,0.411
74.7200,0.403
74.7600,0.398
74.8000,0.383
74.8400,0.427
74.8800,0.409
74.9200,0.394
74.9600,0.386
75.0000,0.389
75.0400,0.372
75.0800,0.381
75.1200,0.337
75.1600,0.375
75.2000,0.374
75.2400,0.378
75.2800,0.374
75.3200,0.379
75.3600,0.371
75.4000,0.377
75.4400,0.357
75.4800,0.325
75.5200,0.366
75.5600,0.364
75.6000,0.351
75.6400,0.378
75.6800,0.338
75.7200,0.368
75.7600,0.362
75.8000,0.372
75.8400,0.369
75.8800,0.348
75.9200,0.350
75.9600,0.341
76.0000,0.371
76.0400,0.317
76.0800,0.338
76.1200,0.336
76.1600,0.351
76.2000,0.331
76.2400,0.349
76.2800,0.333
76.3200,0.310
76.3600,0.355
76.4000,0.349
76.4400,0.333
76.4800,0.317
76.5200,0.367
76.5600,0.361
76.6000,0.306
76.6400,0.327
76.6800,0.364
76.7200,0.333
76.7600,0.374
76.8000,0.319
76.8400,0.328
76.8800,0.365
76.9200,0.346
76.9600,0.315
77.0000,0.313
77.0400,0.314
77.0800,0.339
77.1200,0.350
77.1600,0.312
77.2000,0.324
77.2400,0.327
77.2800,0.321
77.3200,0.330
77.3600,0.319
77.4000,0.313
77.4400,0.329
77.4800,0.351
77.5200,0.335
77.5600,0.326
77.6000,0.333
77.6400,0.348
77.6800,0.334
77.7200,0.298
77.7600,0.310
77.8000,0.348
77.8400,0.294
77.8800,0.344
77.9200,0.318
77.9600,0.325
78.0000,0.347
78.0400,0.346
78.0800,0.308
78.1200,0.341
78.1600,0.316
78.2000,0.343
78.2400,0.322
78.2800,0.315
78.3200,0.322
78.3600,0.332
78.4000,0.312
78.4400,0.352
78.4800,0.329
78.5200,0.300
78.5600,0.324
78.6000,0.302
78.6400,0.319
78.6800,0.340
78.7200,0.317
78.7600,0.306
78.8000,0.295
78.8400,0.335
78.8800,0.335
78.9200,0.294
78.9600,0.307
79.0000,0.302
79.0400,0.312
79.0800,0.349
79.1200,0.312
79.1600,0.304
79.2000,0.312
79.2400,0.307
79.2800,0.330
79.3200,0.312
79.3600,0.311
79.4000,0.326
79.4400,0.304
79.4800,0.306
79.5200,0.303
79.5600,0.301
79.6000,0.295
79.6400,0.325
79.6800,0.284
79.7200,0.317
79.7600,0.315
79.8000,0.309
79.8400,0.306
79.8800,0.323
79.9200,0.306
79.9600,0.308
80.0000,0.319
