theta,intensity
5.0000,6.391
5.0400,6.251
5.0800,6.366
5.1200,6.422
5.1600,6.351
5.2000,6.373
5.2400,6.172
5.2800,6.124
5.3200,6.261
5.3600,6.082
5.4000,6.126
5.4400,5.993
5.4800,6.043
5.5200,6.077
5.5600,5.967
5.6000,6.020
5.6400,5.746
5.6800,5.775
5.7200,5.633
5.7600,5.639
5.8000,5.639
5.8400,5.460
5.8800,5.331
5.9200,5.323
5.9600,5.432
6.0000,5.197
6.0400,5.251
6.0800,5.079
6.1200,5.050
6.1600,4.972
6.2000,4.817
6.2400,4.906
6.2800,4.658
6.3200,4.546
6.3600,4.646
6.4000,4.640
6.4400,4.487
6.4800,4.470
6.5200,4.481
6.5600,4.428
6.6000,4.336
6.6400,4.329
6.6800,4.369
6.7200,4.410
6.7600,4.273
6.8000,4.255
6.8400,4.265
6.8800,4.140
6.9200,4.254
6.9600,4.107
7.0000,4.150
7.0400,4.135
7.0800,4.170
7.1200,4.156
7.1600,4.116
7.2000,4.129
7.2400,4.076
7.2800,4.033
7.3200,3.951
7.3600,4.039
7.4000,3.995
7.4400,3.989
7.4800,4.069
7.5200,3.977
7.5600,3.988
7.6000,4.049
7.6400,3.914
7.6800,3.906
7.7200,4.022
7.7600,3.958
7.8000,3.889
7.8400,3.964
7.8800,3.979
7.9200,3.887
7.9600,3.948
8.0000,3.921
8.0400,3.940
8.0800,3.959
8.1200,3.678
8.1600,3.844
8.2000,3.828
8.2400,3.903
8.2800,3.874
8.3200,3.795
8.3600,3.950
8.4000,3.899
8.4400,3.890
8.4800,3.914
8.5200,3.778
8.5600,3.748
8.6000,3.845
8.6400,3.770
8.6800,3.754
8.7200,3.811
8.7600,3.875
8.8000,3.808
8.8400,3.830
8.8800,3.848
8.9200,3.834
8.9600,3.812
9.0000,3.742
9.0400,3.740
9.0800,3.802
9.1200,3.785
9.1600,3.681
9.2000,3.732
9.2400,3.724
9.2800,3.814
9.3200,3.806
9.3600,3.961
9.4000,3.770
9.4400,3.713
9.4800,3.699
9.5200,3.749
9.5600,3.716
9.6000,3.659
9.6400,3.718
9.6800,3.712
9.7200,3.604
9.7600,3.805
9.8000,3.728
9.8400,3.705
9.8800,3.687
9.9200,3.600
9.9600,3.626
10.0000,3.523
10.0400,3.672
10.0800,3.639
10.1200,3.634
10.1600,3.744
10.2000,3.562
10.2400,3.614
10.2800,3.585
10.3200,3.643
10.3600,3.585
10.4000,3.675
10.4400,3.560
10.4800,3.623
10.5200,3.586
10.5600,3.672
10.6000,3.641
10.6400,3.601
10.6800,3.609
10.7200,3.616
10.7600,3.516
10.8000,3.552
10.8400,3.637
10.8800,3.558
10.9200,3.543
10.9600,3.472
11.0000,3.554
11.0400,3.630
11.0800,3.569
11.1200,3.565
11.1600,3.535
11.2000,3.585
11.2400,3.547
11.2800,3.451
11.3200,3.517
11.3600,3.628
11.4000,3.550
11.4400,3.429
11.4800,3.432
11.5200,3.516
11.5600,3.562
11.6000,3.523
11.6400,3.415
11.6800,3.495
11.7200,3.516
11.7600,3.584
11.8000,3.583
11.8400,3.544
11.8800,3.535
11.9200,3.406
11.9600,3.519
12.0000,3.494
12.0400,3.402
12.0800,3.401
12.1200,3.481
12.1600,3.471
12.2000,3.455
12.2400,3.369
12.2800,3.258
12.3200,3.363
12.3600,3.465
12.4000,3.349
12.4400,3.445
12.4800,3.368
12.5200,3.465
12.5600,3.448
12.6000,3.342
12.6400,3.437
12.6800,3.351
12.7200,3.330
12.7600,3.389
12.8000,3.449
12.8400,3.336
12.8800,3.392
12.9200,3.369
12.9600,3.326
13.0000,3.373
13.0400,3.347
13.0800,3.422
13.1200,3.283
13.1600,3.361
13.2000,3.294
13.2400,3.354
13.2800,3.324
13.3200,3.290
13.3600,3.341
13.4000,3.238
13.4400,3.277
13.4800,3.363
13.5200,3.354
13.5600,3.319
13.6000,3.222
13.6400,3.246
13.6800,3.232
13.7200,3.355
13.7600,3.329
13.8000,3.205
13.8400,3.280
13.8800,3.273
13.9200,3.350
13.9600,3.274
14.0000,3.222
14.0400,3.286
14.0800,3.266
14.1200,3.205
14.1600,3.098
14.2000,3.196
14.2400,3.235
14.2800,3.306
14.3200,3.283
14.3600,3.276
14.4000,3.241
14.4400,3.290
14.4800,3.277
14.5200,3.186
14.5600,3.159
14.6000,3.211
14.6400,3.127
14.6800,3.137
14.7200,3.136
14.7600,3.169
14.8000,3.163
14.8400,3.175
14.8800,3.160
14.9200,3.186
14.9600,3.117
15.0000,3.169
15.0400,3.090
15.0800,3.104
15.1200,3.160
15.1600,3.222
15.2000,3.189
15.2400,3.141
15.2800,3.156
15.3200,3.119
15.3600,3.147
15.4000,3.135
15.4400,3.167
15.4800,3.194
15.5200,3.140
15.5600,3.029
15.6000,3.082
15.6400,2.967
15.6800,3.016
15.7200,2.977
15.7600,3.059
15.8000,3.147
15.8400,3.102
15.8800,3.132
15.9200,2.976
15.9600,3.090
16.0000,3.014
16.0400,3.054
16.0800,3.067
16.1200,3.074
16.1600,3.074
16.2000,3.026
16.2400,2.981
16.2800,3.040
16.3200,3.069
16.3600,3.008
16.4000,2.996
16.4400,2.970
16.4800,3.099
16.5200,3.023
16.5600,3.033
16.6000,3.045
16.6400,2.947
16.6800,3.049
16.7200,2.976
16.7600,2.929
16.8000,2.932
16.8400,2.991
16.8800,2.937
16.9200,2.934
16.9600,3.058
17.0000,3.068
17.0400,2.934
17.0800,3.045
17.1200,2.920
17.1600,2.922
17.2000,2.885
17.2400,2.893
17.2800,2.929
17.3200,2.875
17.3600,2.931
17.4000,2.930
17.4400,2.970
17.4800,2.906
17.5200,2.975
17.5600,2.877
17.6000,2.938
17.6400,2.908
17.6800,2.996
17.7200,2.870
17.7600,2.855
17.8000,2.958
17.8400,2.795
17.8800,2.896
17.9200,2.833
17.9600,2.842
18.0000,2.881
18.0400,2.858
18.0800,2.891
18.1200,2.774
18.1600,2.795
18.2000,2.929
18.2400,2.950
18.2800,2.807
18.3200,2.890
18.3600,2.866
18.4000,2.918
18.4400,2.868
18.4800,2.897
18.5200,2.822
18.5600,2.901
18.6000,2.840
18.6400,2.768
18.6800,2.823
18.7200,2.885
18.7600,2.800
18.8000,2.684
18.8400,2.817
18.8800,2.794
18.9200,2.655
18.9600,2.785
19.0000,2.817
19.0400,2.803
19.0800,2.750
19.1200,2.645
19.1600,2.801
19.2000,2.650
19.2400,2.646
19.2800,2.764
19.3200,2.774
19.3600,2.724
19.4000,2.717
19.4400,2.714
19.4800,2.722
19.5200,2.721
19.5600,2.815
19.6000,2.783
19.6400,2.698
19.6800,2.695
19.7200,2.700
19.7600,2.747
19.8000,2.731
19.8400,2.726
19.8800,2.683
19.9200,2.695
19.9600,2.707
20.0000,2.685
20.0400,2.695
20.0800,2.769
20.1200,2.545
20.1600,2.669
20.2000,2.684
20.2400,2.658
20.2800,2.624
20.3200,2.653
20.3600,2.684
20.4000,2.677
20.4400,2.727
20.4800,2.548
20.5200,2.694
20.5600,2.585
20.6000,2.558
20.6400,2.572
20.6800,2.637
20.7200,2.542
20.7600,2.679
20.8000,2.582
20.8400,2.684
20.8800,2.693
20.9200,2.602
20.9600,2.646
21.0000,2.622
21.0400,2.607
21.0800,2.626
21.1200,2.696
21.1600,2.539
21.2000,2.581
21.2400,2.610
21.2800,2.548
21.3200,2.485
21.3600,2.540
21.4000,2.499
21.4400,2.565
21.4800,2.638
21.5200,2.563
21.5600,2.435
21.6000,2.544
21.6400,2.551
21.6800,2.467
21.7200,2.548
21.7600,2.428
21.8000,2.553
21.8400,2.512
21.8800,2.557
21.9200,2.453
21.9600,2.397
22.0000,2.488
22.0400,2.500
22.0800,2.463
22.1200,2.507
22.1600,2.530
22.2000,2.406
22.2400,2.492
22.2800,2.366
22.3200,2.406
22.3600,2.454
22.4000,2.465
22.4400,2.429
22.4800,2.450
22.5200,2.369
22.5600,2.451
22.6000,2.440
22.6400,2.457
22.6800,2.398
22.7200,2.414
22.7600,2.396
22.8000,2.376
22.8400,2.380
22.8800,2.423
22.9200,2.381
22.9600,2.394
23.0000,2.445
23.0400,2.422
23.0800,2.455
23.1200,2.434
23.1600,2.434
23.2000,2.452
23.2400,2.396
23.2800,2.403
23.3200,2.320
23.3600,2.380
23.4000,2.405
23.4400,2.307
23.4800,2.364
23.5200,2.418
23.5600,2.300
23.6000,2.386
23.6400,2.307
23.6800,2.359
23.7200,2.324
23.7600,2.330
23.8000,2.335
23.8400,2.375
23.8800,2.288
23.9200,2.269
23.9600,2.298
24.0000,2.320
24.0400,2.300
24.0800,2.309
24.1200,2.276
24.1600,2.238
24.2000,2.246
24.2400,2.306
24.2800,2.318
24.3200,2.303
24.3600,2.314
24.4000,2.309
24.4400,2.343
24.4800,2.211
24.5200,2.278
24.5600,2.341
24.6000,2.264
24.6400,2.257
24.6800,2.206
24.7200,2.266
24.7600,2.250
24.8000,2.278
24.8400,2.271
24.8800,2.233
24.9200,2.176
24.9600,2.233
25.0000,2.257
25.0400,2.232
25.0800,2.243
25.1200,2.234
25.1600,2.208
25.2000,2.192
25.2400,2.216
25.2800,2.189
25.3200,2.227
25.3600,2.217
25.4000,2.205
25.4400,2.177
25.4800,2.216
25.5200,2.180
25.5600,2.180
25.6000,2.198
25.6400,2.166
25.6800,2.108
25.7200,2.096
25.7600,2.167
25.8000,2.215
25.8400,2.222
25.8800,2.120
25.9200,2.158
25.9600,2.179
26.0000,2.249
26.0400,2.180
26.0800,2.107
26.1200,2.206
26.1600,2.044
26.2000,2.062
26.2400,2.042
26.2800,2.181
26.3200,2.129
26.3600,2.156
26.4000,2.115
26.4400,2.125
26.4800,2.195
26.5200,2.127
26.5600,2.112
26.6000,2.052
26.6400,2.129
26.6800,2.053
26.7200,2.093
26.7600,2.116
26.8000,2.137
26.8400,2.057
26.8800,2.033
26.9200,2.061
26.9600,2.008
27.0000,2.096
27.0400,2.109
27.0800,2.034
27.1200,2.034
27.1600,1.993
27.2000,2.092
27.2400,2.073
27.2800,1.999
27.3200,2.018
27.3600,2.038
27.4000,2.046
27.4400,2.026
27.4800,2.011
27.5200,2.005
27.5600,1.980
27.6000,2.031
27.6400,1.998
27.6800,1.991
27.7200,1.974
27.7600,1.979
27.8000,1.999
27.8400,1.959
27.8800,1.984
27.9200,1.987
27.9600,1.933
28.0000,2.025
28.0400,1.938
28.0800,1.910
28.1200,1.976
28.1600,2.036
28.2000,1.960
28.2400,1.917
28.2800,1.895
28.3200,1.943
28.3600,1.987
28.4000,1.911
28.4400,1.931
28.4800,1.980
28.5200,1.903
28.5600,1.882
28.6000,1.930
28.6400,1.892
28.6800,2.005
28.7200,1.964
28.7600,1.926
28.8000,1.890
28.8400,1.943
28.8800,2.010
28.9200,1.866
28.9600,1.895
29.0000,1.881
29.0400,1.914
29.0800,1.924
29.1200,1.876
29.1600,1.895
29.2000,1.903
29.2400,1.905
29.2800,1.866
29.3200,1.898
29.3600,1.836
29.4000,1.925
29.4400,1.829
29.4800,1.824
29.5200,1.872
29.5600,1.898
29.6000,1.801
29.6400,1.837
29.6800,1.898
29.7200,1.906
29.7600,1.856
29.8000,1.859
29.8400,1.814
29.8800,1.859
29.9200,1.866
29.9600,1.813
30.0000,1.824
30.0400,1.868
30.0800,1.827
30.1200,1.816
30.1600,1.825
30.2000,1.865
30.2400,1.836
30.2800,1.801
30.3200,1.754
30.3600,1.768
30.4000,1.801
30.4400,1.791
30.4800,1.726
30.5200,1.794
30.5600,1.742
30.6000,1.787
30.6400,1.810
30.6800,1.807
30.7200,1.835
30.7600,1.790
30.8000,1.749
30.8400,1.781
30.8800,1.772
30.9200,1.751
30.9600,1.764
31.0000,1.687
31.0400,1.752
31.0800,1.726
31.1200,1.695
31.1600,1.753
31.2000,1.663
31.2400,1.701
31.2800,1.726
31.3200,1.715
31.3600,1.730
31.4000,1.696
31.4400,1.701
31.4800,1.737
31.5200,1.699
31.5600,1.706
31.6000,1.691
31.6400,1.763
31.6800,1.713
31.7200,1.702
31.7600,1.736
31.8000,1.733
31.8400,1.694
31.8800,1.680
31.9200,1.721
31.9600,1.650
32.0000,1.689
32.0400,1.688
32.0800,1.669
32.1200,1.648
32.1600,1.622
32.2000,1.680
32.2400,1.697
32.2800,1.701
32.3200,1.560
32.3600,1.638
32.4000,1.648
32.4400,1.691
32.4800,1.683
32.5200,1.606
32.5600,1.634
32.6000,1.694
32.6400,1.672
32.6800,1.571
32.7200,1.587
32.7600,1.575
32.8000,1.647
32.8400,1.640
32.8800,1.687
32.9200,1.604
32.9600,1.658
33.0000,1.542
33.0400,1.606
33.0800,1.625
33.1200,1.626
33.1600,1.575
33.2000,1.644
33.2400,1.572
33.2800,1.642
33.3200,1.638
33.3600,1.557
33.4000,1.580
33.4400,1.648
33.4800,1.561
33.5200,1.525
33.5600,1.589
33.6000,1.580
33.6400,1.514
33.6800,1.522
33.7200,1.516
33.7600,1.506
33.8000,1.513
33.8400,1.519
33.8800,1.550
33.9200,1.619
33.9600,1.539
34.0000,1.555
34.0400,1.547
34.0800,1.557
34.1200,1.563
34.1600,1.561
34.2000,1.520
34.2400,1.564
34.2800,1.489
34.3200,1.530
34.3600,1.426
34.4000,1.555
34.4400,1.546
34.4800,1.496
34.5200,1.493
34.5600,1.506
34.6000,1.500
34.6400,1.547
34.6800,1.635
34.7200,1.477
34.7600,1.483
34.8000,1.434
34.8400,1.481
34.8800,1.424
34.9200,1.545
34.9600,1.497
35.0000,1.507
35.0400,1.490
35.0800,1.505
35.1200,1.481
35.1600,1.451
35.2000,1.455
35.2400,1.504
35.2800,1.566
35.3200,1.585
35.3600,1.470
35.4000,1.440
35.4400,1.441
35.4800,1.466
35.5200,1.404
35.5600,1.469
35.6000,1.387
35.6400,1.363
35.6800,1.449
35.7200,1.422
35.7600,1.420
35.8000,1.434
35.8400,1.399
35.8800,1.441
35.9200,1.464
35.9600,1.373
36.0000,1.349
36.0400,1.374
36.0800,1.492
36.1200,1.377
36.1600,1.368
36.2000,1.363
36.2400,1.407
36.2800,1.334
36.3200,1.395
36.3600,1.406
36.4000,1.346
36.4400,1.398
36.4800,1.462
36.5200,1.460
36.5600,1.423
36.6000,1.391
36.6400,1.360
36.6800,1.399
36.7200,1.330
36.7600,1.386
36.8000,1.375
36.8400,1.368
36.8800,1.420
36.9200,1.424
36.9600,1.397
37.0000,1.374
37.0400,1.367
37.0800,1.408
37.1200,1.395
37.1600,1.372
37.2000,1.372
37.2400,1.270
37.2800,1.304
37.3200,1.338
37.3600,1.333
37.4000,1.391
37.4400,1.328
37.4800,1.351
37.5200,1.312
37.5600,1.377
37.6000,1.366
37.6400,1.375
37.6800,1.418
37.7200,1.384
37.7600,1.432
37.8000,1.389
37.8400,1.443
37.8800,1.338
37.9200,1.377
37.9600,1.332
38.0000,1.412
38.0400,1.359
38.0800,1.417
38.1200,1.372
38.1600,1.370
38.2000,1.464
38.2400,1.392
38.2800,1.431
38.3200,1.428
38.3600,1.436
38.4000,1.462
38.4400,1.415
38.4800,1.436
38.5200,1.472
38.5600,1.382
38.6000,1.422
38.6400,1.414
38.6800,1.493
38.7200,1.491
38.7600,1.531
38.8000,1.565
38.8400,1.611
38.8800,1.608
38.9200,1.678
38.9600,1.723
39.0000,1.803
39.0400,1.912
39.0800,1.981
39.1200,2.177
39.1600,2.364
39.2000,2.403
39.2400,2.577
39.2800,2.671
39.3200,2.672
39.3600,2.739
39.4000,2.767
39.4400,2.811
39.4800,2.862
39.5200,2.780
39.5600,2.866
39.6000,2.908
39.6400,2.955
39.6800,2.915
39.7200,2.980
39.7600,3.066
39.8000,3.131
39.8400,3.196
39.8800,3.158
39.9200,3.297
39.9600,3.430
40.0000,3.193
40.0400,3.218
40.0800,3.163
40.1200,2.962
40.1600,2.671
40.2000,2.545
40.2400,2.414
40.2800,2.125
40.3200,2.037
40.3600,1.848
40.4000,1.729
40.4400,1.666
40.4800,1.629
40.5200,1.495
40.5600,1.506
40.6000,1.435
40.6400,1.481
40.6800,1.430
40.7200,1.434
40.7600,1.334
40.8000,1.340
40.8400,1.416
40.8800,1.309
40.9200,1.276
40.9600,1.368
41.0000,1.329
41.0400,1.285
41.0800,1.260
41.1200,1.246
41.1600,1.192
41.2000,1.208
41.2400,1.242
41.2800,1.223
41.3200,1.240
41.3600,1.159
41.4000,1.190
41.4400,1.209
41.4800,1.234
41.5200,1.138
41.5600,1.157
41.6000,1.118
41.6400,1.221
41.6800,1.191
41.7200,1.194
41.7600,1.130
41.8000,1.181
41.8400,1.159
41.8800,1.155
41.9200,1.231
41.9600,1.131
42.0000,1.136
42.0400,1.164
42.0800,1.109
42.1200,1.164
42.1600,1.141
42.2000,1.147
42.2400,1.162
42.2800,1.122
42.3200,1.083
42.3600,1.124
42.4000,1.097
42.4400,1.109
42.4800,1.103
42.5200,1.150
42.5600,1.102
42.6000,1.077
42.6400,1.111
42.6800,1.150
42.7200,1.121
42.7600,1.144
42.8000,1.148
42.8400,1.066
42.8800,1.103
42.9200,1.079
42.9600,1.139
43.0000,1.091
43.0400,1.146
43.0800,1.074
43.1200,1.100
43.1600,1.034
43.2000,1.003
43.2400,1.117
43.2800,1.071
43.3200,1.091
43.3600,1.102
43.4000,1.093
43.4400,1.094
43.4800,1.050
43.5200,1.087
43.5600,1.099
43.6000,1.087
43.6400,1.069
43.6800,1.040
43.7200,1.053
43.7600,1.083
43.8000,1.129
43.8400,1.100
43.8800,1.048
43.9200,1.084
43.9600,1.114
44.0000,1.080
44.0400,1.065
44.0800,1.038
44.1200,1.071
44.1600,1.084
44.2000,1.124
44.2400,1.061
44.2800,1.093
44.3200,1.025
44.3600,1.133
44.4000,1.163
44.4400,1.100
44.4800,1.155
44.5200,1.088
44.5600,1.138
44.6000,1.126
44.6400,1.140
44.6800,1.111
44.7200,1.150
44.7600,1.182
44.8000,1.175
44.8400,1.151
44.8800,1.160
44.9200,1.111
44.9600,1.108
45.0000,1.113
45.0400,1.141
45.0800,1.054
45.1200,1.156
45.1600,1.086
45.2000,1.066
45.2400,1.121
45.2800,1.102
45.3200,1.109
45.3600,1.113
45.4000,1.132
45.4400,1.094
45.4800,1.081
45.5200,1.094
45.5600,1.144
45.6000,1.097
45.6400,1.102
45.6800,1.082
45.7200,1.162
45.7600,1.241
45.8000,1.236
45.8400,1.158
45.8800,1.147
45.9200,1.266
45.9600,1.267
46.0000,1.269
46.0400,1.332
46.0800,1.277
46.1200,1.258
46.1600,1.322
46.2000,1.323
46.2400,1.386
46.2800,1.421
46.3200,1.426
46.3600,1.404
46.4000,1.444
46.4400,1.487
46.4800,1.514
46.5200,1.558
46.5600,1.418
46.6000,1.456
46.6400,1.383
46.6800,1.432
46.7200,1.308
46.7600,1.324
46.8000,1.320
46.8400,1.299
46.8800,1.219
46.9200,1.123
46.9600,1.105
47.0000,1.102
47.0400,1.080
47.0800,1.092
47.1200,1.007
47.1600,0.990
47.2000,0.981
47.2400,0.990
47.2800,0.943
47.3200,0.991
47.3600,0.959
47.4000,0.891
47.4400,0.964
47.4800,0.928
47.5200,0.914
47.5600,0.907
47.6000,0.978
47.6400,0.937
47.6800,0.961
47.7200,0.875
47.7600,0.864
47.8000,0.946
47.8400,0.914
47.8800,0.953
47.9200,0.927
47.9600,0.894
48.0000,0.906
48.0400,0.914
48.0800,0.895
48.1200,0.907
48.1600,0.909
48.2000,0.874
48.2400,0.889
48.2800,0.899
48.3200,0.860
48.3600,0.836
48.4000,0.870
48.4400,0.816
48.4800,0.880
48.5200,0.896
48.5600,0.821
48.6000,0.823
48.6400,0.835
48.6800,0.869
48.7200,0.836
48.7600,0.843
48.8000,0.869
48.8400,0.840
48.8800,0.804
48.9200,0.840
48.9600,0.827
49.0000,0.810
49.0400,0.851
49.0800,0.776
49.1200,0.808
49.1600,0.828
49.2000,0.858
49.2400,0.802
49.2800,0.799
49.3200,0.824
49.3600,0.769
49.4000,0.796
49.4400,0.784
49.4800,0.792
49.5200,0.805
49.5600,0.786
49.6000,0.787
49.6400,0.772
49.6800,0.834
49.7200,0.774
49.7600,0.776
49.8000,0.816
49.8400,0.774
49.8800,0.819
49.9200,0.774
49.9600,0.813
50.0000,0.788
50.0400,0.816
50.0800,0.781
50.1200,0.809
50.1600,0.777
50.2000,0.756
50.2400,0.739
50.2800,0.791
50.3200,0.773
50.3600,0.785
50.4000,0.754
50.4400,0.756
50.4800,0.769
50.5200,0.754
50.5600,0.796
50.6000,0.763
50.6400,0.777
50.6800,0.770
50.7200,0.819
50.7600,0.781
50.8000,0.732
50.8400,0.736
50.8800,0.739
50.9200,0.702
50.9600,0.736
51.0000,0.764
51.0400,0.755
51.0800,0.755
51.1200,0.798
51.1600,0.742
51.2000,0.769
51.2400,0.700
51.2800,0.760
51.3200,0.722
51.3600,0.694
51.4000,0.728
51.4400,0.695
51.4800,0.730
51.5200,0.710
51.5600,0.797
51.6000,0.690
51.6400,0.705
51.6800,0.691
51.7200,0.710
51.7600,0.731
51.8000,0.707
51.8400,0.710
51.8800,0.756
51.9200,0.753
51.9600,0.722
52.0000,0.735
52.0400,0.704
52.0800,0.748
52.1200,0.713
52.1600,0.676
52.2000,0.745
52.2400,0.736
52.2800,0.714
52.3200,0.736
52.3600,0.727
52.4000,0.749
52.4400,0.682
52.4800,0.674
52.5200,0.720
52.5600,0.677
52.6000,0.695
52.6400,0.661
52.6800,0.724
52.7200,0.701
52.7600,0.665
52.8000,0.730
52.8400,0.712
52.8800,0.697
52.9200,0.721
52.9600,0.675
53.0000,0.674
53.0400,0.719
53.0800,0.657
53.1200,0.683
53.1600,0.714
53.2000,0.648
53.2400,0.675
53.2800,0.712
53.3200,0.655
53.3600,0.676
53.4000,0.721
53.4400,0.712
53.4800,0.644
53.5200,0.731
53.5600,0.684
53.6000,0.673
53.6400,0.713
53.6800,0.666
53.7200,0.693
53.7600,0.695
53.8000,0.656
53.8400,0.700
53.8800,0.691
53.9200,0.702
53.9600,0.638
54.0000,0.655
54.0400,0.672
54.0800,0.700
54.1200,0.724
54.1600,0.664
54.2000,0.682
54.2400,0.671
54.2800,0.619
54.3200,0.639
54.3600,0.677
54.4000,0.688
54.4400,0.693
54.4800,0.626
54.5200,0.655
54.5600,0.703
54.6000,0.679
54.6400,0.613
54.6800,0.688
54.7200,0.622
54.7600,0.665
54.8000,0.643
54.8400,0.692
54.8800,0.594
54.9200,0.638
54.9600,0.631
55.0000,0.682
55.0400,0.682
55.0800,0.673
55.1200,0.679
55.1600,0.680
55.2000,0.674
55.2400,0.558
55.2800,0.620
55.3200,0.627
55.3600,0.654
55.4000,0.645
55.4400,0.627
55.4800,0.646
55.5200,0.641
55.5600,0.647
55.6000,0.651
55.6400,0.634
55.6800,0.635
55.7200,0.601
55.7600,0.605
55.8000,0.640
55.8400,0.660
55.8800,0.658
55.9200,0.617
55.9600,0.646
56.0000,0.627
56.0400,0.610
56.0800,0.612
56.1200,0.661
56.1600,0.648
56.2000,0.624
56.2400,0.640
56.2800,0.658
56.3200,0.636
56.3600,0.578
56.4000,0.613
56.4400,0.612
56.4800,0.573
56.5200,0.608
56.5600,0.612
56.6000,0.580
56.6400,0.622
56.6800,0.644
56.7200,0.630
56.7600,0.585
56.8000,0.582
56.8400,0.611
56.8800,0.612
56.9200,0.619
56.9600,0.651
57.0000,0.628
57.0400,0.613
57.0800,0.600
57.1200,0.599
57.1600,0.618
57.2000,0.652
57.2400,0.658
57.2800,0.595
57.3200,0.594
57.3600,0.559
57.4000,0.583
57.4400,0.567
57.4800,0.623
57.5200,0.597
57.5600,0.554
57.6000,0.624
57.6400,0.582
57.6800,0.602
57.7200,0.618
57.7600,0.633
57.8000,0.608
57.8400,0.558
57.8800,0.591
57.9200,0.568
57.9600,0.583
58.0000,0.616
58.0400,0.601
58.0800,0.608
58.1200,0.596
58.1600,0.608
58.2000,0.574
58.2400,0.592
58.2800,0.588
58.3200,0.579
58.3600,0.592
58.4000,0.589
58.4400,0.616
58.4800,0.578
58.5200,0.560
58.5600,0.583
58.6000,0.591
58.6400,0.562
58.6800,0.580
58.7200,0.622
58.7600,0.626
58.8000,0.590
58.8400,0.580
58.8800,0.592
58.9200,0.585
58.9600,0.575
59.0000,0.550
59.0400,0.590
59.0800,0.576
59.1200,0.584
59.1600,0.551
59.2000,0.561
59.2400,0.602
59.2800,0.561
59.3200,0.545
59.3600,0.523
59.4000,0.582
59.4400,0.630
59.4800,0.585
59.5200,0.569
59.5600,0.596
59.6000,0.534
59.6400,0.551
59.6800,0.578
59.7200,0.588
59.7600,0.556
59.8000,0.532
59.8400,0.554
59.8800,0.551
59.9200,0.523
59.9600,0.598
60.0000,0.585
60.0400,0.593
60.0800,0.594
60.1200,0.549
60.1600,0.564
60.2000,0.595
60.2400,0.571
60.2800,0.577
60.3200,0.540
60.3600,0.543
60.4000,0.517
60.4400,0.553
60.4800,0.553
60.5200,0.549
60.5600,0.550
60.6000,0.533
60.6400,0.547
60.6800,0.564
60.7200,0.501
60.7600,0.590
60.8000,0.535
60.8400,0.550
60.8800,0.550
60.9200,0.546
60.9600,0.532
61.0000,0.520
61.0400,0.529
61.0800,0.535
61.1200,0.550
61.1600,0.575
61.2000,0.551
61.2400,0.540
61.2800,0.533
61.3200,0.534
61.3600,0.497
61.4000,0.540
61.4400,0.552
61.4800,0.473
61.5200,0.566
61.5600,0.547
61.6000,0.579
61.6400,0.649
61.6800,0.624
61.7200,0.576
61.7600,0.577
61.8000,0.518
61.8400,0.520
61.8800,0.514
61.9200,0.532
61.9600,0.504
62.0000,0.537
62.0400,0.550
62.0800,0.569
62.1200,0.494
62.1600,0.528
62.2000,0.488
62.2400,0.554
62.2800,0.526
62.3200,0.551
62.3600,0.553
62.4000,0.525
62.4400,0.534
62.4800,0.529
62.5200,0.531
62.5600,0.524
62.6000,0.523
62.6400,0.523
62.6800,0.497
62.7200,0.521
62.7600,0.548
62.8000,0.530
62.8400,0.569
62.8800,0.516
62.9200,0.569
62.9600,0.539
63.0000,0.577
63.0400,0.551
63.0800,0.533
63.1200,0.553
63.1600,0.503
63.2000,0.542
63.2400,0.525
63.2800,0.529
63.3200,0.524
63.3600,0.510
63.4000,0.531
63.4400,0.534
63.4800,0.565
63.5200,0.522
63.5600,0.531
63.6000,0.565
63.6400,0.524
63.6800,0.523
63.7200,0.549
63.7600,0.547
63.8000,0.575
63.8400,0.542
63.8800,0.560
63.9200,0.561
63.9600,0.533
64.0000,0.575
64.0400,0.531
64.0800,0.565
64.1200,0.545
64.1600,0.582
64.2000,0.533
64.2400,0.578
64.2800,0.542
64.3200,0.588
64.3600,0.598
64.4000,0.570
64.4400,0.614
64.4800,0.573
64.5200,0.571
64.5600,0.593
64.6000,0.620
64.6400,0.551
64.6800,0.594
64.7200,0.610
64.7600,0.608
64.8000,0.609
64.8400,0.621
64.8800,0.603
64.9200,0.599
64.9600,0.623
65.0000,0.648
65.0400,0.629
65.0800,0.613
65.1200,0.609
65.1600,0.633
65.2000,0.627
65.2400,0.652
65.2800,0.678
65.3200,0.631
65.3600,0.670
65.4000,0.634
65.4400,0.626
65.4800,0.686
65.5200,0.695
65.5600,0.637
65.6000,0.650
65.6400,0.686
65.6800,0.669
65.7200,0.656
65.7600,0.685
65.8000,0.710
65.8400,0.705
65.8800,0.725
65.9200,0.703
65.9600,0.701
66.0000,0.743
66.0400,0.696
66.0800,0.760
66.1200,0.767
66.1600,0.766
66.2000,0.807
66.2400,0.787
66.2800,0.819
66.3200,0.828
66.3600,0.846
66.4000,0.821
66.4400,0.823
66.4800,0.905
66.5200,0.842
66.5600,0.893
66.6000,0.902
66.6400,0.923
66.6800,0.978
66.7200,0.971
66.7600,0.973
66.8000,1.049
66.8400,1.036
66.8800,1.027
66.9200,1.090
66.9600,1.020
67.0000,1.127
67.0400,1.096
67.0800,1.143
67.1200,1.255
67.1600,1.234
67.2000,1.233
67.2400,1.306
67.2800,1.319
67.3200,1.319
67.3600,1.309
67.4000,1.422
67.4400,1.415
67.4800,1.424
67.5200,1.467
67.5600,1.492
67.6000,1.553
67.6400,1.587
67.6800,1.647
67.7200,1.694
67.7600,1.682
67.8000,1.741
67.8400,1.806
67.8800,1.770
67.9200,1.845
67.9600,1.854
68.0000,2.007
68.0400,1.946
68.0800,2.012
68.1200,2.080
68.1600,2.071
68.2000,2.043
68.2400,2.157
68.2800,2.181
68.3200,2.302
68.3600,2.317
68.4000,2.386
68.4400,2.447
68.4800,2.542
68.5200,2.754
68.5600,2.943
68.6000,3.172
68.6400,3.391
68.6800,3.974
68.7200,5.185
68.7600,6.684
68.8000,7.601
68.8400,7.886
68.8800,8.027
68.9200,9.391
68.9600,12.691
69.0000,21.106
69.0400,48.399
69.0800,239.466
69.1200,541.426
69.1600,379.844
69.2000,101.205
69.2400,52.885
69.2800,149.271
69.3200,282.327
69.3600,188.989
69.4000,51.404
69.4400,18.130
69.4800,11.336
69.5200,8.546
69.5600,6.822
69.6000,5.873
69.6400,5.111
69.6800,4.469
69.7200,4.094
69.7600,3.704
69.8000,3.559
69.8400,3.298
69.8800,3.149
69.9200,2.973
69.9600,2.846
70.0000,2.746
70.0400,2.522
70.0800,2.464
70.1200,2.379
70.1600,2.283
70.2000,2.228
70.2400,2.104
70.2800,2.044
70.3200,1.969
70.3600,1.940
70.4000,1.898
70.4400,1.890
70.4800,1.714
70.5200,1.717
70.5600,1.600
70.6000,1.598
70.6400,1.496
70.6800,1.483
70.7200,1.501
70.7600,1.470
70.8000,1.417
70.8400,1.428
70.8800,1.379
70.9200,1.245
70.9600,1.192
71.0000,1.241
71.0400,1.208
71.0800,1.159
71.1200,1.119
71.1600,1.125
71.2000,1.121
71.2400,1.070
71.2800,1.045
71.3200,0.980
71.3600,0.928
71.4000,0.995
71.4400,0.954
71.4800,0.950
71.5200,0.951
71.5600,0.942
71.6000,0.928
71.6400,0.858
71.6800,0.896
71.7200,0.806
71.7600,0.847
71.8000,0.806
71.8400,0.782
71.8800,0.771
71.9200,0.772
71.9600,0.736
72.0000,0.744
72.0400,0.741
72.0800,0.734
72.1200,0.687
72.1600,0.657
72.2000,0.682
72.2400,0.697
72.2800,0.651
72.3200,0.627
72.3600,0.639
72.4000,0.653
72.4400,0.620
72.4800,0.576
72.5200,0.636
72.5600,0.645
72.6000,0.615
72.6400,0.605
72.6800,0.540
72.7200,0.587
72.7600,0.555
72.8000,0.547
72.8400,0.540
72.8800,0.523
72.9200,0.524
72.9600,0.533
73.0000,0.544
73.0400,0.491
73.0800,0.507
73.1200,0.511
73.1600,0.557
73.2000,0.497
73.2400,0.451
73.2800,0.468
73.3200,0.503
73.3600,0.472
73.4000,0.481
73.4400,0.473
73.4800,0.467
73.5200,0.481
73.5600,0.463
73.6000,0.478
73.6400,0.486
73.6800,0.439
73.7200,0.468
73.7600,0.465
73.8000,0.463
73.8400,0.441
73.8800,0.463
73.9200,0.450
73.9600,0.421
74.0000,0.453
74.0400,0.451
74.0800,0.420
74.1200,0.429
74.1600,0.394
74.2000,0.445
74.2400,0.408
74.2800,0.403
74.3200,0.417
74.3600,0.414
74.4000,0.409
74.4400,0.413
74.4800,0.412
74.5200,0.378
74.5600,0.414
74.6000,0.424
74.6400,0.406
74.6800,0.380
74.7200,0.376
74.7600,0.430
74.8000,0.391
74.8400,0.371
74.8800,0.380
74.9200,0.343
74.9600,0.392
75.0000,0.360
75.0400,0.386
75.0800,0.381
75.1200,0.410
75.1600,0.397
75.2000,0.370
75.2400,0.382
75.2800,0.343
75.3200,0.365
75.3600,0.367
75.4000,0.324
75.4400,0.360
75.4800,0.369
75.5200,0.345
75.5600,0.346
75.6000,0.380
75.6400,0.370
75.6800,0.341
75.7200,0.349
75.7600,0.351
75.8000,0.353
75.8400,0.364
75.8800,0.336
75.9200,0.321
75.9600,0.384
76.0000,0.367
76.0400,0.351
76.0800,0.338
76.1200,0.322
76.1600,0.338
76.2000,0.346
76.2400,0.343
76.2800,0.355
76.3200,0.365
76.3600,0.347
76.4000,0.339
76.4400,0.342
76.4800,0.326
76.5200,0.319
76.5600,0.321
76.6000,0.330
76.6400,0.344
76.6800,0.324
76.7200,0.325
76.7600,0.306
76.8000,0.323
76.8400,0.320
76.8800,0.336
76.9200,0.331
76.9600,0.308
77.0000,0.320
77.0400,0.323
77.0800,0.328
77.1200,0.351
77.1600,0.347
77.2000,0.324
77.2400,0.314
77.2800,0.320
77.3200,0.327
77.3600,0.295
77.4000,0.339
77.4400,0.364
77.4800,0.294
77.5200,0.356
77.5600,0.332
77.6000,0.347
77.6400,0.327
77.6800,0.333
77.7200,0.277
77.7600,0.315
77.8000,0.305
77.8400,0.328
77.8800,0.335
77.9200,0.323
77.9600,0.304
78.0000,0.357
78.0400,0.333
78.0800,0.340
78.1200,0.345
78.1600,0.344
78.2000,0.345
78.2400,0.349
78.2800,0.348
78.3200,0.324
78.3600,0.317
78.4000,0.332
78.4400,0.330
78.4800,0.358
78.5200,0.316
78.5600,0.317
78.6000,0.344
78.6400,0.347
78.6800,0.319
78.7200,0.355
78.7600,0.333
78.8000,0.351
78.8400,0.343
78.8800,0.332
78.9200,0.319
78.9600,0.362
79.0000,0.335
79.0400,0.348
79.0800,0.317
79.1200,0.347
79.1600,0.313
79.2000,0.336
79.2400,0.331
79.2800,0.340
79.3200,0.323
79.3600,0.326
79.4000,0.320
79.4400,0.304
79.4800,0.329
79.5200,0.335
79.5600,0.317
79.6000,0.314
79.6400,0.331
79.6800,0.343
79.7200,0.329
79.7600,0.294
79.8000,0.354
79.8400,0.356
79.8800,0.342
79.9200,0.302
79.9600,0.312
80.0000,0.317
