theta,intensity
5.0000,9.598
5.0400,9.681
5.0800,9.491
5.1200,9.172
5.1600,9.223
5.2000,9.321
5.2400,9.143
5.2800,9.083
5.3200,9.143
5.3600,9.057
5.4000,8.951
5.4400,8.966
5.4800,8.955
5.5200,8.902
5.5600,8.637
5.6000,8.525
5.6400,8.660
5.6800,8.682
5.7200,8.602
5.7600,8.435
5.8000,8.303
5.8400,8.284
5.8800,8.154
5.9200,8.225
5.9600,8.013
6.0000,7.940
6.0400,7.960
6.0800,7.671
6.1200,7.658
6.1600,7.582
6.2000,7.368
6.2400,7.192
6.2800,7.128
6.3200,6.993
6.3600,6.899
6.4000,6.911
6.4400,6.916
6.4800,6.736
6.5200,6.704
6.5600,6.749
6.6000,6.490
6.6400,6.529
6.6800,6.303
6.7200,6.346
6.7600,6.211
6.8000,6.089
6.8400,6.177
6.8800,5.942
6.9200,6.090
6.9600,5.948
7.0000,5.990
7.0400,6.048
7.0800,5.810
7.1200,5.872
7.1600,5.871
7.2000,5.658
7.2400,5.733
7.2800,5.621
7.3200,5.564
7.3600,5.490
7.4000,5.541
7.4400,5.500
7.4800,5.407
7.5200,5.470
7.5600,5.316
7.6000,5.283
7.6400,5.177
7.6800,5.313
7.7200,5.179
7.7600,5.185
7.8000,5.117
7.8400,5.026
7.8800,5.120
7.9200,5.056
7.9600,4.868
8.0000,4.980
8.0400,4.942
8.0800,4.905
8.1200,4.917
8.1600,4.668
8.2000,4.734
8.2400,4.785
8.2800,4.664
8.3200,4.733
8.3600,4.718
8.4000,4.731
8.4400,4.667
8.4800,4.568
8.5200,4.654
8.5600,4.577
8.6000,4.456
8.6400,4.586
8.6800,4.385
8.7200,4.528
8.7600,4.432
8.8000,4.442
8.8400,4.353
8.8800,4.296
8.9200,4.392
8.9600,4.338
9.0000,4.236
9.0400,4.209
9.0800,4.325
9.1200,4.295
9.1600,4.215
9.2000,4.237
9.2400,4.193
9.2800,4.221
9.3200,4.155
9.3600,4.198
9.4000,4.084
9.4400,4.181
9.4800,4.031
9.5200,4.170
9.5600,4.131
9.6000,4.137
9.6400,4.104
9.6800,4.034
9.7200,4.021
9.7600,4.005
9.8000,4.000
9.8400,3.951
9.8800,4.019
9.9200,3.903
9.9600,3.984
10.0000,3.936
10.0400,3.951
10.0800,3.883
10.1200,3.833
10.1600,3.910
10.2000,3.866
10.2400,3.905
10.2800,3.998
10.3200,3.915
10.3600,3.789
10.4000,3.766
10.4400,3.744
10.4800,3.781
10.5200,3.735
10.5600,3.729
10.6000,3.826
10.6400,3.780
10.6800,3.718
10.7200,3.765
10.7600,3.690
10.8000,3.558
10.8400,3.691
10.8800,3.684
10.9200,3.682
10.9600,3.586
11.0000,3.622
11.0400,3.620
11.0800,3.565
11.1200,3.659
11.1600,3.743
11.2000,3.633
11.2400,3.512
11.2800,3.574
11.3200,3.572
11.3600,3.567
11.4000,3.572
11.4400,3.633
11.4800,3.599
11.5200,3.421
11.5600,3.493
11.6000,3.520
11.6400,3.572
11.6800,3.557
11.7200,3.504
11.7600,3.510
11.8000,3.503
11.8400,3.520
11.8800,3.526
11.9200,3.519
11.9600,3.472
12.0000,3.340
12.0400,3.554
12.0800,3.460
12.1200,3.501
12.1600,3.510
12.2000,3.469
12.2400,3.510
12.2800,3.456
12.3200,3.466
12.3600,3.480
12.4000,3.483
12.4400,3.373
12.4800,3.287
12.5200,3.479
12.5600,3.453
12.6000,3.496
12.6400,3.453
12.6800,3.443
12.7200,3.393
12.7600,3.414
12.8000,3.442
12.8400,3.349
12.8800,3.430
12.9200,3.387
12.9600,3.310
13.0000,3.462
13.0400,3.350
13.0800,3.315
13.1200,3.374
13.1600,3.337
13.2000,3.301
13.2400,3.333
13.2800,3.409
13.3200,3.386
13.3600,3.312
13.4000,3.433
13.4400,3.400
13.4800,3.313
13.5200,3.233
13.5600,3.259
13.6000,3.353
13.6400,3.368
13.6800,3.264
13.7200,3.210
13.7600,3.281
13.8000,3.307
13.8400,3.286
13.8800,3.264
13.9200,3.276
13.9600,3.279
14.0000,3.213
14.0400,3.289
14.0800,3.200
14.1200,3.228
14.1600,3.224
14.2000,3.132
14.2400,3.298
14.2800,3.380
14.3200,3.204
14.3600,3.076
14.4000,3.198
14.4400,3.270
14.4800,3.315
14.5200,3.198
14.5600,3.127
14.6000,3.218
14.6400,3.244
14.6800,3.114
14.7200,3.196
14.7600,3.198
14.8000,3.196
14.8400,3.138
14.8800,3.180
14.9200,3.196
14.9600,3.243
15.0000,3.081
15.0400,3.140
15.0800,3.257
15.1200,3.149
15.1600,3.192
15.2000,3.179
15.2400,3.251
15.2800,3.178
15.3200,3.179
15.3600,3.137
15.4000,3.038
15.4400,3.101
15.4800,3.115
15.5200,3.048
15.5600,3.082
15.6000,3.198
15.6400,3.167
15.6800,3.179
15.7200,3.135
15.7600,3.118
15.8000,3.128
15.8400,3.078
15.8800,3.101
15.9200,3.156
15.9600,2.998
16.0000,3.061
16.0400,2.991
16.0800,3.066
16.1200,3.106
16.1600,3.084
16.2000,3.015
16.2400,2.998
16.2800,3.116
16.3200,3.077
16.3600,2.950
16.4000,3.111
16.4400,2.996
16.4800,2.996
16.5200,2.984
16.5600,2.948
16.6000,2.930
16.6400,2.991
16.6800,3.084
16.7200,3.025
16.7600,2.950
16.8000,3.004
16.8400,2.981
16.8800,2.999
16.9200,2.999
16.9600,2.984
17.0000,3.013
17.0400,2.978
17.0800,2.947
17.1200,3.027
17.1600,2.940
17.2000,3.006
17.2400,2.856
17.2800,2.863
17.3200,2.912
17.3600,2.896
17.4000,2.919
17.4400,2.878
17.4800,2.902
17.5200,2.901
17.5600,2.942
17.6000,2.977
17.6400,2.796
17.6800,2.854
17.7200,2.890
17.7600,2.887
17.8000,2.840
17.8400,2.951
17.8800,2.874
17.9200,2.822
17.9600,2.876
18.0000,2.878
18.0400,2.909
18.0800,2.794
18.1200,2.807
18.1600,2.933
18.2000,2.905
18.2400,2.827
18.2800,2.924
18.3200,2.835
18.3600,2.906
18.4000,2.834
18.4400,2.787
18.4800,2.814
18.5200,2.886
18.5600,2.899
18.6000,2.813
18.6400,2.865
18.6800,2.774
18.7200,2.810
18.7600,2.800
18.8000,2.744
18.8400,2.735
18.8800,2.793
18.9200,2.851
18.9600,2.709
19.0000,2.809
19.0400,2.796
19.0800,2.816
19.1200,2.809
19.1600,2.801
19.2000,2.798
19.2400,2.848
19.2800,2.711
19.3200,2.778
19.3600,2.725
19.4000,2.685
19.4400,2.815
19.4800,2.787
19.5200,2.812
19.5600,2.747
19.6000,2.732
19.6400,2.741
19.6800,2.828
19.7200,2.623
19.7600,2.602
19.8000,2.692
19.8400,2.654
19.8800,2.693
19.9200,2.679
19.9600,2.599
20.0000,2.662
20.0400,2.670
20.0800,2.645
20.1200,2.651
20.1600,2.681
20.2000,2.692
20.2400,2.705
20.2800,2.734
20.3200,2.688
20.3600,2.620
20.4000,2.669
20.4400,2.596
20.4800,2.646
20.5200,2.662
20.5600,2.677
20.6000,2.588
20.6400,2.608
20.6800,2.696
20.7200,2.666
20.7600,2.587
20.8000,2.575
20.8400,2.510
20.8800,2.597
20.9200,2.648
20.9600,2.635
21.0000,2.611
21.0400,2.598
21.0800,2.540
21.1200,2.647
21.1600,2.596
21.2000,2.558
21.2400,2.606
21.2800,2.602
21.3200,2.559
21.3600,2.602
21.4000,2.639
21.4400,2.630
21.4800,2.573
21.5200,2.550
21.5600,2.618
21.6000,2.572
21.6400,2.504
21.6800,2.509
21.7200,2.525
21.7600,2.636
21.8000,2.502
21.8400,2.485
21.8800,2.551
21.9200,2.468
21.9600,2.482
22.0000,2.530
22.0400,2.591
22.0800,2.472
22.1200,2.548
22.1600,2.517
22.2000,2.473
22.2400,2.505
22.2800,2.487
22.3200,2.560
22.3600,2.479
22.4000,2.439
22.4400,2.402
22.4800,2.487
22.5200,2.457
22.5600,2.449
22.6000,2.438
22.6400,2.506
22.6800,2.465
22.7200,2.498
22.7600,2.463
22.8000,2.403
22.8400,2.416
22.8800,2.465
22.9200,2.426
22.9600,2.405
23.0000,2.380
23.0400,2.495
23.0800,2.359
23.1200,2.427
23.1600,2.482
23.2000,2.492
23.2400,2.436
23.2800,2.452
23.3200,2.412
23.3600,2.500
23.4000,2.452
23.4400,2.434
23.4800,2.355
23.5200,2.388
23.5600,2.292
23.6000,2.384
23.6400,2.346
23.6800,2.414
23.7200,2.459
23.7600,2.374
23.8000,2.350
23.8400,2.247
23.8800,2.379
23.9200,2.415
23.9600,2.393
24.0000,2.290
24.0400,2.331
24.0800,2.309
24.1200,2.305
24.1600,2.306
24.2000,2.440
24.2400,2.354
24.2800,2.330
24.3200,2.487
24.3600,2.321
24.4000,2.283
24.4400,2.306
24.4800,2.348
24.5200,2.286
24.5600,2.300
24.6000,2.276
24.6400,2.233
24.6800,2.263
24.7200,2.328
24.7600,2.236
24.8000,2.318
24.8400,2.321
24.8800,2.250
24.9200,2.247
24.9600,2.219
25.0000,2.232
25.0400,2.201
25.0800,2.175
25.1200,2.197
25.1600,2.273
25.2000,2.293
25.2400,2.191
25.2800,2.265
25.3200,2.207
25.3600,2.209
25.4000,2.202
25.4400,2.224
25.4800,2.190
25.5200,2.161
25.5600,2.206
25.6000,2.270
25.6400,2.218
25.6800,2.223
25.7200,2.271
25.7600,2.253
25.8000,2.179
25.8400,2.240
25.8800,2.249
25.9200,2.157
25.9600,2.240
26.0000,2.143
26.0400,2.238
26.0800,2.146
26.1200,2.164
26.1600,2.157
26.2000,2.151
26.2400,2.184
26.2800,2.124
26.3200,2.197
26.3600,2.182
26.4000,2.165
26.4400,2.202
26.4800,2.156
26.5200,2.182
26.5600,2.150
26.6000,2.148
26.6400,2.205
26.6800,2.120
26.7200,2.098
26.7600,2.111
26.8000,2.162
26.8400,2.079
26.8800,2.216
26.9200,2.223
26.9600,2.135
27.0000,2.127
27.0400,2.177
27.0800,2.247
27.1200,2.177
27.1600,2.158
27.2000,2.158
27.2400,2.137
27.2800,2.120
27.3200,2.159
27.3600,2.167
27.4000,2.049
27.4400,2.110
27.4800,2.051
27.5200,2.108
27.5600,2.041
27.6000,2.113
27.6400,2.038
27.6800,2.036
27.7200,2.091
27.7600,2.081
27.8000,2.088
27.8400,2.102
27.8800,2.074
27.9200,2.063
27.9600,1.995
28.0000,2.033
28.0400,2.040
28.0800,2.208
28.1200,2.085
28.1600,2.108
28.2000,2.113
28.2400,2.063
28.2800,2.163
28.3200,2.015
28.3600,2.066
28.4000,2.023
28.4400,2.076
28.4800,2.014
28.5200,1.965
28.5600,1.979
28.6000,1.985
28.6400,2.008
28.6800,2.047
28.7200,1.957
28.7600,2.113
28.8000,2.004
28.8400,1.988
28.8800,2.016
28.9200,2.013
28.9600,1.887
29.0000,1.982
29.0400,1.995
29.0800,1.976
29.1200,1.908
29.1600,1.933
29.2000,2.018
29.2400,1.984
29.2800,1.905
29.3200,1.929
29.3600,1.957
29.4000,1.948
29.4400,1.940
29.4800,1.894
29.5200,1.939
29.5600,2.028
29.6000,1.927
29.6400,1.844
29.6800,1.946
29.7200,1.910
29.7600,1.924
29.8000,1.919
29.8400,1.955
29.8800,1.905
29.9200,1.907
29.9600,1.953
30.0000,1.916
30.0400,1.897
30.0800,1.969
30.1200,1.931
30.1600,1.893
30.2000,1.855
30.2400,1.886
30.2800,1.843
30.3200,1.788
30.3600,1.913
30.4000,1.912
30.4400,1.902
30.4800,1.888
30.5200,1.948
30.5600,1.848
30.6000,1.888
30.6400,1.981
30.6800,1.802
30.7200,1.865
30.7600,1.823
30.8000,1.818
30.8400,1.848
30.8800,1.849
30.9200,1.819
30.9600,1.848
31.0000,1.831
31.0400,1.792
31.0800,1.848
31.1200,1.811
31.1600,1.859
31.2000,1.804
31.2400,1.810
31.2800,1.828
31.3200,1.894
31.3600,1.798
31.4000,1.897
31.4400,1.923
31.4800,1.830
31.5200,1.884
31.5600,1.929
31.6000,1.989
31.6400,1.879
31.6800,1.972
31.7200,2.057
31.7600,1.915
31.8000,1.906
31.8400,1.890
31.8800,1.890
31.9200,1.852
31.9600,1.851
32.0000,1.851
32.0400,1.844
32.0800,1.772
32.1200,1.851
32.1600,1.757
32.2000,1.741
32.2400,1.810
32.2800,1.789
32.3200,1.747
32.3600,1.754
32.4000,1.767
32.4400,1.770
32.4800,1.753
32.5200,1.715
32.5600,1.692
32.6000,1.723
32.6400,1.731
32.6800,1.709
32.7200,1.758
32.7600,1.728
32.8000,1.754
32.8400,1.696
32.8800,1.643
32.9200,1.688
32.9600,1.635
33.0000,1.770
33.0400,1.683
33.0800,1.716
33.1200,1.701
33.1600,1.620
33.2000,1.685
33.2400,1.606
33.2800,1.569
33.3200,1.643
33.3600,1.723
33.4000,1.689
33.4400,1.626
33.4800,1.671
33.5200,1.549
33.5600,1.610
33.6000,1.683
33.6400,1.667
33.6800,1.690
33.7200,1.558
33.7600,1.652
33.8000,1.636
33.8400,1.592
33.8800,1.630
33.9200,1.699
33.9600,1.708
34.0000,1.710
34.0400,1.648
34.0800,1.736
34.1200,1.666
34.1600,1.715
34.2000,1.813
34.2400,1.682
34.2800,1.777
34.3200,1.786
34.3600,1.747
34.4000,1.759
34.4400,1.775
34.4800,1.705
34.5200,1.613
34.5600,1.609
34.6000,1.648
34.6400,1.718
34.6800,1.543
34.7200,1.556
34.7600,1.539
34.8000,1.522
34.8400,1.515
34.8800,1.607
34.9200,1.560
34.9600,1.492
35.0000,1.558
35.0400,1.552
35.0800,1.511
35.1200,1.529
35.1600,1.552
35.2000,1.508
35.2400,1.582
35.2800,1.454
35.3200,1.541
35.3600,1.580
35.4000,1.505
35.4400,1.538
35.4800,1.514
35.5200,1.578
35.5600,1.538
35.6000,1.507
35.6400,1.483
35.6800,1.502
35.7200,1.495
35.7600,1.541
35.8000,1.477
35.8400,1.594
35.8800,1.482
35.9200,1.544
35.9600,1.455
36.0000,1.487
36.0400,1.452
36.0800,1.530
36.1200,1.400
36.1600,1.513
36.2000,1.438
36.2400,1.517
36.2800,1.449
36.3200,1.506
36.3600,1.474
36.4000,1.454
36.4400,1.539
36.4800,1.500
36.5200,1.518
36.5600,1.465
36.6000,1.465
36.6400,1.546
36.6800,1.500
36.7200,1.585
36.7600,1.673
36.8000,1.569
36.8400,1.714
36.8800,1.737
36.9200,1.785
36.9600,1.651
37.0000,1.686
37.0400,1.673
37.0800,1.561
37.1200,1.591
37.1600,1.644
37.2000,1.489
37.2400,1.492
37.2800,1.553
37.3200,1.558
37.3600,1.480
37.4000,1.446
37.4400,1.502
37.4800,1.495
37.5200,1.491
37.5600,1.487
37.6000,1.543
37.6400,1.588
37.6800,1.565
37.7200,1.616
37.7600,1.642
37.8000,1.639
37.8400,1.776
37.8800,1.896
37.9200,1.961
37.9600,2.018
38.0000,2.252
38.0400,2.342
38.0800,2.627
38.1200,2.660
38.1600,2.611
38.2000,2.523
38.2400,2.339
38.2800,2.279
38.3200,2.019
38.3600,1.882
38.4000,1.901
38.4400,1.755
38.4800,1.691
38.5200,1.730
38.5600,1.685
38.6000,1.691
38.6400,1.729
38.6800,1.723
38.7200,1.812
38.7600,1.876
38.8000,1.936
38.8400,2.023
38.8800,2.175
38.9200,2.154
38.9600,2.079
39.0000,2.109
39.0400,2.134
39.0800,2.100
39.1200,2.159
39.1600,2.262
39.2000,2.387
39.2400,2.571
39.2800,2.797
39.3200,3.172
39.3600,3.461
39.4000,3.638
39.4400,3.572
39.4800,3.649
39.5200,3.709
39.5600,3.641
39.6000,3.644
39.6400,3.541
39.6800,3.662
39.7200,3.685
39.7600,3.713
39.8000,3.566
39.8400,3.346
39.8800,3.064
39.9200,2.773
39.9600,2.593
40.0000,2.344
40.0400,2.145
40.0800,1.947
40.1200,1.928
40.1600,1.856
40.2000,1.798
40.2400,1.684
40.2800,1.653
40.3200,1.632
40.3600,1.606
40.4000,1.513
40.4400,1.645
40.4800,1.611
40.5200,1.596
40.5600,1.593
40.6000,1.601
40.6400,1.562
40.6800,1.616
40.7200,1.622
40.7600,1.681
40.8000,1.657
40.8400,1.665
40.8800,1.775
40.9200,1.751
40.9600,1.824
41.0000,1.866
41.0400,1.770
41.0800,1.778
41.1200,1.604
41.1600,1.697
41.2000,1.655
41.2400,1.566
41.2800,1.572
41.3200,1.556
41.3600,1.456
41.4000,1.400
41.4400,1.418
41.4800,1.425
41.5200,1.470
41.5600,1.529
41.6000,1.467
41.6400,1.526
41.6800,1.657
41.7200,1.749
41.7600,1.756
41.8000,1.916
41.8400,2.145
41.8800,2.271
41.9200,2.266
41.9600,2.286
42.0000,2.194
42.0400,2.106
42.0800,1.900
42.1200,1.722
42.1600,1.634
42.2000,1.630
42.2400,1.451
42.2800,1.433
42.3200,1.329
42.3600,1.367
42.4000,1.373
42.4400,1.318
42.4800,1.389
42.5200,1.429
42.5600,1.527
42.6000,1.548
42.6400,1.549
42.6800,1.474
42.7200,1.468
42.7600,1.436
42.8000,1.339
42.8400,1.333
42.8800,1.265
42.9200,1.255
42.9600,1.313
43.0000,1.178
43.0400,1.166
43.0800,1.168
43.1200,1.176
43.1600,1.167
43.2000,1.130
43.2400,1.095
43.2800,1.068
43.3200,1.125
43.3600,1.081
43.4000,1.042
43.4400,1.095
43.4800,1.088
43.5200,1.064
43.5600,1.027
43.6000,1.054
43.6400,1.037
43.6800,1.077
43.7200,1.101
43.7600,1.057
43.8000,1.073
43.8400,1.053
43.8800,1.017
43.9200,1.068
43.9600,0.992
44.0000,1.031
44.0400,1.076
44.0800,1.041
44.1200,1.009
44.1600,1.058
44.2000,1.031
44.2400,1.034
44.2800,0.990
44.3200,1.027
44.3600,1.051
44.4000,1.075
44.4400,1.033
44.4800,0.987
44.5200,1.019
44.5600,1.045
44.6000,1.049
44.6400,0.985
44.6800,1.043
44.7200,0.997
44.7600,0.995
44.8000,1.027
44.8400,1.034
44.8800,0.984
44.9200,1.011
44.9600,0.998
45.0000,0.971
45.0400,1.057
45.0800,1.025
45.1200,0.974
45.1600,0.984
45.2000,0.989
45.2400,1.000
45.2800,0.970
45.3200,0.982
45.3600,0.976
45.4000,0.961
45.4400,0.949
45.4800,0.930
45.5200,0.947
45.5600,0.890
45.6000,0.998
45.6400,0.955
45.6800,0.989
45.7200,0.968
45.7600,0.941
45.8000,0.926
45.8400,0.953
45.8800,1.004
45.9200,0.976
45.9600,0.929
46.0000,0.985
46.0400,0.903
46.0800,0.950
46.1200,0.902
46.1600,0.997
46.2000,0.994
46.2400,1.052
46.2800,1.022
46.3200,1.036
46.3600,1.107
46.4000,1.118
46.4400,1.198
46.4800,1.194
46.5200,1.195
46.5600,1.211
46.6000,1.310
46.6400,1.253
46.6800,1.193
46.7200,1.129
46.7600,1.130
46.8000,1.078
46.8400,1.026
46.8800,0.990
46.9200,0.942
46.9600,0.945
47.0000,0.971
47.0400,0.991
47.0800,0.946
47.1200,0.903
47.1600,0.950
47.2000,0.920
47.2400,0.918
47.2800,0.915
47.3200,0.942
47.3600,0.853
47.4000,0.919
47.4400,0.906
47.4800,0.831
47.5200,0.896
47.5600,0.884
47.6000,0.878
47.6400,0.890
47.6800,0.914
47.7200,0.872
47.7600,0.862
47.8000,0.874
47.8400,0.900
47.8800,0.916
47.9200,0.886
47.9600,0.934
48.0000,0.835
48.0400,0.823
48.0800,0.842
48.1200,0.821
48.1600,0.835
48.2000,0.883
48.2400,0.810
48.2800,0.854
48.3200,0.842
48.3600,0.809
48.4000,0.875
48.4400,0.829
48.4800,0.826
48.5200,0.880
48.5600,0.870
48.6000,0.800
48.6400,0.797
48.6800,0.829
48.7200,0.816
48.7600,0.849
48.8000,0.838
48.8400,0.825
48.8800,0.792
48.9200,0.834
48.9600,0.862
49.0000,0.829
49.0400,0.813
49.0800,0.861
49.1200,0.849
49.1600,0.781
49.2000,0.824
49.2400,0.860
49.2800,0.836
49.3200,0.839
49.3600,0.853
49.4000,0.837
49.4400,0.798
49.4800,0.816
49.5200,0.832
49.5600,0.821
49.6000,0.816
49.6400,0.845
49.6800,0.780
49.7200,0.780
49.7600,0.827
49.8000,0.781
49.8400,0.833
49.8800,0.803
49.9200,0.845
49.9600,0.772
50.0000,0.773
50.0400,0.814
50.0800,0.795
50.1200,0.811
50.1600,0.797
50.2000,0.772
50.2400,0.812
50.2800,0.847
50.3200,0.796
50.3600,0.743
50.4000,0.735
50.4400,0.822
50.4800,0.772
50.5200,0.781
50.5600,0.808
50.6000,0.773
50.6400,0.833
50.6800,0.730
50.7200,0.773
50.7600,0.795
50.8000,0.758
50.8400,0.793
50.8800,0.784
50.9200,0.775
50.9600,0.832
51.0000,0.785
51.0400,0.803
51.0800,0.748
51.1200,0.811
51.1600,0.763
51.2000,0.799
51.2400,0.839
51.2800,0.845
51.3200,0.829
51.3600,0.885
51.4000,0.843
51.4400,0.855
51.4800,0.849
51.5200,0.859
51.5600,0.795
51.6000,0.847
51.6400,0.754
51.6800,0.771
51.7200,0.798
51.7600,0.809
51.8000,0.822
51.8400,0.806
51.8800,0.764
51.9200,0.805
51.9600,0.861
52.0000,0.758
52.0400,0.766
52.0800,0.788
52.1200,0.741
52.1600,0.768
52.2000,0.726
52.2400,0.747
52.2800,0.755
52.3200,0.756
52.3600,0.806
52.4000,0.766
52.4400,0.802
52.4800,0.752
52.5200,0.805
52.5600,0.757
52.6000,0.819
52.6400,0.758
52.6800,0.747
52.7200,0.794
52.7600,0.760
52.8000,0.744
52.8400,0.760
52.8800,0.725
52.9200,0.780
52.9600,0.790
53.0000,0.765
53.0400,0.727
53.0800,0.737
53.1200,0.688
53.1600,0.723
53.2000,0.705
53.2400,0.796
53.2800,0.705
53.3200,0.753
53.3600,0.771
53.4000,0.740
53.4400,0.788
53.4800,0.786
53.5200,0.765
53.5600,0.798
53.6000,0.816
53.6400,0.764
53.6800,0.791
53.7200,0.770
53.7600,0.787
53.8000,0.769
53.8400,0.766
53.8800,0.759
53.9200,0.741
53.9600,0.703
54.0000,0.755
54.0400,0.745
54.0800,0.743
54.1200,0.679
54.1600,0.679
54.2000,0.688
54.2400,0.739
54.2800,0.698
54.3200,0.709
54.3600,0.720
54.4000,0.692
54.4400,0.712
54.4800,0.676
54.5200,0.697
54.5600,0.693
54.6000,0.715
54.6400,0.669
54.6800,0.717
54.7200,0.697
54.7600,0.717
54.8000,0.727
54.8400,0.657
54.8800,0.661
54.9200,0.686
54.9600,0.700
55.0000,0.623
55.0400,0.691
55.0800,0.699
55.1200,0.633
55.1600,0.650
55.2000,0.664
55.2400,0.672
55.2800,0.686
55.3200,0.684
55.3600,0.660
55.4000,0.686
55.4400,0.646
55.4800,0.759
55.5200,0.666
55.5600,0.705
55.6000,0.670
55.6400,0.707
55.6800,0.654
55.7200,0.761
55.7600,0.750
55.8000,0.702
55.8400,0.749
55.8800,0.741
55.9200,0.713
55.9600,0.746
56.0000,0.781
56.0400,0.743
56.0800,0.716
56.1200,0.727
56.1600,0.705
56.2000,0.723
56.2400,0.651
56.2800,0.633
56.3200,0.689
56.3600,0.687
56.4000,0.706
56.4400,0.622
56.4800,0.703
56.5200,0.657
56.5600,0.670
56.6000,0.646
56.6400,0.636
56.6800,0.667
56.7200,0.691
56.7600,0.687
56.8000,0.703
56.8400,0.677
56.8800,0.678
56.9200,0.715
56.9600,0.696
57.0000,0.699
57.0400,0.726
57.0800,0.767
57.1200,0.773
57.1600,0.672
57.2000,0.721
57.2400,0.700
57.2800,0.712
57.3200,0.733
57.3600,0.705
57.4000,0.670
57.4400,0.666
57.4800,0.716
57.5200,0.658
57.5600,0.636
57.6000,0.668
57.6400,0.680
57.6800,0.660
57.7200,0.683
57.7600,0.646
57.8000,0.688
57.8400,0.674
57.8800,0.662
57.9200,0.688
57.9600,0.646
58.0000,0.682
58.0400,0.705
58.0800,0.773
58.1200,0.723
58.1600,0.785
58.2000,0.790
58.2400,0.776
58.2800,0.799
58.3200,0.793
58.3600,0.808
58.4000,0.848
58.4400,0.805
58.4800,0.868
58.5200,0.828
58.5600,0.839
58.6000,0.824
58.6400,0.804
58.6800,0.778
58.7200,0.806
58.7600,0.737
58.8000,0.729
58.8400,0.690
58.8800,0.676
58.9200,0.659
58.9600,0.661
59.0000,0.668
59.0400,0.643
59.0800,0.690
59.1200,0.631
59.1600,0.663
59.2000,0.642
59.2400,0.612
59.2800,0.632
59.3200,0.628
59.3600,0.679
59.4000,0.597
59.4400,0.639
59.4800,0.635
59.5200,0.597
59.5600,0.621
59.6000,0.619
59.6400,0.602
59.6800,0.600
59.7200,0.622
59.7600,0.577
59.8000,0.561
59.8400,0.587
59.8800,0.602
59.9200,0.599
59.9600,0.594
60.0000,0.582
60.0400,0.598
60.0800,0.561
60.1200,0.581
60.1600,0.599
60.2000,0.569
60.2400,0.621
60.2800,0.584
60.3200,0.589
60.3600,0.552
60.4000,0.547
60.4400,0.560
60.4800,0.589
60.5200,0.588
60.5600,0.583
60.6000,0.571
60.6400,0.579
60.6800,0.551
60.7200,0.564
60.7600,0.556
60.8000,0.547
60.8400,0.596
60.8800,0.577
60.9200,0.539
60.9600,0.535
61.0000,0.558
61.0400,0.569
61.0800,0.569
61.1200,0.554
61.1600,0.566
61.2000,0.528
61.2400,0.586
61.2800,0.545
61.3200,0.538
61.3600,0.594
61.4000,0.516
61.4400,0.566
61.4800,0.564
61.5200,0.504
61.5600,0.540
61.6000,0.575
61.6400,0.635
61.6800,0.620
61.7200,0.535
61.7600,0.540
61.8000,0.569
61.8400,0.551
61.8800,0.548
61.9200,0.562
61.9600,0.562
62.0000,0.514
62.0400,0.523
62.0800,0.498
62.1200,0.531
62.1600,0.536
62.2000,0.534
62.2400,0.540
62.2800,0.534
62.3200,0.490
62.3600,0.549
62.4000,0.509
62.4400,0.517
62.4800,0.531
62.5200,0.532
62.5600,0.580
62.6000,0.551
62.6400,0.546
62.6800,0.591
62.7200,0.550
62.7600,0.518
62.8000,0.568
62.8400,0.553
62.8800,0.503
62.9200,0.537
62.9600,0.549
63.0000,0.520
63.0400,0.573
63.0800,0.532
63.1200,0.540
63.1600,0.586
63.2000,0.568
63.2400,0.546
63.2800,0.503
63.3200,0.565
63.3600,0.618
63.4000,0.547
63.4400,0.580
63.4800,0.553
63.5200,0.560
63.5600,0.614
63.6000,0.551
63.6400,0.608
63.6800,0.576
63.7200,0.598
63.7600,0.582
63.8000,0.589
63.8400,0.579
63.8800,0.588
63.9200,0.635
63.9600,0.616
64.0000,0.597
64.0400,0.590
64.0800,0.554
64.1200,0.619
64.1600,0.590
64.2000,0.622
64.2400,0.631
64.2800,0.643
64.3200,0.680
64.3600,0.750
64.4000,0.746
64.4400,0.725
64.4800,0.733
64.5200,0.705
64.5600,0.702
64.6000,0.658
64.6400,0.692
64.6800,0.695
64.7200,0.653
64.7600,0.649
64.8000,0.651
64.8400,0.658
64.8800,0.667
64.9200,0.607
64.9600,0.603
65.0000,0.605
65.0400,0.617
65.0800,0.687
65.1200,0.637
65.1600,0.632
65.2000,0.614
65.2400,0.617
65.2800,0.575
65.3200,0.582
65.3600,0.640
65.4000,0.669
65.4400,0.657
65.4800,0.649
65.5200,0.615
65.5600,0.667
65.6000,0.665
65.6400,0.714
65.6800,0.681
65.7200,0.710
65.7600,0.662
65.8000,0.653
65.8400,0.642
65.8800,0.713
65.9200,0.690
65.9600,0.714
66.0000,0.746
66.0400,0.787
66.0800,0.746
66.1200,0.740
66.1600,0.790
66.2000,0.745
66.2400,0.765
66.2800,0.748
66.3200,0.790
66.3600,0.785
66.4000,0.767
66.4400,0.830
66.4800,0.782
66.5200,0.834
66.5600,0.851
66.6000,0.869
66.6400,0.831
66.6800,0.861
66.7200,0.873
66.7600,0.874
66.8000,0.884
66.8400,0.927
66.8800,0.975
66.9200,0.967
66.9600,0.980
67.0000,0.971
67.0400,1.013
67.0800,0.986
67.1200,1.026
67.1600,0.995
67.2000,1.123
67.2400,1.146
67.2800,1.107
67.3200,1.152
67.3600,1.191
67.4000,1.168
67.4400,1.220
67.4800,1.239
67.5200,1.171
67.5600,1.254
67.6000,1.289
67.6400,1.336
67.6800,1.319
67.7200,1.369
67.7600,1.366
67.8000,1.326
67.8400,1.409
67.8800,1.503
67.9200,1.463
67.9600,1.528
68.0000,1.504
68.0400,1.627
68.0800,1.696
68.1200,1.705
68.1600,1.756
68.2000,1.794
68.2400,1.886
68.2800,1.891
68.3200,1.976
68.3600,2.088
68.4000,2.093
68.4400,2.271
68.4800,2.395
68.5200,2.502
68.5600,2.535
68.6000,2.946
68.6400,3.114
68.6800,3.442
68.7200,4.413
68.7600,5.698
68.8000,6.764
68.8400,6.983
68.8800,7.133
68.9200,8.110
68.9600,10.206
69.0000,16.102
69.0400,32.348
69.0800,144.541
69.1200,448.628
69.1600,409.027
69.2000,126.132
69.2400,45.192
69.2800,97.498
69.3200,239.621
69.3600,205.198
69.4000,63.599
69.4400,19.476
69.4800,11.004
69.5200,8.229
69.5600,6.758
69.6000,5.540
69.6400,4.809
69.6800,4.258
69.7200,3.811
69.7600,3.392
69.8000,3.268
69.8400,3.047
69.8800,2.890
69.9200,2.789
69.9600,2.644
70.0000,2.478
70.0400,2.453
70.0800,2.430
70.1200,2.306
70.1600,2.218
70.2000,2.163
70.2400,2.061
70.2800,1.967
70.3200,1.927
70.3600,1.881
70.4000,1.808
70.4400,1.747
70.4800,1.708
70.5200,1.679
70.5600,1.575
70.6000,1.617
70.6400,1.513
70.6800,1.476
70.7200,1.392
70.7600,1.311
70.8000,1.357
70.8400,1.299
70.8800,1.238
70.9200,1.150
70.9600,1.205
71.0000,1.205
71.0400,1.191
71.0800,1.106
71.1200,1.114
71.1600,1.068
71.2000,1.081
71.2400,1.028
71.2800,0.987
71.3200,1.015
71.3600,0.995
71.4000,0.913
71.4400,0.931
71.4800,0.936
71.5200,0.915
71.5600,0.933
71.6000,0.886
71.6400,0.814
71.6800,0.829
71.7200,0.884
71.7600,0.848
71.8000,0.865
71.8400,0.865
71.8800,0.806
71.9200,0.875
71.9600,0.806
72.0000,0.851
72.0400,0.831
72.0800,0.804
72.1200,0.822
72.1600,0.742
72.2000,0.756
72.2400,0.795
72.2800,0.790
72.3200,0.748
72.3600,0.707
72.4000,0.683
72.4400,0.707
72.4800,0.646
72.5200,0.666
72.5600,0.635
72.6000,0.671
72.6400,0.621
72.6800,0.627
72.7200,0.651
72.7600,0.584
72.8000,0.563
72.8400,0.587
72.8800,0.548
72.9200,0.519
72.9600,0.582
73.0000,0.561
73.0400,0.555
73.0800,0.552
73.1200,0.547
73.1600,0.502
73.2000,0.549
73.2400,0.513
73.2800,0.523
73.3200,0.540
73.3600,0.555
73.4000,0.524
73.4400,0.502
73.4800,0.531
73.5200,0.514
73.5600,0.584
73.6000,0.533
73.6400,0.559
73.6800,0.551
73.7200,0.545
73.7600,0.521
73.8000,0.566
73.8400,0.527
73.8800,0.601
73.9200,0.524
73.9600,0.582
74.0000,0.558
74.0400,0.588
74.0800,0.567
74.1200,0.595
74.1600,0.568
74.2000,0.559
74.2400,0.550
74.2800,0.492
74.3200,0.573
74.3600,0.563
74.4000,0.600
74.4400,0.560
74.4800,0.593
74.5200,0.595
74.5600,0.557
74.6000,0.552
74.6400,0.568
74.6800,0.593
74.7200,0.600
74.7600,0.587
74.8000,0.595
74.8400,0.599
74.8800,0.597
74.9200,0.561
74.9600,0.584
75.0000,0.581
75.0400,0.590
75.0800,0.567
75.1200,0.544
75.1600,0.549
75.2000,0.554
75.2400,0.495
75.2800,0.549
75.3200,0.502
75.3600,0.503
75.4000,0.489
75.4400,0.477
75.4800,0.501
75.5200,0.499
75.5600,0.452
75.6000,0.437
75.6400,0.439
75.6800,0.460
75.7200,0.461
75.7600,0.444
75.8000,0.459
75.8400,0.437
75.8800,0.473
75.9200,0.441
75.9600,0.416
76.0000,0.419
76.0400,0.411
76.0800,0.424
76.1200,0.417
76.1600,0.397
76.2000,0.400
76.2400,0.381
76.2800,0.406
76.3200,0.359
76.3600,0.420
76.4000,0.405
76.4400,0.378
76.4800,0.341
76.5200,0.339
76.5600,0.350
76.6000,0.372
76.6400,0.347
76.6800,0.356
76.7200,0.388
76.7600,0.378
76.8000,0.354
76.8400,0.354
76.8800,0.391
76.9200,0.384
76.9600,0.342
77.0000,0.372
77.0400,0.365
77.0800,0.364
77.1200,0.377
77.1600,0.371
77.2000,0.363
77.2400,0.374
77.2800,0.360
77.3200,0.333
77.3600,0.355
77.4000,0.359
77.4400,0.354
77.4800,0.338
77.5200,0.339
77.5600,0.326
77.6000,0.379
77.6400,0.355
77.6800,0.353
77.7200,0.373
77.7600,0.324
77.8000,0.354
77.8400,0.347
77.8800,0.306
77.9200,0.355
77.9600,0.344
78.0000,0.322
78.0400,0.321
78.0800,0.338
78.1200,0.314
78.1600,0.361
78.2000,0.305
78.2400,0.357
78.2800,0.333
78.3200,0.305
78.3600,0.358
78.4000,0.331
78.4400,0.312
78.4800,0.335
78.5200,0.331
78.5600,0.307
78.6000,0.308
78.6400,0.304
78.6800,0.318
78.7200,0.315
78.7600,0.304
78.8000,0.313
78.8400,0.329
78.8800,0.296
78.9200,0.321
78.9600,0.304
79.0000,0.304
79.0400,0.305
79.0800,0.329
79.1200,0.308
79.1600,0.315
79.2000,0.309
79.2400,0.309
79.2800,0.301
79.3200,0.356
79.3600,0.313
79.4000,0.309
79.4400,0.326
79.4800,0.317
79.5200,0.323
79.5600,0.313
79.6000,0.315
79.6400,0.302
79.6800,0.303
79.7200,0.331
79.7600,0.290
79.8000,0.322
79.8400,0.321
79.8800,0.307
79.9200,0.315
79.9600,0.326
80.0000,0.318
