theta,intensity
5.0000,11.788
5.0400,11.616
5.0800,11.657
5.1200,11.517
5.1600,11.443
5.2000,11.337
5.2400,11.252
5.2800,11.252
5.3200,11.204
5.3600,11.011
5.4000,11.098
5.4400,10.819
5.4800,10.801
5.5200,10.742
5.5600,10.588
5.6000,10.483
5.6400,10.493
5.6800,10.308
5.7200,10.144
5.7600,10.066
5.8000,10.041
5.8400,10.110
5.8800,9.979
5.9200,9.638
5.9600,9.612
6.0000,9.535
6.0400,9.363
6.0800,9.184
6.1200,9.281
6.1600,9.140
6.2000,9.031
6.2400,9.008
6.2800,8.596
6.3200,8.379
6.3600,8.504
6.4000,8.430
6.4400,8.341
6.4800,8.278
6.5200,8.061
6.5600,8.087
6.6000,7.863
6.6400,7.874
6.6800,7.866
6.7200,7.743
6.7600,7.673
6.8000,7.582
6.8400,7.558
6.8800,7.361
6.9200,7.435
6.9600,7.263
7.0000,7.160
7.0400,7.219
7.0800,7.124
7.1200,6.986
7.1600,6.873
7.2000,6.754
7.2400,6.946
7.2800,6.799
7.3200,6.756
7.3600,6.665
7.4000,6.588
7.4400,6.574
7.4800,6.434
7.5200,6.605
7.5600,6.353
7.6000,6.253
7.6400,6.123
7.6800,6.162
7.7200,6.095
7.7600,5.998
7.8000,5.850
7.8400,5.953
7.8800,5.928
7.9200,5.905
7.9600,5.916
8.0000,5.790
8.0400,5.733
8.0800,5.622
8.1200,5.533
8.1600,5.495
8.2000,5.559
8.2400,5.486
8.2800,5.484
8.3200,5.493
8.3600,5.328
8.4000,5.372
8.4400,5.334
8.4800,5.268
8.5200,5.200
8.5600,5.165
8.6000,5.173
8.6400,5.021
8.6800,4.988
8.7200,5.052
8.7600,4.962
8.8000,5.016
8.8400,5.015
8.8800,4.997
8.9200,4.920
8.9600,4.907
9.0000,4.820
9.0400,4.703
9.0800,4.897
9.1200,4.647
9.1600,4.693
9.2000,4.687
9.2400,4.686
9.2800,4.650
9.3200,4.675
9.3600,4.555
9.4000,4.497
9.4400,4.607
9.4800,4.581
9.5200,4.403
9.5600,4.470
9.6000,4.482
9.6400,4.432
9.6800,4.367
9.7200,4.277
9.7600,4.361
9.8000,4.301
9.8400,4.348
9.8800,4.397
9.9200,4.335
9.9600,4.349
10.0000,4.320
10.0400,4.219
10.0800,4.182
10.1200,4.272
10.1600,4.119
10.2000,4.231
10.2400,4.101
10.2800,4.189
10.3200,4.079
10.3600,4.021
10.4000,3.992
10.4400,3.989
10.4800,3.994
10.5200,3.998
10.5600,3.949
10.6000,3.958
10.6400,3.958
10.6800,3.947
10.7200,3.932
10.7600,3.921
10.8000,3.911
10.8400,3.861
10.8800,3.883
10.9200,3.946
10.9600,3.852
11.0000,3.791
11.0400,3.876
11.0800,3.817
11.1200,3.785
11.1600,3.714
11.2000,3.762
11.2400,3.895
11.2800,3.724
11.3200,3.698
11.3600,3.743
11.4000,3.705
11.4400,3.743
11.4800,3.775
11.5200,3.744
11.5600,3.535
11.6000,3.563
11.6400,3.689
11.6800,3.658
11.7200,3.632
11.7600,3.544
11.8000,3.560
11.8400,3.578
11.8800,3.595
11.9200,3.420
11.9600,3.543
12.0000,3.621
12.0400,3.552
12.0800,3.693
12.1200,3.613
12.1600,3.465
12.2000,3.479
12.2400,3.479
12.2800,3.393
12.3200,3.524
12.3600,3.533
12.4000,3.561
12.4400,3.431
12.4800,3.359
12.5200,3.424
12.5600,3.524
12.6000,3.418
12.6400,3.408
12.6800,3.386
12.7200,3.399
12.7600,3.415
12.8000,3.441
12.8400,3.416
12.8800,3.445
12.9200,3.488
12.9600,3.456
13.0000,3.351
13.0400,3.408
13.0800,3.370
13.1200,3.367
13.1600,3.445
13.2000,3.315
13.2400,3.454
13.2800,3.365
13.3200,3.247
13.3600,3.309
13.4000,3.425
13.4400,3.362
13.4800,3.398
13.5200,3.403
13.5600,3.318
13.6000,3.343
13.6400,3.364
13.6800,3.373
13.7200,3.293
13.7600,3.284
13.8000,3.297
13.8400,3.395
13.8800,3.306
13.9200,3.234
13.9600,3.351
14.0000,3.330
14.0400,3.380
14.0800,3.202
14.1200,3.214
14.1600,3.292
14.2000,3.256
14.2400,3.255
14.2800,3.322
14.3200,3.272
14.3600,3.267
14.4000,3.265
14.4400,3.222
14.4800,3.269
14.5200,3.220
14.5600,3.287
14.6000,3.165
14.6400,3.248
14.6800,3.231
14.7200,3.161
14.7600,3.190
14.8000,3.164
14.8400,3.161
14.8800,3.165
14.9200,3.195
14.9600,3.184
15.0000,3.214
15.0400,3.127
15.0800,3.146
15.1200,3.209
15.1600,3.202
15.2000,3.135
15.2400,3.194
15.2800,3.210
15.3200,3.200
15.3600,3.222
15.4000,3.214
15.4400,3.152
15.4800,3.137
15.5200,3.105
15.5600,3.117
15.6000,3.108
15.6400,3.045
15.6800,3.075
15.7200,3.126
15.7600,3.066
15.8000,2.980
15.8400,3.093
15.8800,3.125
15.9200,3.169
15.9600,2.974
16.0000,3.048
16.0400,3.147
16.0800,3.072
16.1200,3.090
16.1600,3.136
16.2000,3.107
16.2400,3.051
16.2800,3.120
16.3200,3.047
16.3600,3.031
16.4000,3.063
16.4400,3.050
16.4800,3.034
16.5200,3.085
16.5600,3.075
16.6000,2.928
16.6400,2.915
16.6800,2.976
16.7200,3.010
16.7600,2.990
16.8000,3.025
16.8400,2.950
16.8800,2.924
16.9200,2.860
16.9600,3.054
17.0000,2.981
17.0400,2.966
17.0800,2.987
17.1200,2.950
17.1600,2.937
17.2000,2.926
17.2400,2.983
17.2800,2.972
17.3200,2.958
17.3600,2.931
17.4000,2.848
17.4400,2.902
17.4800,2.911
17.5200,2.949
17.5600,3.073
17.6000,2.843
17.6400,2.950
17.6800,2.947
17.7200,2.990
17.7600,2.969
17.8000,3.004
17.8400,2.958
17.8800,2.990
17.9200,2.965
17.9600,2.979
18.0000,2.948
18.0400,3.000
18.0800,2.972
18.1200,3.015
18.1600,3.055
18.2000,3.303
18.2400,3.293
18.2800,3.291
18.3200,3.286
18.3600,3.169
18.4000,2.983
18.4400,2.911
18.4800,2.874
18.5200,2.739
18.5600,2.898
18.6000,2.813
18.6400,2.789
18.6800,2.771
18.7200,2.905
18.7600,2.761
18.8000,2.868
18.8400,2.895
18.8800,2.825
18.9200,2.874
18.9600,2.821
19.0000,2.820
19.0400,2.723
19.0800,2.804
19.1200,2.743
19.1600,2.798
19.2000,2.806
19.2400,2.736
19.2800,2.794
19.3200,2.855
19.3600,2.734
19.4000,2.711
19.4400,2.746
19.4800,2.780
19.5200,2.694
19.5600,2.724
19.6000,2.735
19.6400,2.814
19.6800,2.731
19.7200,2.702
19.7600,2.701
19.8000,2.638
19.8400,2.641
19.8800,2.690
19.9200,2.722
19.9600,2.701
20.0000,2.697
20.0400,2.679
20.0800,2.728
20.1200,2.627
20.1600,2.687
20.2000,2.607
20.2400,2.728
20.2800,2.658
20.3200,2.606
20.3600,2.722
20.4000,2.696
20.4400,2.688
20.4800,2.624
20.5200,2.636
20.5600,2.630
20.6000,2.633
20.6400,2.690
20.6800,2.583
20.7200,2.647
20.7600,2.660
20.8000,2.536
20.8400,2.623
20.8800,2.648
20.9200,2.629
20.9600,2.570
21.0000,2.672
21.0400,2.598
21.0800,2.507
21.1200,2.637
21.1600,2.526
21.2000,2.635
21.2400,2.573
21.2800,2.567
21.3200,2.599
21.3600,2.509
21.4000,2.562
21.4400,2.520
21.4800,2.602
21.5200,2.480
21.5600,2.555
21.6000,2.556
21.6400,2.625
21.6800,2.519
21.7200,2.598
21.7600,2.596
21.8000,2.527
21.8400,2.589
21.8800,2.592
21.9200,2.576
21.9600,2.528
22.0000,2.558
22.0400,2.557
22.0800,2.496
22.1200,2.433
22.1600,2.519
22.2000,2.637
22.2400,2.542
22.2800,2.512
22.3200,2.530
22.3600,2.538
22.4000,2.511
22.4400,2.594
22.4800,2.538
22.5200,2.446
22.5600,2.482
22.6000,2.454
22.6400,2.422
22.6800,2.440
22.7200,2.502
22.7600,2.489
22.8000,2.478
22.8400,2.402
22.8800,2.506
22.9200,2.388
22.9600,2.454
23.0000,2.493
23.0400,2.440
23.0800,2.461
23.1200,2.447
23.1600,2.430
23.2000,2.387
23.2400,2.399
23.2800,2.392
23.3200,2.423
23.3600,2.496
23.4000,2.444
23.4400,2.388
23.4800,2.477
23.5200,2.508
23.5600,2.539
23.6000,2.393
23.6400,2.438
23.6800,2.433
23.7200,2.505
23.7600,2.426
23.8000,2.433
23.8400,2.464
23.8800,2.483
23.9200,2.528
23.9600,2.432
24.0000,2.496
24.0400,2.438
24.0800,2.468
24.1200,2.483
24.1600,2.387
24.2000,2.433
24.2400,2.466
24.2800,2.445
24.3200,2.486
24.3600,2.384
24.4000,2.464
24.4400,2.396
24.4800,2.432
24.5200,2.381
24.5600,2.380
24.6000,2.455
24.6400,2.384
24.6800,2.273
24.7200,2.345
24.7600,2.325
24.8000,2.355
24.8400,2.255
24.8800,2.298
24.9200,2.286
24.9600,2.278
25.0000,2.326
25.0400,2.362
25.0800,2.309
25.1200,2.337
25.1600,2.279
25.2000,2.219
25.2400,2.343
25.2800,2.258
25.3200,2.273
25.3600,2.174
25.4000,2.290
25.4400,2.223
25.4800,2.294
25.5200,2.227
25.5600,2.233
25.6000,2.221
25.6400,2.212
25.6800,2.244
25.7200,2.270
25.7600,2.222
25.8000,2.230
25.8400,2.181
25.8800,2.270
25.9200,2.155
25.9600,2.227
26.0000,2.206
26.0400,2.261
26.0800,2.171
26.1200,2.215
26.1600,2.180
26.2000,2.135
26.2400,2.132
26.2800,2.209
26.3200,2.204
26.3600,2.175
26.4000,2.188
26.4400,2.190
26.4800,2.389
26.5200,2.474
26.5600,2.607
26.6000,2.614
26.6400,2.600
26.6800,2.343
26.7200,2.238
26.7600,2.179
26.8000,2.173
26.8400,2.160
26.8800,2.092
26.9200,2.103
26.9600,2.212
27.0000,2.165
27.0400,2.111
27.0800,2.044
27.1200,2.173
27.1600,2.163
27.2000,2.152
27.2400,2.145
27.2800,2.110
27.3200,2.136
27.3600,2.118
27.4000,2.182
27.4400,2.064
27.4800,2.156
27.5200,2.085
27.5600,2.056
27.6000,2.067
27.6400,2.056
27.6800,2.023
27.7200,2.087
27.7600,2.118
27.8000,2.141
27.8400,2.052
27.8800,2.131
27.9200,2.142
27.9600,2.049
28.0000,2.080
28.0400,2.107
28.0800,2.077
28.1200,2.009
28.1600,2.035
28.2000,2.089
28.2400,2.019
28.2800,1.998
28.3200,2.096
28.3600,2.058
28.4000,2.089
28.4400,2.090
28.4800,2.114
28.5200,2.110
28.5600,2.158
28.6000,2.072
28.6400,2.111
28.6800,2.178
28.7200,2.142
28.7600,2.125
28.8000,2.238
28.8400,2.349
28.8800,2.266
28.9200,2.270
28.9600,2.314
29.0000,2.413
29.0400,2.463
29.0800,2.653
29.1200,2.659
29.1600,2.705
29.2000,2.852
29.2400,2.889
29.2800,3.015
29.3200,3.232
29.3600,3.225
29.4000,3.382
29.4400,3.425
29.4800,3.584
29.5200,3.664
29.5600,3.875
29.6000,4.097
29.6400,4.327
29.6800,4.760
29.7200,5.118
29.7600,5.929
29.8000,6.639
29.8400,7.023
29.8800,6.762
29.9200,5.891
29.9600,4.957
30.0000,4.098
30.0400,3.320
30.0800,2.933
30.1200,2.713
30.1600,2.549
30.2000,2.411
30.2400,2.228
30.2800,2.258
30.3200,2.162
30.3600,2.030
30.4000,2.114
30.4400,2.046
30.4800,2.081
30.5200,2.132
30.5600,2.680
30.6000,4.135
30.6400,4.778
30.6800,4.199
30.7200,3.404
30.7600,2.481
30.8000,1.952
30.8400,1.962
30.8800,1.908
30.9200,1.899
30.9600,1.741
31.0000,1.817
31.0400,1.856
31.0800,1.888
31.1200,1.826
31.1600,1.823
31.2000,1.811
31.2400,1.802
31.2800,1.784
31.3200,1.769
31.3600,1.844
31.4000,1.879
31.4400,1.937
31.4800,1.940
31.5200,1.825
31.5600,1.834
31.6000,1.856
31.6400,1.836
31.6800,1.887
31.7200,1.815
31.7600,1.866
31.8000,1.793
31.8400,1.773
31.8800,1.806
31.9200,2.043
31.9600,2.633
32.0000,3.072
32.0400,2.721
32.0800,2.519
32.1200,2.057
32.1600,1.908
32.2000,1.732
32.2400,1.667
32.2800,1.760
32.3200,1.813
32.3600,1.780
32.4000,1.706
32.4400,1.688
32.4800,1.723
32.5200,1.816
32.5600,1.760
32.6000,1.791
32.6400,1.771
32.6800,1.732
32.7200,1.798
32.7600,1.749
32.8000,1.731
32.8400,1.809
32.8800,1.799
32.9200,1.778
32.9600,1.775
33.0000,1.788
33.0400,1.893
33.0800,1.943
33.1200,1.963
33.1600,2.101
33.2000,2.294
33.2400,2.813
33.2800,3.146
33.3200,3.087
33.3600,2.937
33.4000,2.566
33.4400,2.216
33.4800,2.041
33.5200,1.951
33.5600,1.853
33.6000,1.829
33.6400,1.827
33.6800,1.836
33.7200,1.788
33.7600,1.838
33.8000,1.892
33.8400,1.943
33.8800,2.071
33.9200,1.990
33.9600,1.902
34.0000,1.871
34.0400,1.779
34.0800,1.721
34.1200,1.635
34.1600,1.766
34.2000,1.702
34.2400,1.645
34.2800,1.538
34.3200,1.656
34.3600,1.656
34.4000,1.592
34.4400,1.608
34.4800,1.542
34.5200,1.547
34.5600,1.603
34.6000,1.581
34.6400,1.505
34.6800,1.521
34.7200,1.554
34.7600,1.504
34.8000,1.523
34.8400,1.475
34.8800,1.453
34.9200,1.528
34.9600,1.479
35.0000,1.491
35.0400,1.486
35.0800,1.533
35.1200,1.578
35.1600,1.502
35.2000,1.482
35.2400,1.508
35.2800,1.435
35.3200,1.425
35.3600,1.504
35.4000,1.536
35.4400,1.541
35.4800,1.533
35.5200,1.511
35.5600,1.508
35.6000,1.503
35.6400,1.540
35.6800,1.566
35.7200,1.583
35.7600,1.613
35.8000,1.658
35.8400,1.644
35.8800,1.677
35.9200,1.604
35.9600,1.659
36.0000,1.602
36.0400,1.571
36.0800,1.522
36.1200,1.551
36.1600,1.581
36.2000,1.571
36.2400,1.562
36.2800,1.512
36.3200,1.573
36.3600,1.586
36.4000,1.514
36.4400,1.576
36.4800,1.536
36.5200,1.535
36.5600,1.574
36.6000,1.554
36.6400,1.545
36.6800,1.508
36.7200,1.519
36.7600,1.607
36.8000,1.614
36.8400,1.587
36.8800,1.602
36.9200,1.545
36.9600,1.657
37.0000,1.738
37.0400,1.777
37.0800,1.789
37.1200,1.836
37.1600,1.752
37.2000,1.743
37.2400,1.657
37.2800,1.553
37.3200,1.478
37.3600,1.509
37.4000,1.491
37.4400,1.368
37.4800,1.462
37.5200,1.385
37.5600,1.370
37.6000,1.360
37.6400,1.378
37.6800,1.354
37.7200,1.307
37.7600,1.439
37.8000,1.403
37.8400,1.406
37.8800,1.337
37.9200,1.344
37.9600,1.319
38.0000,1.367
38.0400,1.373
38.0800,1.344
38.1200,1.312
38.1600,1.303
38.2000,1.312
38.2400,1.324
38.2800,1.221
38.3200,1.309
38.3600,1.368
38.4000,1.314
38.4400,1.323
38.4800,1.284
38.5200,1.310
38.5600,1.283
38.6000,1.235
38.6400,1.255
38.6800,1.261
38.7200,1.265
38.7600,1.248
38.8000,1.226
38.8400,1.237
38.8800,1.280
38.9200,1.213
38.9600,1.204
39.0000,1.283
39.0400,1.228
39.0800,1.283
39.1200,1.264
39.1600,1.227
39.2000,1.210
39.2400,1.177
39.2800,1.215
39.3200,1.236
39.3600,1.213
39.4000,1.199
39.4400,1.248
39.4800,1.188
39.5200,1.209
39.5600,1.191
39.6000,1.171
39.6400,1.148
39.6800,1.221
39.7200,1.193
39.7600,1.189
39.8000,1.239
39.8400,1.233
39.8800,1.200
39.9200,1.227
39.9600,1.206
40.0000,1.178
40.0400,1.226
40.0800,1.190
40.1200,1.104
40.1600,1.154
40.2000,1.207
40.2400,1.213
40.2800,1.165
40.3200,1.207
40.3600,1.195
40.4000,1.150
40.4400,1.179
40.4800,1.183
40.5200,1.223
40.5600,1.180
40.6000,1.196
40.6400,1.191
40.6800,1.126
40.7200,1.152
40.7600,1.158
40.8000,1.127
40.8400,1.167
40.8800,1.144
40.9200,1.180
40.9600,1.151
41.0000,1.146
41.0400,1.128
41.0800,1.176
41.1200,1.133
41.1600,1.115
41.2000,1.107
41.2400,1.183
41.2800,1.133
41.3200,1.112
41.3600,1.086
41.4000,1.079
41.4400,1.151
41.4800,1.113
41.5200,1.165
41.5600,1.107
41.6000,1.131
41.6400,1.126
41.6800,1.158
41.7200,1.103
41.7600,1.068
41.8000,1.153
41.8400,1.102
41.8800,1.163
41.9200,1.129
41.9600,1.074
42.0000,1.083
42.0400,1.097
42.0800,1.112
42.1200,1.078
42.1600,1.047
42.2000,1.140
42.2400,1.095
42.2800,1.126
42.3200,1.106
42.3600,1.121
42.4000,1.093
42.4400,1.114
42.4800,1.097
42.5200,1.089
42.5600,1.117
42.6000,1.136
42.6400,1.071
42.6800,1.048
42.7200,1.050
42.7600,1.080
42.8000,1.056
42.8400,1.021
42.8800,1.079
42.9200,1.036
42.9600,1.077
43.0000,1.096
43.0400,1.060
43.0800,1.057
43.1200,1.057
43.1600,1.069
43.2000,1.058
43.2400,0.970
43.2800,1.042
43.3200,1.008
43.3600,1.039
43.4000,1.028
43.4400,1.054
43.4800,1.019
43.5200,0.967
43.5600,1.031
43.6000,1.070
43.6400,1.013
43.6800,1.051
43.7200,1.044
43.7600,1.060
43.8000,1.117
43.8400,1.234
43.8800,1.251
43.9200,1.121
43.9600,1.194
44.0000,1.144
44.0400,1.015
44.0800,0.987
44.1200,1.010
44.1600,0.977
44.2000,0.981
44.2400,1.020
44.2800,1.001
44.3200,0.975
44.3600,1.007
44.4000,1.094
44.4400,1.037
44.4800,1.049
44.5200,1.018
44.5600,0.954
44.6000,1.010
44.6400,0.996
44.6800,0.993
44.7200,0.977
44.7600,1.026
44.8000,1.024
44.8400,1.461
44.8800,2.002
44.9200,1.798
44.9600,1.492
45.0000,1.576
45.0400,1.391
45.0800,1.088
45.1200,1.005
45.1600,0.962
45.2000,0.951
45.2400,0.943
45.2800,0.979
45.3200,0.979
45.3600,0.949
45.4000,0.970
45.4400,0.908
45.4800,0.957
45.5200,0.955
45.5600,0.976
45.6000,0.950
45.6400,0.922
45.6800,0.930
45.7200,0.927
45.7600,0.913
45.8000,0.940
45.8400,0.908
45.8800,0.968
45.9200,0.981
45.9600,0.920
46.0000,0.951
46.0400,0.917
46.0800,0.862
46.1200,0.880
46.1600,0.933
46.2000,0.931
46.2400,0.968
46.2800,0.900
46.3200,0.880
46.3600,0.886
46.4000,0.951
46.4400,0.929
46.4800,0.946
46.5200,0.923
46.5600,0.925
46.6000,0.889
46.6400,0.908
46.6800,0.889
46.7200,0.890
46.7600,0.876
46.8000,0.949
46.8400,0.931
46.8800,0.915
46.9200,0.943
46.9600,0.896
47.0000,0.931
47.0400,0.962
47.0800,0.916
47.1200,0.920
47.1600,0.997
47.2000,0.930
47.2400,0.914
47.2800,0.966
47.3200,0.967
47.3600,0.963
47.4000,1.005
47.4400,0.995
47.4800,0.997
47.5200,0.980
47.5600,1.018
47.6000,1.045
47.6400,1.086
47.6800,1.150
47.7200,1.170
47.7600,1.127
47.8000,1.162
47.8400,1.114
47.8800,1.102
47.9200,1.136
47.9600,1.060
48.0000,1.025
48.0400,1.010
48.0800,0.970
48.1200,0.960
48.1600,0.961
48.2000,0.952
48.2400,0.942
48.2800,0.927
48.3200,0.889
48.3600,0.902
48.4000,0.909
48.4400,0.895
48.4800,0.889
48.5200,0.839
48.5600,0.944
48.6000,0.827
48.6400,0.854
48.6800,0.836
48.7200,0.893
48.7600,0.869
48.8000,0.881
48.8400,0.807
48.8800,0.844
48.9200,0.844
48.9600,0.888
49.0000,0.833
49.0400,0.844
49.0800,0.847
49.1200,0.836
49.1600,0.830
49.2000,0.829
49.2400,0.843
49.2800,0.869
49.3200,0.814
49.3600,0.873
49.4000,0.854
49.4400,0.841
49.4800,0.826
49.5200,0.881
49.5600,0.832
49.6000,0.854
49.6400,0.838
49.6800,0.874
49.7200,0.841
49.7600,0.848
49.8000,0.850
49.8400,0.835
49.8800,0.877
49.9200,0.867
49.9600,0.822
50.0000,0.865
50.0400,0.848
50.0800,0.871
50.1200,0.912
50.1600,0.879
50.2000,0.913
50.2400,0.946
50.2800,0.907
50.3200,0.931
50.3600,1.019
50.4000,0.995
50.4400,1.009
50.4800,1.067
50.5200,1.116
50.5600,1.183
50.6000,1.279
50.6400,1.368
50.6800,1.453
50.7200,1.490
50.7600,1.442
50.8000,1.308
50.8400,1.215
50.8800,1.174
50.9200,1.098
50.9600,1.032
51.0000,0.976
51.0400,0.950
51.0800,0.930
51.1200,0.866
51.1600,0.852
51.2000,0.911
51.2400,0.887
51.2800,0.875
51.3200,0.828
51.3600,0.893
51.4000,0.853
51.4400,0.886
51.4800,0.844
51.5200,0.921
51.5600,0.880
51.6000,0.842
51.6400,0.834
51.6800,0.899
51.7200,0.926
51.7600,0.886
51.8000,0.892
51.8400,0.894
51.8800,0.923
51.9200,0.913
51.9600,0.810
52.0000,0.821
52.0400,0.870
52.0800,0.818
52.1200,0.787
52.1600,0.856
52.2000,0.837
52.2400,0.782
52.2800,0.827
52.3200,0.773
52.3600,0.807
52.4000,0.741
52.4400,0.826
52.4800,0.791
52.5200,0.755
52.5600,0.742
52.6000,0.751
52.6400,0.780
52.6800,0.759
52.7200,0.778
52.7600,0.733
52.8000,0.715
52.8400,0.755
52.8800,0.762
52.9200,0.796
52.9600,0.756
53.0000,0.767
53.0400,0.829
53.0800,0.749
53.1200,0.774
53.1600,0.750
53.2000,0.729
53.2400,0.723
53.2800,0.754
53.3200,0.779
53.3600,0.736
53.4000,0.734
53.4400,0.751
53.4800,0.728
53.5200,0.716
53.5600,0.732
53.6000,0.751
53.6400,0.753
53.6800,0.732
53.7200,0.731
53.7600,0.706
53.8000,0.710
53.8400,0.742
53.8800,0.684
53.9200,0.674
53.9600,0.707
54.0000,0.739
54.0400,0.755
54.0800,0.751
54.1200,0.717
54.1600,0.716
54.2000,0.711
54.2400,0.710
54.2800,0.726
54.3200,0.716
54.3600,0.684
54.4000,0.708
54.4400,0.713
54.4800,0.671
54.5200,0.710
54.5600,0.733
54.6000,0.752
54.6400,0.638
54.6800,0.669
54.7200,0.685
54.7600,0.724
54.8000,0.709
54.8400,0.698
54.8800,0.687
54.9200,0.702
54.9600,0.700
55.0000,0.662
55.0400,0.683
55.0800,0.676
55.1200,0.717
55.1600,0.678
55.2000,0.668
55.2400,0.714
55.2800,0.784
55.3200,0.796
55.3600,0.802
55.4000,0.714
55.4400,0.724
55.4800,0.742
55.5200,0.728
55.5600,0.658
55.6000,0.668
55.6400,0.681
55.6800,0.642
55.7200,0.664
55.7600,0.634
55.8000,0.660
55.8400,0.620
55.8800,0.628
55.9200,0.638
55.9600,0.651
56.0000,0.621
56.0400,0.712
56.0800,0.706
56.1200,0.696
56.1600,0.704
56.2000,0.699
56.2400,0.654
56.2800,0.635
56.3200,0.647
56.3600,0.676
56.4000,0.681
56.4400,0.706
56.4800,0.692
56.5200,0.708
56.5600,0.668
56.6000,0.664
56.6400,0.693
56.6800,0.670
56.7200,0.663
56.7600,0.652
56.8000,0.679
56.8400,0.703
56.8800,0.711
56.9200,0.727
56.9600,0.677
57.0000,0.763
57.0400,0.753
57.0800,0.757
57.1200,0.784
57.1600,0.806
57.2000,0.855
57.2400,0.943
57.2800,0.930
57.3200,1.082
57.3600,1.105
57.4000,1.061
57.4400,1.095
57.4800,1.025
57.5200,1.040
57.5600,0.956
57.6000,0.915
57.6400,0.871
57.6800,0.880
57.7200,0.775
57.7600,0.725
57.8000,0.751
57.8400,0.786
57.8800,0.731
57.9200,0.738
57.9600,0.735
58.0000,0.681
58.0400,0.678
58.0800,0.683
58.1200,0.732
58.1600,0.683
58.2000,0.627
58.2400,0.686
58.2800,0.671
58.3200,0.709
58.3600,0.636
58.4000,0.653
58.4400,0.647
58.4800,0.639
58.5200,0.672
58.5600,0.611
58.6000,0.633
58.6400,0.672
58.6800,0.624
58.7200,0.632
58.7600,0.616
58.8000,0.610
58.8400,0.648
58.8800,0.554
58.9200,0.592
58.9600,0.584
59.0000,0.631
59.0400,0.652
59.0800,0.602
59.1200,0.579
59.1600,0.579
59.2000,0.598
59.2400,0.583
59.2800,0.555
59.3200,0.568
59.3600,0.560
59.4000,0.643
59.4400,0.690
59.4800,0.624
59.5200,0.610
59.5600,0.579
59.6000,0.570
59.6400,0.597
59.6800,0.583
59.7200,0.602
59.7600,0.572
59.8000,0.559
59.8400,0.567
59.8800,0.572
59.9200,0.583
59.9600,0.552
60.0000,0.579
60.0400,0.599
60.0800,0.629
60.1200,0.581
60.1600,0.608
60.2000,0.583
60.2400,0.556
60.2800,0.594
60.3200,0.581
60.3600,0.592
60.4000,0.599
60.4400,0.583
60.4800,0.597
60.5200,0.592
60.5600,0.652
60.6000,0.617
60.6400,0.585
60.6800,0.575
60.7200,0.570
60.7600,0.562
60.8000,0.547
60.8400,0.576
60.8800,0.594
60.9200,0.588
60.9600,0.578
61.0000,0.617
61.0400,0.587
61.0800,0.628
61.1200,0.596
61.1600,0.608
61.2000,0.638
61.2400,0.610
61.2800,0.597
61.3200,0.615
61.3600,0.621
61.4000,0.621
61.4400,0.658
61.4800,0.620
61.5200,0.645
61.5600,0.660
61.6000,0.707
61.6400,0.733
61.6800,0.719
61.7200,0.697
61.7600,0.663
61.8000,0.719
61.8400,0.665
61.8800,0.732
61.9200,0.722
61.9600,0.738
62.0000,0.778
62.0400,0.747
62.0800,0.725
62.1200,0.724
62.1600,0.788
62.2000,0.701
62.2400,0.764
62.2800,0.759
62.3200,0.746
62.3600,0.747
62.4000,0.785
62.4400,0.846
62.4800,1.108
62.5200,1.299
62.5600,0.888
62.6000,0.803
62.6400,0.859
62.6800,0.929
62.7200,0.778
62.7600,0.654
62.8000,0.617
62.8400,0.631
62.8800,0.617
62.9200,0.588
62.9600,0.613
63.0000,0.625
63.0400,0.613
63.0800,0.588
63.1200,0.563
63.1600,0.581
63.2000,0.555
63.2400,0.535
63.2800,0.580
63.3200,0.584
63.3600,0.615
63.4000,0.588
63.4400,0.621
63.4800,0.613
63.5200,0.584
63.5600,0.541
63.6000,0.563
63.6400,0.555
63.6800,0.623
63.7200,0.566
63.7600,0.643
63.8000,0.673
63.8400,0.589
63.8800,0.620
63.9200,0.602
63.9600,0.615
64.0000,0.630
64.0400,0.555
64.0800,0.605
64.1200,0.575
64.1600,0.546
64.2000,0.586
64.2400,0.594
64.2800,0.595
64.3200,0.548
64.3600,0.563
64.4000,0.551
64.4400,0.585
64.4800,0.550
64.5200,0.620
64.5600,0.680
64.6000,0.673
64.6400,0.635
64.6800,0.617
64.7200,0.672
64.7600,0.683
64.8000,0.642
64.8400,0.617
64.8800,0.586
64.9200,0.632
64.9600,0.605
65.0000,0.630
65.0400,0.659
65.0800,0.584
65.1200,0.593
65.1600,0.615
65.2000,0.616
65.2400,0.614
65.2800,0.637
65.3200,0.658
65.3600,0.610
65.4000,0.632
65.4400,0.623
65.4800,0.668
65.5200,0.696
65.5600,0.673
65.6000,0.610
65.6400,0.666
65.6800,0.689
65.7200,0.660
65.7600,0.655
65.8000,0.673
65.8400,0.725
65.8800,0.675
65.9200,0.678
65.9600,0.684
66.0000,0.676
66.0400,0.725
66.0800,0.740
66.1200,0.708
66.1600,0.713
66.2000,0.758
66.2400,0.772
66.2800,0.786
66.3200,0.763
66.3600,0.813
66.4000,0.788
66.4400,0.784
66.4800,0.833
66.5200,0.852
66.5600,0.799
66.6000,0.873
66.6400,0.875
66.6800,0.863
66.7200,0.838
66.7600,0.906
66.8000,0.889
66.8400,0.890
66.8800,0.942
66.9200,0.945
66.9600,0.934
67.0000,0.952
67.0400,0.982
67.0800,1.008
67.1200,1.032
67.1600,1.082
67.2000,1.040
67.2400,1.105
67.2800,1.150
67.3200,1.118
67.3600,1.149
67.4000,1.161
67.4400,1.215
67.4800,1.257
67.5200,1.275
67.5600,1.299
67.6000,1.348
67.6400,1.333
67.6800,1.356
67.7200,1.324
67.7600,1.484
67.8000,1.415
67.8400,1.424
67.8800,1.502
67.9200,1.518
67.9600,1.557
68.0000,1.633
68.0400,1.717
68.0800,1.712
68.1200,1.811
68.1600,1.803
68.2000,1.850
68.2400,1.931
68.2800,1.929
68.3200,2.134
68.3600,2.142
68.4000,2.265
68.4400,2.407
68.4800,2.511
68.5200,2.616
68.5600,2.688
68.6000,2.997
68.6400,3.317
68.6800,3.954
68.7200,5.125
68.7600,6.503
68.8000,7.286
68.8400,7.528
68.8800,7.782
68.9200,8.877
68.9600,12.692
69.0000,21.572
69.0400,54.696
69.0800,279.550
69.1200,531.990
69.1600,320.814
69.2000,79.728
69.2400,53.324
69.2800,165.728
69.3200,275.638
69.3600,158.392
69.4000,40.622
69.4400,15.769
69.4800,10.339
69.5200,7.788
69.5600,6.269
69.6000,5.578
69.6400,4.656
69.6800,4.195
69.7200,3.873
69.7600,3.510
69.8000,3.378
69.8400,3.072
69.8800,2.915
69.9200,2.769
69.9600,2.707
70.0000,2.537
70.0400,2.447
70.0800,2.366
70.1200,2.377
70.1600,2.210
70.2000,2.232
70.2400,2.135
70.2800,1.980
70.3200,1.944
70.3600,1.864
70.4000,1.791
70.4400,1.696
70.4800,1.680
70.5200,1.693
70.5600,1.584
70.6000,1.574
70.6400,1.456
70.6800,1.387
70.7200,1.407
70.7600,1.452
70.8000,1.310
70.8400,1.388
70.8800,1.267
70.9200,1.314
70.9600,1.221
71.0000,1.215
71.0400,1.218
71.0800,1.107
71.1200,1.089
71.1600,1.063
71.2000,1.087
71.2400,1.026
71.2800,1.039
71.3200,1.000
71.3600,1.010
71.4000,0.944
71.4400,0.931
71.4800,0.877
71.5200,0.901
71.5600,0.854
71.6000,0.928
71.6400,0.819
71.6800,0.827
71.7200,0.821
71.7600,0.819
71.8000,0.761
71.8400,0.768
71.8800,0.710
71.9200,0.703
71.9600,0.698
72.0000,0.764
72.0400,0.699
72.0800,0.698
72.1200,0.721
72.1600,0.693
72.2000,0.617
72.2400,0.649
72.2800,0.667
72.3200,0.651
72.3600,0.716
72.4000,0.730
72.4400,0.642
72.4800,0.586
72.5200,0.602
72.5600,0.570
72.6000,0.615
72.6400,0.656
72.6800,0.620
72.7200,0.533
72.7600,0.554
72.8000,0.563
72.8400,0.522
72.8800,0.540
72.9200,0.578
72.9600,0.498
73.0000,0.558
73.0400,0.516
73.0800,0.525
73.1200,0.519
73.1600,0.547
73.2000,0.501
73.2400,0.562
73.2800,0.519
73.3200,0.520
73.3600,0.544
73.4000,0.526
73.4400,0.486
73.4800,0.482
73.5200,0.463
73.5600,0.462
73.6000,0.471
73.6400,0.446
73.6800,0.443
73.7200,0.469
73.7600,0.476
73.8000,0.467
73.8400,0.449
73.8800,0.477
73.9200,0.434
73.9600,0.433
74.0000,0.426
74.0400,0.439
74.0800,0.408
74.1200,0.409
74.1600,0.392
74.2000,0.417
74.2400,0.389
74.2800,0.389
74.3200,0.417
74.3600,0.411
74.4000,0.414
74.4400,0.454
74.4800,0.412
74.5200,0.432
74.5600,0.405
74.6000,0.405
74.6400,0.403
74.6800,0.394
74.7200,0.391
74.7600,0.382
74.8000,0.405
74.8400,0.388
74.8800,0.415
74.9200,0.380
74.9600,0.415
75.0000,0.384
75.0400,0.396
75.0800,0.388
75.1200,0.386
75.1600,0.378
75.2000,0.343
75.2400,0.378
75.2800,0.386
75.3200,0.347
75.3600,0.364
75.4000,0.377
75.4400,0.352
75.4800,0.386
75.5200,0.366
75.5600,0.374
75.6000,0.363
75.6400,0.375
75.6800,0.362
75.7200,0.353
75.7600,0.387
75.8000,0.347
75.8400,0.371
75.8800,0.367
75.9200,0.366
75.9600,0.354
76.0000,0.354
76.0400,0.356
76.0800,0.365
76.1200,0.367
76.1600,0.366
76.2000,0.324
76.2400,0.367
76.2800,0.366
76.3200,0.349
76.3600,0.353
76.4000,0.334
76.4400,0.340
76.4800,0.368
76.5200,0.324
76.5600,0.338
76.6000,0.334
76.6400,0.347
76.6800,0.372
76.7200,0.344
76.7600,0.345
76.8000,0.327
76.8400,0.328
76.8800,0.325
76.9200,0.329
76.9600,0.339
77.0000,0.343
77.0400,0.343
77.0800,0.345
77.1200,0.313
77.1600,0.328
77.2000,0.367
77.2400,0.327
77.2800,0.359
77.3200,0.335
77.3600,0.349
77.4000,0.329
77.4400,0.354
77.4800,0.319
77.5200,0.343
77.5600,0.344
77.6000,0.341
77.6400,0.349
77.6800,0.370
77.7200,0.353
77.7600,0.352
77.8000,0.342
77.8400,0.374
77.8800,0.337
77.9200,0.395
77.9600,0.385
78.0000,0.379
78.0400,0.340
78.0800,0.360
78.1200,0.346
78.1600,0.341
78.2000,0.306
78.2400,0.360
78.2800,0.336
78.3200,0.332
78.3600,0.328
78.4000,0.327
78.4400,0.345
78.4800,0.352
78.5200,0.341
78.5600,0.336
78.6000,0.342
78.6400,0.305
78.6800,0.325
78.7200,0.325
78.7600,0.325
78.8000,0.332
78.8400,0.334
78.8800,0.307
78.9200,0.362
78.9600,0.343
79.0000,0.314
79.0400,0.369
79.0800,0.337
79.1200,0.330
79.1600,0.343
79.2000,0.326
79.2400,0.309
79.2800,0.334
79.3200,0.307
79.3600,0.327
79.4000,0.334
79.4400,0.367
79.4800,0.372
79.5200,0.398
79.5600,0.341
79.6000,0.375
79.6400,0.333
79.6800,0.346
79.7200,0.343
79.7600,0.376
79.8000,0.355
79.8400,0.315
79.8800,0.320
79.9200,0.304
79.9600,0.304
80.0000,0.319
