theta,intensity
5.0000,4.270
5.0400,4.382
5.0800,4.417
5.1200,4.369
5.1600,4.445
5.2000,4.280
5.2400,4.327
5.2800,4.273
5.3200,4.240
5.3600,4.221
5.4000,4.254
5.4400,4.195
5.4800,4.099
5.5200,4.243
5.5600,4.064
5.6000,4.134
5.6400,4.149
5.6800,4.021
5.7200,4.131
5.7600,4.110
5.8000,4.135
5.8400,4.017
5.8800,4.111
5.9200,4.087
5.9600,4.093
6.0000,4.037
6.0400,3.962
6.0800,4.069
6.1200,4.223
6.1600,4.084
6.2000,4.107
6.2400,4.109
6.2800,4.021
6.3200,3.954
6.3600,3.948
6.4000,4.052
6.4400,3.911
6.4800,4.103
6.5200,3.982
6.5600,3.845
6.6000,3.930
6.6400,3.889
6.6800,3.980
6.7200,3.985
6.7600,3.839
6.8000,3.879
6.8400,3.889
6.8800,3.949
6.9200,3.918
6.9600,3.891
7.0000,3.977
7.0400,4.009
7.0800,3.890
7.1200,3.913
7.1600,3.974
7.2000,3.869
7.2400,3.867
7.2800,3.853
7.3200,3.841
7.3600,3.878
7.4000,3.881
7.4400,3.856
7.4800,3.865
7.5200,3.893
7.5600,3.891
7.6000,3.796
7.6400,3.851
7.6800,3.964
7.7200,3.843
7.7600,3.846
7.8000,3.832
7.8400,3.991
7.8800,3.813
7.9200,3.887
7.9600,3.782
8.0000,3.796
8.0400,3.767
8.0800,3.808
8.1200,3.753
8.1600,3.776
8.2000,3.838
8.2400,3.784
8.2800,3.811
8.3200,3.792
8.3600,3.724
8.4000,3.726
8.4400,3.747
8.4800,3.701
8.5200,3.681
8.5600,3.692
8.6000,3.717
8.6400,3.695
8.6800,3.622
8.7200,3.702
8.7600,3.697
8.8000,3.678
8.8400,3.650
8.8800,3.736
8.9200,3.762
8.9600,3.697
9.0000,3.788
9.0400,3.581
9.0800,3.760
9.1200,3.675
9.1600,3.715
9.2000,3.631
9.2400,3.699
9.2800,3.600
9.3200,3.678
9.3600,3.682
9.4000,3.622
9.4400,3.755
9.4800,3.485
9.5200,3.587
9.5600,3.714
9.6000,3.605
9.6400,3.587
9.6800,3.635
9.7200,3.635
9.7600,3.575
9.8000,3.612
9.8400,3.560
9.8800,3.616
9.9200,3.530
9.9600,3.724
10.0000,3.555
10.0400,3.633
10.0800,3.531
10.1200,3.551
10.1600,3.582
10.2000,3.530
10.2400,3.558
10.2800,3.585
10.3200,3.634
10.3600,3.590
10.4000,3.567
10.4400,3.527
10.4800,3.591
10.5200,3.544
10.5600,3.452
10.6000,3.520
10.6400,3.494
10.6800,3.492
10.7200,3.504
10.7600,3.420
10.8000,3.522
10.8400,3.556
10.8800,3.513
10.9200,3.546
10.9600,3.495
11.0000,3.493
11.0400,3.527
11.0800,3.459
11.1200,3.475
11.1600,3.547
11.2000,3.477
11.2400,3.401
11.2800,3.391
11.3200,3.408
11.3600,3.455
11.4000,3.491
11.4400,3.510
11.4800,3.550
11.5200,3.410
11.5600,3.461
11.6000,3.480
11.6400,3.495
11.6800,3.446
11.7200,3.440
11.7600,3.596
11.8000,3.445
11.8400,3.433
11.8800,3.433
11.9200,3.517
11.9600,3.430
12.0000,3.414
12.0400,3.394
12.0800,3.334
12.1200,3.379
12.1600,3.321
12.2000,3.330
12.2400,3.377
12.2800,3.316
12.3200,3.213
12.3600,3.439
12.4000,3.354
12.4400,3.328
12.4800,3.401
12.5200,3.325
12.5600,3.408
12.6000,3.301
12.6400,3.408
12.6800,3.313
12.7200,3.270
12.7600,3.216
12.8000,3.294
12.8400,3.392
12.8800,3.372
12.9200,3.318
12.9600,3.373
13.0000,3.216
13.0400,3.285
13.0800,3.273
13.1200,3.276
13.1600,3.213
13.2000,3.264
13.2400,3.352
13.2800,3.318
13.3200,3.154
13.3600,3.274
13.4000,3.281
13.4400,3.279
13.4800,3.170
13.5200,3.213
13.5600,3.260
13.6000,3.200
13.6400,3.313
13.6800,3.241
13.7200,3.170
13.7600,3.278
13.8000,3.229
13.8400,3.319
13.8800,3.220
13.9200,3.199
13.9600,3.109
14.0000,3.286
14.0400,3.189
14.0800,3.298
14.1200,3.222
14.1600,3.268
14.2000,3.249
14.2400,3.195
14.2800,3.193
14.3200,3.087
14.3600,3.159
14.4000,3.153
14.4400,3.071
14.4800,3.209
14.5200,3.157
14.5600,3.144
14.6000,3.170
14.6400,3.144
14.6800,3.192
14.7200,3.190
14.7600,3.148
14.8000,3.037
14.8400,3.157
14.8800,3.034
14.9200,3.026
14.9600,3.122
15.0000,3.097
15.0400,3.071
15.0800,3.053
15.1200,3.140
15.1600,3.060
15.2000,3.148
15.2400,3.082
15.2800,3.069
15.3200,3.151
15.3600,3.111
15.4000,2.980
15.4400,3.016
15.4800,3.171
15.5200,3.021
15.5600,3.109
15.6000,3.047
15.6400,3.025
15.6800,3.072
15.7200,3.076
15.7600,3.039
15.8000,3.104
15.8400,2.990
15.8800,3.185
15.9200,3.015
15.9600,2.960
16.0000,3.038
16.0400,3.085
16.0800,3.081
16.1200,2.961
16.1600,3.093
16.2000,3.026
16.2400,3.050
16.2800,3.042
16.3200,3.096
16.3600,2.925
16.4000,2.892
16.4400,2.942
16.4800,2.998
16.5200,3.003
16.5600,2.938
16.6000,2.982
16.6400,2.963
16.6800,2.914
16.7200,2.959
16.7600,3.033
16.8000,2.912
16.8400,2.813
16.8800,2.935
16.9200,2.913
16.9600,2.960
17.0000,2.931
17.0400,2.878
17.0800,2.877
17.1200,2.949
17.1600,2.892
17.2000,2.819
17.2400,2.824
17.2800,2.928
17.3200,2.899
17.3600,2.885
17.4000,2.879
17.4400,2.872
17.4800,2.814
17.5200,2.919
17.5600,2.853
17.6000,2.899
17.6400,2.926
17.6800,2.913
17.7200,2.865
17.7600,2.810
17.8000,2.889
17.8400,2.782
17.8800,2.901
17.9200,2.873
17.9600,2.834
18.0000,2.873
18.0400,2.817
18.0800,2.842
18.1200,2.886
18.1600,2.790
18.2000,2.820
18.2400,2.812
18.2800,2.746
18.3200,2.742
18.3600,2.779
18.4000,2.750
18.4400,2.749
18.4800,2.823
18.5200,2.735
18.5600,2.825
18.6000,2.816
18.6400,2.731
18.6800,2.781
18.7200,2.768
18.7600,2.682
18.8000,2.835
18.8400,2.750
18.8800,2.684
18.9200,2.762
18.9600,2.765
19.0000,2.867
19.0400,2.718
19.0800,2.695
19.1200,2.715
19.1600,2.719
19.2000,2.788
19.2400,2.673
19.2800,2.659
19.3200,2.645
19.3600,2.683
19.4000,2.618
19.4400,2.654
19.4800,2.638
19.5200,2.678
19.5600,2.656
19.6000,2.644
19.6400,2.645
19.6800,2.677
19.7200,2.593
19.7600,2.737
19.8000,2.717
19.8400,2.581
19.8800,2.625
19.9200,2.655
19.9600,2.622
20.0000,2.628
20.0400,2.638
20.0800,2.634
20.1200,2.716
20.1600,2.589
20.2000,2.642
20.2400,2.671
20.2800,2.696
20.3200,2.607
20.3600,2.640
20.4000,2.506
20.4400,2.570
20.4800,2.598
20.5200,2.637
20.5600,2.512
20.6000,2.567
20.6400,2.665
20.6800,2.571
20.7200,2.511
20.7600,2.556
20.8000,2.611
20.8400,2.654
20.8800,2.539
20.9200,2.544
20.9600,2.593
21.0000,2.536
21.0400,2.513
21.0800,2.516
21.1200,2.484
21.1600,2.553
21.2000,2.572
21.2400,2.634
21.2800,2.604
21.3200,2.468
21.3600,2.495
21.4000,2.524
21.4400,2.499
21.4800,2.516
21.5200,2.511
21.5600,2.581
21.6000,2.493
21.6400,2.529
21.6800,2.456
21.7200,2.482
21.7600,2.465
21.8000,2.503
21.8400,2.476
21.8800,2.473
21.9200,2.478
21.9600,2.445
22.0000,2.410
22.0400,2.433
22.0800,2.519
22.1200,2.353
22.1600,2.459
22.2000,2.428
22.2400,2.429
22.2800,2.471
22.3200,2.460
22.3600,2.468
22.4000,2.427
22.4400,2.493
22.4800,2.402
22.5200,2.455
22.5600,2.460
22.6000,2.391
22.6400,2.408
22.6800,2.434
22.7200,2.405
22.7600,2.439
22.8000,2.457
22.8400,2.358
22.8800,2.409
22.9200,2.406
22.9600,2.395
23.0000,2.403
23.0400,2.368
23.0800,2.327
23.1200,2.418
23.1600,2.365
23.2000,2.425
23.2400,2.287
23.2800,2.382
23.3200,2.403
23.3600,2.387
23.4000,2.456
23.4400,2.380
23.4800,2.356
23.5200,2.290
23.5600,2.265
23.6000,2.334
23.6400,2.365
23.6800,2.328
23.7200,2.308
23.7600,2.307
23.8000,2.317
23.8400,2.274
23.8800,2.243
23.9200,2.319
23.9600,2.367
24.0000,2.263
24.0400,2.249
24.0800,2.222
24.1200,2.268
24.1600,2.357
24.2000,2.309
24.2400,2.363
24.2800,2.267
24.3200,2.261
24.3600,2.221
24.4000,2.258
24.4400,2.177
24.4800,2.168
24.5200,2.196
24.5600,2.310
24.6000,2.329
24.6400,2.193
24.6800,2.228
24.7200,2.238
24.7600,2.246
24.8000,2.260
24.8400,2.241
24.8800,2.210
24.9200,2.303
24.9600,2.124
25.0000,2.155
25.0400,2.231
25.0800,2.207
25.1200,2.238
25.1600,2.261
25.2000,2.221
25.2400,2.258
25.2800,2.179
25.3200,2.131
25.3600,2.191
25.4000,2.122
25.4400,2.267
25.4800,2.221
25.5200,2.225
25.5600,2.145
25.6000,2.116
25.6400,2.033
25.6800,2.146
25.7200,2.184
25.7600,2.220
25.8000,2.073
25.8400,2.099
25.8800,2.148
25.9200,2.073
25.9600,2.081
26.0000,2.126
26.0400,2.166
26.0800,2.255
26.1200,2.218
26.1600,2.074
26.2000,2.162
26.2400,2.149
26.2800,2.072
26.3200,2.050
26.3600,2.058
26.4000,2.086
26.4400,2.036
26.4800,2.086
26.5200,2.094
26.5600,2.063
26.6000,2.074
26.6400,2.038
26.6800,2.038
26.7200,2.064
26.7600,2.045
26.8000,2.021
26.8400,2.044
26.8800,2.089
26.9200,2.017
26.9600,2.066
27.0000,2.052
27.0400,1.932
27.0800,2.053
27.1200,2.085
27.1600,1.979
27.2000,1.998
27.2400,1.982
27.2800,2.044
27.3200,1.978
27.3600,2.061
27.4000,1.940
27.4400,1.959
27.4800,2.000
27.5200,1.944
27.5600,2.002
27.6000,2.022
27.6400,1.971
27.6800,1.952
27.7200,1.976
27.7600,1.944
27.8000,1.980
27.8400,2.032
27.8800,1.968
27.9200,1.974
27.9600,1.949
28.0000,2.052
28.0400,1.926
28.0800,1.940
28.1200,1.913
28.1600,1.978
28.2000,1.923
28.2400,1.859
28.2800,1.903
28.3200,1.915
28.3600,1.916
28.4000,1.899
28.4400,1.945
28.4800,1.898
28.5200,1.942
28.5600,1.974
28.6000,1.925
28.6400,1.940
28.6800,1.943
28.7200,1.920
28.7600,1.938
28.8000,1.932
28.8400,1.881
28.8800,1.827
28.9200,1.849
28.9600,1.933
29.0000,1.883
29.0400,1.819
29.0800,1.937
29.1200,1.855
29.1600,1.886
29.2000,1.879
29.2400,1.920
29.2800,1.890
29.3200,1.841
29.3600,1.862
29.4000,1.788
29.4400,1.902
29.4800,1.822
29.5200,1.893
29.5600,1.913
29.6000,1.858
29.6400,1.884
29.6800,1.819
29.7200,1.856
29.7600,1.774
29.8000,1.775
29.8400,1.810
29.8800,1.821
29.9200,1.828
29.9600,1.838
30.0000,1.842
30.0400,1.795
30.0800,1.802
30.1200,1.803
30.1600,1.780
30.2000,1.772
30.2400,1.802
30.2800,1.827
30.3200,1.753
30.3600,1.819
30.4000,1.808
30.4400,1.750
30.4800,1.762
30.5200,1.724
30.5600,1.803
30.6000,1.782
30.6400,1.777
30.6800,1.711
30.7200,1.800
30.7600,1.780
30.8000,1.766
30.8400,1.710
30.8800,1.711
30.9200,1.693
30.9600,1.751
31.0000,1.766
31.0400,1.805
31.0800,1.800
31.1200,1.735
31.1600,1.699
31.2000,1.757
31.2400,1.773
31.2800,1.674
31.3200,1.746
31.3600,1.729
31.4000,1.676
31.4400,1.719
31.4800,1.751
31.5200,1.750
31.5600,1.710
31.6000,1.670
31.6400,1.691
31.6800,1.684
31.7200,1.667
31.7600,1.680
31.8000,1.655
31.8400,1.664
31.8800,1.639
31.9200,1.682
31.9600,1.625
32.0000,1.615
32.0400,1.660
32.0800,1.666
32.1200,1.656
32.1600,1.718
32.2000,1.627
32.2400,1.671
32.2800,1.619
32.3200,1.655
32.3600,1.622
32.4000,1.626
32.4400,1.636
32.4800,1.554
32.5200,1.565
32.5600,1.668
32.6000,1.666
32.6400,1.677
32.6800,1.616
32.7200,1.584
32.7600,1.602
32.8000,1.582
32.8400,1.658
32.8800,1.593
32.9200,1.598
32.9600,1.660
33.0000,1.660
33.0400,1.555
33.0800,1.526
33.1200,1.584
33.1600,1.680
33.2000,1.528
33.2400,1.559
33.2800,1.588
33.3200,1.570
33.3600,1.643
33.4000,1.586
33.4400,1.626
33.4800,1.604
33.5200,1.529
33.5600,1.594
33.6000,1.591
33.6400,1.565
33.6800,1.606
33.7200,1.570
33.7600,1.554
33.8000,1.511
33.8400,1.527
33.8800,1.553
33.9200,1.537
33.9600,1.500
34.0000,1.543
34.0400,1.596
34.0800,1.510
34.1200,1.556
34.1600,1.484
34.2000,1.481
34.2400,1.584
34.2800,1.556
34.3200,1.541
34.3600,1.546
34.4000,1.511
34.4400,1.547
34.4800,1.546
34.5200,1.503
34.5600,1.489
34.6000,1.462
34.6400,1.502
34.6800,1.514
34.7200,1.507
34.7600,1.482
34.8000,1.512
34.8400,1.491
34.8800,1.452
34.9200,1.450
34.9600,1.496
35.0000,1.479
35.0400,1.470
35.0800,1.497
35.1200,1.547
35.1600,1.495
35.2000,1.492
35.2400,1.458
35.2800,1.476
35.3200,1.497
35.3600,1.517
35.4000,1.543
35.4400,1.464
35.4800,1.433
35.5200,1.536
35.5600,1.458
35.6000,1.464
35.6400,1.401
35.6800,1.447
35.7200,1.443
35.7600,1.481
35.8000,1.469
35.8400,1.478
35.8800,1.476
35.9200,1.435
35.9600,1.522
36.0000,1.465
36.0400,1.481
36.0800,1.470
36.1200,1.462
36.1600,1.437
36.2000,1.436
36.2400,1.497
36.2800,1.453
36.3200,1.550
36.3600,1.431
36.4000,1.488
36.4400,1.474
36.4800,1.493
36.5200,1.467
36.5600,1.472
36.6000,1.551
36.6400,1.463
36.6800,1.444
36.7200,1.432
36.7600,1.435
36.8000,1.466
36.8400,1.479
36.8800,1.478
36.9200,1.500
36.9600,1.528
37.0000,1.465
37.0400,1.539
37.0800,1.503
37.1200,1.513
37.1600,1.463
37.2000,1.526
37.2400,1.568
37.2800,1.468
37.3200,1.481
37.3600,1.497
37.4000,1.508
37.4400,1.511
37.4800,1.556
37.5200,1.515
37.5600,1.503
37.6000,1.587
37.6400,1.621
37.6800,1.527
37.7200,1.655
37.7600,1.618
37.8000,1.635
37.8400,1.583
37.8800,1.668
37.9200,1.628
37.9600,1.731
38.0000,1.760
38.0400,1.771
38.0800,1.825
38.1200,1.935
38.1600,1.932
38.2000,1.941
38.2400,1.970
38.2800,2.127
38.3200,2.152
38.3600,2.258
38.4000,2.258
38.4400,2.300
38.4800,2.369
38.5200,2.399
38.5600,2.482
38.6000,2.578
38.6400,2.683
38.6800,2.765
38.7200,2.827
38.7600,2.866
38.8000,2.985
38.8400,3.144
38.8800,3.101
38.9200,3.218
38.9600,3.349
39.0000,3.316
39.0400,3.347
39.0800,3.292
39.1200,3.254
39.1600,3.350
39.2000,3.213
39.2400,3.080
39.2800,3.199
39.3200,3.056
39.3600,2.965
39.4000,3.078
39.4400,3.057
39.4800,3.011
39.5200,2.922
39.5600,2.924
39.6000,2.878
39.6400,2.823
39.6800,2.915
39.7200,2.820
39.7600,2.834
39.8000,2.713
39.8400,2.718
39.8800,2.680
39.9200,2.637
39.9600,2.601
40.0000,2.494
40.0400,2.530
40.0800,2.366
40.1200,2.352
40.1600,2.293
40.2000,2.185
40.2400,2.193
40.2800,2.231
40.3200,2.080
40.3600,1.972
40.4000,1.882
40.4400,1.842
40.4800,1.828
40.5200,1.864
40.5600,1.842
40.6000,1.767
40.6400,1.688
40.6800,1.746
40.7200,1.633
40.7600,1.680
40.8000,1.643
40.8400,1.556
40.8800,1.575
40.9200,1.521
40.9600,1.498
41.0000,1.492
41.0400,1.337
41.0800,1.443
41.1200,1.447
41.1600,1.378
41.2000,1.452
41.2400,1.419
41.2800,1.436
41.3200,1.439
41.3600,1.424
41.4000,1.317
41.4400,1.335
41.4800,1.302
41.5200,1.369
41.5600,1.303
41.6000,1.296
41.6400,1.372
41.6800,1.262
41.7200,1.311
41.7600,1.309
41.8000,1.266
41.8400,1.253
41.8800,1.254
41.9200,1.219
41.9600,1.230
42.0000,1.236
42.0400,1.257
42.0800,1.241
42.1200,1.252
42.1600,1.234
42.2000,1.260
42.2400,1.175
42.2800,1.244
42.3200,1.223
42.3600,1.232
42.4000,1.265
42.4400,1.239
42.4800,1.185
42.5200,1.208
42.5600,1.212
42.6000,1.157
42.6400,1.227
42.6800,1.270
42.7200,1.193
42.7600,1.238
42.8000,1.190
42.8400,1.167
42.8800,1.249
42.9200,1.196
42.9600,1.197
43.0000,1.148
43.0400,1.206
43.0800,1.215
43.1200,1.203
43.1600,1.175
43.2000,1.192
43.2400,1.160
43.2800,1.193
43.3200,1.231
43.3600,1.182
43.4000,1.218
43.4400,1.216
43.4800,1.234
43.5200,1.234
43.5600,1.189
43.6000,1.189
43.6400,1.250
43.6800,1.219
43.7200,1.148
43.7600,1.200
43.8000,1.204
43.8400,1.181
43.8800,1.202
43.9200,1.204
43.9600,1.252
44.0000,1.170
44.0400,1.267
44.0800,1.238
44.1200,1.264
44.1600,1.258
44.2000,1.237
44.2400,1.364
44.2800,1.294
44.3200,1.263
44.3600,1.296
44.4000,1.345
44.4400,1.322
44.4800,1.349
44.5200,1.380
44.5600,1.377
44.6000,1.361
44.6400,1.391
44.6800,1.419
44.7200,1.424
44.7600,1.411
44.8000,1.400
44.8400,1.435
44.8800,1.409
44.9200,1.510
44.9600,1.438
45.0000,1.471
45.0400,1.495
45.0800,1.438
45.1200,1.491
45.1600,1.439
45.2000,1.530
45.2400,1.519
45.2800,1.453
45.3200,1.567
45.3600,1.596
45.4000,1.606
45.4400,1.552
45.4800,1.601
45.5200,1.537
45.5600,1.497
45.6000,1.543
45.6400,1.508
45.6800,1.477
45.7200,1.448
45.7600,1.453
45.8000,1.474
45.8400,1.456
45.8800,1.508
45.9200,1.444
45.9600,1.441
46.0000,1.420
46.0400,1.431
46.0800,1.346
46.1200,1.401
46.1600,1.363
46.2000,1.394
46.2400,1.378
46.2800,1.387
46.3200,1.323
46.3600,1.355
46.4000,1.313
46.4400,1.251
46.4800,1.317
46.5200,1.320
46.5600,1.322
46.6000,1.221
46.6400,1.222
46.6800,1.270
46.7200,1.237
46.7600,1.254
46.8000,1.241
46.8400,1.203
46.8800,1.171
46.9200,1.194
46.9600,1.193
47.0000,1.091
47.0400,1.107
47.0800,1.027
47.1200,1.068
47.1600,1.013
47.2000,1.071
47.2400,1.007
47.2800,1.042
47.3200,1.028
47.3600,1.043
47.4000,1.022
47.4400,0.973
47.4800,0.997
47.5200,1.003
47.5600,1.037
47.6000,0.974
47.6400,1.005
47.6800,0.945
47.7200,0.934
47.7600,0.986
47.8000,0.938
47.8400,0.907
47.8800,0.979
47.9200,1.000
47.9600,0.854
48.0000,0.899
48.0400,0.898
48.0800,0.901
48.1200,0.909
48.1600,0.901
48.2000,0.855
48.2400,0.886
48.2800,0.912
48.3200,0.895
48.3600,0.823
48.4000,0.865
48.4400,0.889
48.4800,0.835
48.5200,0.853
48.5600,0.901
48.6000,0.823
48.6400,0.912
48.6800,0.884
48.7200,0.863
48.7600,0.845
48.8000,0.877
48.8400,0.849
48.8800,0.796
48.9200,0.876
48.9600,0.808
49.0000,0.813
49.0400,0.868
49.0800,0.839
49.1200,0.801
49.1600,0.840
49.2000,0.862
49.2400,0.844
49.2800,0.796
49.3200,0.831
49.3600,0.832
49.4000,0.824
49.4400,0.795
49.4800,0.761
49.5200,0.782
49.5600,0.824
49.6000,0.817
49.6400,0.823
49.6800,0.810
49.7200,0.827
49.7600,0.837
49.8000,0.796
49.8400,0.797
49.8800,0.786
49.9200,0.791
49.9600,0.755
50.0000,0.799
50.0400,0.816
50.0800,0.777
50.1200,0.848
50.1600,0.854
50.2000,0.786
50.2400,0.806
50.2800,0.741
50.3200,0.788
50.3600,0.777
50.4000,0.755
50.4400,0.738
50.4800,0.776
50.5200,0.735
50.5600,0.726
50.6000,0.743
50.6400,0.790
50.6800,0.775
50.7200,0.763
50.7600,0.820
50.8000,0.719
50.8400,0.736
50.8800,0.781
50.9200,0.740
50.9600,0.780
51.0000,0.747
51.0400,0.763
51.0800,0.719
51.1200,0.776
51.1600,0.758
51.2000,0.724
51.2400,0.806
51.2800,0.715
51.3200,0.722
51.3600,0.770
51.4000,0.762
51.4400,0.753
51.4800,0.721
51.5200,0.780
51.5600,0.770
51.6000,0.749
51.6400,0.774
51.6800,0.761
51.7200,0.709
51.7600,0.713
51.8000,0.689
51.8400,0.709
51.8800,0.772
51.9200,0.725
51.9600,0.745
52.0000,0.735
52.0400,0.769
52.0800,0.720
52.1200,0.714
52.1600,0.755
52.2000,0.716
52.2400,0.732
52.2800,0.755
52.3200,0.702
52.3600,0.709
52.4000,0.724
52.4400,0.751
52.4800,0.698
52.5200,0.697
52.5600,0.748
52.6000,0.726
52.6400,0.680
52.6800,0.695
52.7200,0.702
52.7600,0.711
52.8000,0.681
52.8400,0.672
52.8800,0.715
52.9200,0.697
52.9600,0.635
53.0000,0.723
53.0400,0.696
53.0800,0.703
53.1200,0.673
53.1600,0.711
53.2000,0.710
53.2400,0.668
53.2800,0.714
53.3200,0.675
53.3600,0.656
53.4000,0.649
53.4400,0.692
53.4800,0.675
53.5200,0.669
53.5600,0.705
53.6000,0.692
53.6400,0.695
53.6800,0.665
53.7200,0.721
53.7600,0.660
53.8000,0.725
53.8400,0.692
53.8800,0.663
53.9200,0.655
53.9600,0.711
54.0000,0.675
54.0400,0.681
54.0800,0.717
54.1200,0.693
54.1600,0.657
54.2000,0.638
54.2400,0.681
54.2800,0.660
54.3200,0.684
54.3600,0.663
54.4000,0.683
54.4400,0.671
54.4800,0.667
54.5200,0.664
54.5600,0.650
54.6000,0.679
54.6400,0.649
54.6800,0.664
54.7200,0.630
54.7600,0.602
54.8000,0.658
54.8400,0.640
54.8800,0.609
54.9200,0.649
54.9600,0.638
55.0000,0.652
55.0400,0.625
55.0800,0.636
55.1200,0.615
55.1600,0.656
55.2000,0.666
55.2400,0.628
55.2800,0.625
55.3200,0.642
55.3600,0.641
55.4000,0.675
55.4400,0.664
55.4800,0.647
55.5200,0.609
55.5600,0.595
55.6000,0.644
55.6400,0.665
55.6800,0.679
55.7200,0.654
55.7600,0.679
55.8000,0.653
55.8400,0.670
55.8800,0.607
55.9200,0.652
55.9600,0.629
56.0000,0.688
56.0400,0.601
56.0800,0.646
56.1200,0.657
56.1600,0.582
56.2000,0.603
56.2400,0.604
56.2800,0.571
56.3200,0.647
56.3600,0.637
56.4000,0.635
56.4400,0.627
56.4800,0.586
56.5200,0.600
56.5600,0.607
56.6000,0.600
56.6400,0.611
56.6800,0.588
56.7200,0.590
56.7600,0.644
56.8000,0.603
56.8400,0.650
56.8800,0.593
56.9200,0.585
56.9600,0.601
57.0000,0.587
57.0400,0.633
57.0800,0.624
57.1200,0.646
57.1600,0.604
57.2000,0.617
57.2400,0.593
57.2800,0.598
57.3200,0.606
57.3600,0.605
57.4000,0.630
57.4400,0.639
57.4800,0.578
57.5200,0.626
57.5600,0.629
57.6000,0.630
57.6400,0.599
57.6800,0.562
57.7200,0.597
57.7600,0.555
57.8000,0.588
57.8400,0.609
57.8800,0.616
57.9200,0.569
57.9600,0.623
58.0000,0.653
58.0400,0.614
58.0800,0.575
58.1200,0.602
58.1600,0.553
58.2000,0.626
58.2400,0.604
58.2800,0.630
58.3200,0.596
58.3600,0.625
58.4000,0.564
58.4400,0.581
58.4800,0.582
58.5200,0.612
58.5600,0.622
58.6000,0.579
58.6400,0.591
58.6800,0.579
58.7200,0.594
58.7600,0.584
58.8000,0.583
58.8400,0.525
58.8800,0.594
58.9200,0.563
58.9600,0.582
59.0000,0.552
59.0400,0.582
59.0800,0.580
59.1200,0.580
59.1600,0.577
59.2000,0.551
59.2400,0.522
59.2800,0.567
59.3200,0.560
59.3600,0.608
59.4000,0.566
59.4400,0.568
59.4800,0.523
59.5200,0.607
59.5600,0.598
59.6000,0.556
59.6400,0.555
59.6800,0.585
59.7200,0.605
59.7600,0.557
59.8000,0.557
59.8400,0.613
59.8800,0.564
59.9200,0.594
59.9600,0.554
60.0000,0.546
60.0400,0.509
60.0800,0.541
60.1200,0.586
60.1600,0.563
60.2000,0.578
60.2400,0.531
60.2800,0.560
60.3200,0.585
60.3600,0.534
60.4000,0.554
60.4400,0.562
60.4800,0.556
60.5200,0.556
60.5600,0.561
60.6000,0.563
60.6400,0.488
60.6800,0.560
60.7200,0.565
60.7600,0.536
60.8000,0.543
60.8400,0.572
60.8800,0.543
60.9200,0.524
60.9600,0.525
61.0000,0.538
61.0400,0.544
61.0800,0.567
61.1200,0.545
61.1600,0.569
61.2000,0.555
61.2400,0.563
61.2800,0.541
61.3200,0.552
61.3600,0.516
61.4000,0.566
61.4400,0.557
61.4800,0.552
61.5200,0.502
61.5600,0.579
61.6000,0.581
61.6400,0.556
61.6800,0.643
61.7200,0.644
61.7600,0.611
61.8000,0.567
61.8400,0.522
61.8800,0.539
61.9200,0.527
61.9600,0.523
62.0000,0.498
62.0400,0.535
62.0800,0.522
62.1200,0.500
62.1600,0.502
62.2000,0.510
62.2400,0.544
62.2800,0.535
62.3200,0.511
62.3600,0.506
62.4000,0.534
62.4400,0.515
62.4800,0.528
62.5200,0.530
62.5600,0.503
62.6000,0.520
62.6400,0.542
62.6800,0.525
62.7200,0.563
62.7600,0.537
62.8000,0.554
62.8400,0.547
62.8800,0.535
62.9200,0.553
62.9600,0.522
63.0000,0.552
63.0400,0.555
63.0800,0.531
63.1200,0.538
63.1600,0.613
63.2000,0.519
63.2400,0.550
63.2800,0.561
63.3200,0.557
63.3600,0.548
63.4000,0.532
63.4400,0.566
63.4800,0.601
63.5200,0.533
63.5600,0.536
63.6000,0.555
63.6400,0.523
63.6800,0.543
63.7200,0.534
63.7600,0.556
63.8000,0.552
63.8400,0.554
63.8800,0.571
63.9200,0.587
63.9600,0.564
64.0000,0.598
64.0400,0.609
64.0800,0.535
64.1200,0.600
64.1600,0.579
64.2000,0.558
64.2400,0.606
64.2800,0.569
64.3200,0.604
64.3600,0.590
64.4000,0.600
64.4400,0.584
64.4800,0.634
64.5200,0.624
64.5600,0.593
64.6000,0.616
64.6400,0.646
64.6800,0.617
64.7200,0.649
64.7600,0.620
64.8000,0.659
64.8400,0.672
64.8800,0.668
64.9200,0.672
64.9600,0.657
65.0000,0.678
65.0400,0.691
65.0800,0.684
65.1200,0.716
65.1600,0.737
65.2000,0.732
65.2400,0.769
65.2800,0.715
65.3200,0.732
65.3600,0.765
65.4000,0.739
65.4400,0.726
65.4800,0.796
65.5200,0.895
65.5600,0.821
65.6000,0.778
65.6400,0.809
65.6800,0.837
65.7200,0.839
65.7600,0.867
65.8000,0.915
65.8400,0.886
65.8800,0.886
65.9200,0.911
65.9600,0.923
66.0000,0.927
66.0400,0.917
66.0800,0.989
66.1200,0.957
66.1600,0.942
66.2000,0.946
66.2400,0.977
66.2800,1.002
66.3200,0.942
66.3600,0.975
66.4000,0.921
66.4400,0.995
66.4800,0.993
66.5200,0.984
66.5600,1.061
66.6000,1.032
66.6400,1.051
66.6800,1.166
66.7200,1.041
66.7600,1.080
66.8000,1.060
66.8400,1.050
66.8800,1.074
66.9200,1.086
66.9600,1.104
67.0000,1.126
67.0400,1.139
67.0800,1.105
67.1200,1.198
67.1600,1.166
67.2000,1.213
67.2400,1.176
67.2800,1.232
67.3200,1.249
67.3600,1.252
67.4000,1.333
67.4400,1.324
67.4800,1.333
67.5200,1.393
67.5600,1.362
67.6000,1.436
67.6400,1.456
67.6800,1.397
67.7200,1.455
67.7600,1.507
67.8000,1.537
67.8400,1.463
67.8800,1.554
67.9200,1.665
67.9600,1.669
68.0000,1.684
68.0400,1.755
68.0800,1.746
68.1200,1.816
68.1600,1.775
68.2000,1.820
68.2400,1.856
68.2800,1.950
68.3200,2.020
68.3600,2.091
68.4000,2.219
68.4400,2.197
68.4800,2.368
68.5200,2.524
68.5600,2.610
68.6000,2.817
68.6400,2.892
68.6800,3.279
68.7200,3.737
68.7600,4.682
68.8000,6.010
68.8400,7.226
68.8800,7.752
68.9200,7.932
68.9600,8.823
69.0000,11.588
69.0400,17.811
69.0800,34.478
69.1200,130.348
69.1600,452.533
69.2000,488.336
69.2400,169.070
69.2800,54.310
69.3200,91.895
69.3600,244.022
69.4000,244.209
69.4400,83.203
69.4800,24.025
69.5200,12.845
69.5600,9.238
69.6000,7.121
69.6400,5.977
69.6800,5.035
69.7200,4.391
69.7600,3.964
69.8000,3.738
69.8400,3.301
69.8800,3.044
69.9200,2.893
69.9600,2.861
70.0000,2.591
70.0400,2.465
70.0800,2.458
70.1200,2.247
70.1600,2.195
70.2000,2.135
70.2400,2.055
70.2800,1.921
70.3200,1.948
70.3600,1.854
70.4000,1.853
70.4400,1.775
70.4800,1.695
70.5200,1.723
70.5600,1.677
70.6000,1.605
70.6400,1.510
70.6800,1.436
70.7200,1.424
70.7600,1.373
70.8000,1.367
70.8400,1.350
70.8800,1.301
70.9200,1.205
70.9600,1.211
71.0000,1.165
71.0400,1.195
71.0800,1.205
71.1200,1.119
71.1600,1.116
71.2000,1.088
71.2400,0.980
71.2800,1.012
71.3200,0.957
71.3600,0.999
71.4000,0.970
71.4400,0.882
71.4800,0.896
71.5200,0.874
71.5600,0.909
71.6000,0.838
71.6400,0.838
71.6800,0.809
71.7200,0.805
71.7600,0.795
71.8000,0.775
71.8400,0.754
71.8800,0.740
71.9200,0.762
71.9600,0.749
72.0000,0.689
72.0400,0.707
72.0800,0.700
72.1200,0.659
72.1600,0.668
72.2000,0.643
72.2400,0.648
72.2800,0.659
72.3200,0.656
72.3600,0.573
72.4000,0.596
72.4400,0.569
72.4800,0.544
72.5200,0.638
72.5600,0.550
72.6000,0.569
72.6400,0.553
72.6800,0.547
72.7200,0.615
72.7600,0.555
72.8000,0.589
72.8400,0.508
72.8800,0.528
72.9200,0.506
72.9600,0.523
73.0000,0.535
73.0400,0.492
73.0800,0.495
73.1200,0.529
73.1600,0.493
73.2000,0.469
73.2400,0.494
73.2800,0.493
73.3200,0.517
73.3600,0.487
73.4000,0.490
73.4400,0.484
73.4800,0.455
73.5200,0.475
73.5600,0.467
73.6000,0.459
73.6400,0.445
73.6800,0.490
73.7200,0.466
73.7600,0.467
73.8000,0.499
73.8400,0.445
73.8800,0.399
73.9200,0.432
73.9600,0.446
74.0000,0.438
74.0400,0.456
74.0800,0.470
74.1200,0.419
74.1600,0.442
74.2000,0.431
74.2400,0.421
74.2800,0.427
74.3200,0.389
74.3600,0.436
74.4000,0.471
74.4400,0.422
74.4800,0.445
74.5200,0.430
74.5600,0.390
74.6000,0.412
74.6400,0.387
74.6800,0.397
74.7200,0.386
74.7600,0.413
74.8000,0.409
74.8400,0.415
74.8800,0.396
74.9200,0.405
74.9600,0.407
75.0000,0.397
75.0400,0.375
75.0800,0.401
75.1200,0.428
75.1600,0.370
75.2000,0.393
75.2400,0.373
75.2800,0.362
75.3200,0.361
75.3600,0.365
75.4000,0.374
75.4400,0.333
75.4800,0.361
75.5200,0.382
75.5600,0.388
75.6000,0.400
75.6400,0.336
75.6800,0.370
75.7200,0.417
75.7600,0.375
75.8000,0.381
75.8400,0.389
75.8800,0.377
75.9200,0.381
75.9600,0.353
76.0000,0.354
76.0400,0.368
76.0800,0.365
76.1200,0.327
76.1600,0.369
76.2000,0.343
76.2400,0.334
76.2800,0.368
76.3200,0.355
76.3600,0.353
76.4000,0.389
76.4400,0.375
76.4800,0.343
76.5200,0.373
76.5600,0.326
76.6000,0.330
76.6400,0.330
76.6800,0.403
76.7200,0.347
76.7600,0.344
76.8000,0.338
76.8400,0.327
76.8800,0.336
76.9200,0.351
76.9600,0.359
77.0000,0.382
77.0400,0.383
77.0800,0.400
77.1200,0.374
77.1600,0.388
77.2000,0.394
77.2400,0.388
77.2800,0.388
77.3200,0.404
77.3600,0.380
77.4000,0.389
77.4400,0.367
77.4800,0.397
77.5200,0.342
77.5600,0.396
77.6000,0.418
77.6400,0.413
77.6800,0.392
77.7200,0.418
77.7600,0.419
77.8000,0.364
77.8400,0.378
77.8800,0.355
77.9200,0.394
77.9600,0.422
78.0000,0.409
78.0400,0.430
78.0800,0.466
78.1200,0.394
78.1600,0.392
78.2000,0.391
78.2400,0.433
78.2800,0.409
78.3200,0.375
78.3600,0.377
78.4000,0.442
78.4400,0.414
78.4800,0.446
78.5200,0.502
78.5600,0.462
78.6000,0.448
78.6400,0.455
78.6800,0.456
78.7200,0.449
78.7600,0.438
78.8000,0.462
78.8400,0.474
78.8800,0.455
78.9200,0.457
78.9600,0.442
79.0000,0.505
79.0400,0.451
79.0800,0.450
79.1200,0.491
79.1600,0.523
79.2000,0.451
79.2400,0.546
79.2800,0.506
79.3200,0.497
79.3600,0.465
79.4000,0.523
79.4400,0.504
79.4800,0.510
79.5200,0.500
79.5600,0.505
79.6000,0.519
79.6400,0.489
79.6800,0.452
79.7200,0.516
79.7600,0.443
79.8000,0.513
79.8400,0.442
79.8800,0.446
79.9200,0.446
79.9600,0.448
80.0000,0.488
