theta,intensity
5.0000,4.950
5.0400,4.821
5.0800,4.756
5.1200,4.737
5.1600,4.660
5.2000,4.685
5.2400,4.457
5.2800,4.498
5.3200,4.497
5.3600,4.535
5.4000,4.368
5.4400,4.333
5.4800,4.383
5.5200,4.257
5.5600,4.341
5.6000,4.271
5.6400,4.328
5.6800,4.253
5.7200,4.103
5.7600,4.294
5.8000,4.166
5.8400,4.245
5.8800,4.267
5.9200,4.300
5.9600,4.227
6.0000,4.235
6.0400,4.257
6.0800,4.096
6.1200,4.141
6.1600,4.182
6.2000,4.168
6.2400,4.109
6.2800,4.185
6.3200,4.068
6.3600,4.079
6.4000,4.097
6.4400,4.138
6.4800,4.084
6.5200,4.084
6.5600,4.202
6.6000,4.063
6.6400,4.052
6.6800,4.065
6.7200,4.068
6.7600,3.982
6.8000,3.971
6.8400,4.021
6.8800,4.128
6.9200,3.967
6.9600,3.918
7.0000,4.102
7.0400,3.972
7.0800,4.044
7.1200,3.950
7.1600,4.013
7.2000,3.960
7.2400,3.967
7.2800,4.031
7.3200,3.830
7.3600,3.892
7.4000,4.015
7.4400,3.995
7.4800,3.956
7.5200,3.973
7.5600,3.824
7.6000,4.011
7.6400,3.930
7.6800,3.868
7.7200,3.859
7.7600,3.902
7.8000,3.823
7.8400,3.916
7.8800,3.823
7.9200,3.898
7.9600,3.905
8.0000,3.908
8.0400,3.915
8.0800,3.929
8.1200,3.955
8.1600,3.872
8.2000,3.923
8.2400,3.817
8.2800,3.926
8.3200,3.824
8.3600,3.837
8.4000,3.894
8.4400,3.643
8.4800,3.842
8.5200,3.711
8.5600,3.829
8.6000,3.801
8.6400,3.894
8.6800,3.855
8.7200,3.727
8.7600,3.790
8.8000,3.791
8.8400,3.818
8.8800,3.761
8.9200,3.659
8.9600,3.707
9.0000,3.716
9.0400,3.752
9.0800,3.734
9.1200,3.644
9.1600,3.657
9.2000,3.746
9.2400,3.698
9.2800,3.712
9.3200,3.795
9.3600,3.812
9.4000,3.663
9.4400,3.703
9.4800,3.738
9.5200,3.764
9.5600,3.703
9.6000,3.743
9.6400,3.740
9.6800,3.594
9.7200,3.671
9.7600,3.663
9.8000,3.733
9.8400,3.708
9.8800,3.603
9.9200,3.730
9.9600,3.633
10.0000,3.560
10.0400,3.617
10.0800,3.701
10.1200,3.596
10.1600,3.599
10.2000,3.674
10.2400,3.615
10.2800,3.577
10.3200,3.664
10.3600,3.465
10.4000,3.538
10.4400,3.483
10.4800,3.626
10.5200,3.505
10.5600,3.615
10.6000,3.622
10.6400,3.646
10.6800,3.621
10.7200,3.560
10.7600,3.562
10.8000,3.621
10.8400,3.470
10.8800,3.678
10.9200,3.518
10.9600,3.401
11.0000,3.463
11.0400,3.529
11.0800,3.509
11.1200,3.463
11.1600,3.554
11.2000,3.541
11.2400,3.442
11.2800,3.468
11.3200,3.531
11.3600,3.376
11.4000,3.443
11.4400,3.525
11.4800,3.509
11.5200,3.424
11.5600,3.598
11.6000,3.448
11.6400,3.559
11.6800,3.483
11.7200,3.482
11.7600,3.433
11.8000,3.469
11.8400,3.448
11.8800,3.414
11.9200,3.510
11.9600,3.505
12.0000,3.447
12.0400,3.433
12.0800,3.381
12.1200,3.492
12.1600,3.430
12.2000,3.467
12.2400,3.444
12.2800,3.411
12.3200,3.450
12.3600,3.323
12.4000,3.376
12.4400,3.415
12.4800,3.317
12.5200,3.365
12.5600,3.327
12.6000,3.386
12.6400,3.407
12.6800,3.338
12.7200,3.319
12.7600,3.346
12.8000,3.332
12.8400,3.311
12.8800,3.446
12.9200,3.333
12.9600,3.332
13.0000,3.286
13.0400,3.296
13.0800,3.286
13.1200,3.313
13.1600,3.391
13.2000,3.351
13.2400,3.351
13.2800,3.352
13.3200,3.369
13.3600,3.258
13.4000,3.366
13.4400,3.314
13.4800,3.372
13.5200,3.215
13.5600,3.331
13.6000,3.230
13.6400,3.261
13.6800,3.320
13.7200,3.294
13.7600,3.317
13.8000,3.228
13.8400,3.251
13.8800,3.272
13.9200,3.285
13.9600,3.290
14.0000,3.231
14.0400,3.227
14.0800,3.234
14.1200,3.248
14.1600,3.190
14.2000,3.277
14.2400,3.341
14.2800,3.299
14.3200,3.167
14.3600,3.148
14.4000,3.173
14.4400,3.234
14.4800,3.162
14.5200,3.027
14.5600,3.191
14.6000,3.210
14.6400,3.153
14.6800,3.177
14.7200,3.213
14.7600,3.216
14.8000,3.224
14.8400,3.079
14.8800,3.178
14.9200,3.146
14.9600,2.978
15.0000,3.131
15.0400,3.172
15.0800,3.039
15.1200,3.136
15.1600,3.037
15.2000,3.160
15.2400,3.116
15.2800,3.090
15.3200,3.139
15.3600,3.033
15.4000,3.110
15.4400,3.160
15.4800,3.142
15.5200,3.036
15.5600,3.039
15.6000,3.179
15.6400,3.068
15.6800,3.008
15.7200,3.072
15.7600,3.030
15.8000,3.073
15.8400,3.075
15.8800,3.091
15.9200,3.055
15.9600,3.078
16.0000,2.976
16.0400,3.016
16.0800,3.035
16.1200,3.014
16.1600,3.074
16.2000,3.041
16.2400,2.977
16.2800,3.038
16.3200,2.982
16.3600,3.029
16.4000,2.995
16.4400,3.071
16.4800,2.946
16.5200,3.057
16.5600,3.016
16.6000,2.998
16.6400,3.019
16.6800,2.932
16.7200,2.991
16.7600,2.974
16.8000,2.990
16.8400,2.977
16.8800,2.940
16.9200,2.975
16.9600,2.981
17.0000,2.963
17.0400,2.842
17.0800,2.940
17.1200,2.959
17.1600,2.901
17.2000,3.009
17.2400,2.903
17.2800,2.943
17.3200,3.023
17.3600,3.051
17.4000,2.853
17.4400,2.895
17.4800,2.883
17.5200,2.961
17.5600,2.926
17.6000,2.906
17.6400,2.822
17.6800,2.776
17.7200,2.850
17.7600,2.817
17.8000,2.850
17.8400,2.915
17.8800,2.853
17.9200,2.891
17.9600,2.850
18.0000,2.879
18.0400,2.829
18.0800,2.904
18.1200,2.877
18.1600,2.814
18.2000,2.746
18.2400,2.797
18.2800,2.800
18.3200,2.778
18.3600,2.821
18.4000,2.870
18.4400,2.850
18.4800,2.705
18.5200,2.844
18.5600,2.803
18.6000,2.801
18.6400,2.788
18.6800,2.793
18.7200,2.790
18.7600,2.783
18.8000,2.807
18.8400,2.880
18.8800,2.782
18.9200,2.832
18.9600,2.692
19.0000,2.795
19.0400,2.715
19.0800,2.747
19.1200,2.667
19.1600,2.769
19.2000,2.718
19.2400,2.744
19.2800,2.740
19.3200,2.763
19.3600,2.633
19.4000,2.683
19.4400,2.750
19.4800,2.597
19.5200,2.735
19.5600,2.749
19.6000,2.713
19.6400,2.694
19.6800,2.751
19.7200,2.737
19.7600,2.702
19.8000,2.720
19.8400,2.735
19.8800,2.710
19.9200,2.696
19.9600,2.654
20.0000,2.666
20.0400,2.679
20.0800,2.665
20.1200,2.733
20.1600,2.694
20.2000,2.663
20.2400,2.706
20.2800,2.578
20.3200,2.675
20.3600,2.720
20.4000,2.631
20.4400,2.595
20.4800,2.670
20.5200,2.620
20.5600,2.657
20.6000,2.661
20.6400,2.673
20.6800,2.591
20.7200,2.583
20.7600,2.618
20.8000,2.654
20.8400,2.507
20.8800,2.514
20.9200,2.479
20.9600,2.594
21.0000,2.580
21.0400,2.520
21.0800,2.491
21.1200,2.604
21.1600,2.588
21.2000,2.589
21.2400,2.461
21.2800,2.595
21.3200,2.604
21.3600,2.570
21.4000,2.443
21.4400,2.492
21.4800,2.481
21.5200,2.442
21.5600,2.472
21.6000,2.529
21.6400,2.524
21.6800,2.478
21.7200,2.490
21.7600,2.548
21.8000,2.546
21.8400,2.407
21.8800,2.375
21.9200,2.492
21.9600,2.473
22.0000,2.502
22.0400,2.428
22.0800,2.462
22.1200,2.449
22.1600,2.490
22.2000,2.493
22.2400,2.349
22.2800,2.439
22.3200,2.477
22.3600,2.390
22.4000,2.330
22.4400,2.350
22.4800,2.442
22.5200,2.521
22.5600,2.460
22.6000,2.455
22.6400,2.459
22.6800,2.333
22.7200,2.395
22.7600,2.403
22.8000,2.483
22.8400,2.462
22.8800,2.434
22.9200,2.462
22.9600,2.398
23.0000,2.361
23.0400,2.388
23.0800,2.369
23.1200,2.399
23.1600,2.407
23.2000,2.347
23.2400,2.334
23.2800,2.345
23.3200,2.362
23.3600,2.360
23.4000,2.305
23.4400,2.354
23.4800,2.363
23.5200,2.346
23.5600,2.375
23.6000,2.359
23.6400,2.355
23.6800,2.314
23.7200,2.392
23.7600,2.267
23.8000,2.390
23.8400,2.234
23.8800,2.317
23.9200,2.309
23.9600,2.294
24.0000,2.254
24.0400,2.317
24.0800,2.214
24.1200,2.301
24.1600,2.297
24.2000,2.314
24.2400,2.339
24.2800,2.274
24.3200,2.336
24.3600,2.244
24.4000,2.277
24.4400,2.321
24.4800,2.250
24.5200,2.272
24.5600,2.286
24.6000,2.144
24.6400,2.233
24.6800,2.252
24.7200,2.216
24.7600,2.184
24.8000,2.250
24.8400,2.241
24.8800,2.282
24.9200,2.176
24.9600,2.159
25.0000,2.229
25.0400,2.170
25.0800,2.174
25.1200,2.177
25.1600,2.154
25.2000,2.217
25.2400,2.171
25.2800,2.223
25.3200,2.099
25.3600,2.180
25.4000,2.140
25.4400,2.203
25.4800,2.113
25.5200,2.182
25.5600,2.163
25.6000,2.208
25.6400,2.218
25.6800,2.226
25.7200,2.123
25.7600,2.145
25.8000,2.132
25.8400,2.172
25.8800,2.109
25.9200,2.054
25.9600,2.088
26.0000,2.153
26.0400,2.162
26.0800,2.170
26.1200,2.193
26.1600,2.149
26.2000,2.061
26.2400,2.095
26.2800,2.071
26.3200,2.081
26.3600,2.005
26.4000,2.133
26.4400,2.120
26.4800,2.089
26.5200,2.055
26.5600,2.086
26.6000,2.091
26.6400,2.101
26.6800,2.087
26.7200,2.084
26.7600,2.001
26.8000,2.002
26.8400,2.048
26.8800,2.101
26.9200,2.074
26.9600,2.087
27.0000,2.067
27.0400,2.075
27.0800,2.014
27.1200,1.988
27.1600,2.013
27.2000,2.033
27.2400,1.973
27.2800,2.016
27.3200,2.011
27.3600,2.039
27.4000,1.995
27.4400,2.019
27.4800,2.024
27.5200,1.979
27.5600,2.054
27.6000,1.995
27.6400,2.026
27.6800,1.925
27.7200,1.967
27.7600,1.947
27.8000,2.002
27.8400,2.079
27.8800,1.939
27.9200,1.938
27.9600,1.966
28.0000,2.054
28.0400,1.990
28.0800,1.968
28.1200,1.902
28.1600,1.888
28.2000,1.962
28.2400,1.952
28.2800,1.935
28.3200,2.001
28.3600,1.883
28.4000,1.900
28.4400,1.979
28.4800,1.909
28.5200,1.902
28.5600,1.917
28.6000,1.942
28.6400,1.851
28.6800,1.930
28.7200,1.933
28.7600,1.932
28.8000,1.912
28.8400,1.942
28.8800,1.921
28.9200,1.769
28.9600,1.858
29.0000,1.879
29.0400,1.908
29.0800,1.851
29.1200,1.839
29.1600,1.861
29.2000,1.855
29.2400,1.880
29.2800,1.851
29.3200,1.841
29.3600,1.784
29.4000,1.802
29.4400,1.902
29.4800,1.877
29.5200,1.804
29.5600,1.891
29.6000,1.904
29.6400,1.805
29.6800,1.867
29.7200,1.806
29.7600,1.814
29.8000,1.834
29.8400,1.764
29.8800,1.753
29.9200,1.820
29.9600,1.836
30.0000,1.751
30.0400,1.804
30.0800,1.853
30.1200,1.800
30.1600,1.776
30.2000,1.822
30.2400,1.836
30.2800,1.838
30.3200,1.755
30.3600,1.793
30.4000,1.723
30.4400,1.804
30.4800,1.798
30.5200,1.738
30.5600,1.828
30.6000,1.776
30.6400,1.826
30.6800,1.722
30.7200,1.762
30.7600,1.740
30.8000,1.747
30.8400,1.752
30.8800,1.623
30.9200,1.769
30.9600,1.713
31.0000,1.735
31.0400,1.792
31.0800,1.779
31.1200,1.759
31.1600,1.682
31.2000,1.728
31.2400,1.714
31.2800,1.707
31.3200,1.734
31.3600,1.742
31.4000,1.703
31.4400,1.697
31.4800,1.684
31.5200,1.724
31.5600,1.700
31.6000,1.738
31.6400,1.692
31.6800,1.702
31.7200,1.726
31.7600,1.642
31.8000,1.631
31.8400,1.695
31.8800,1.700
31.9200,1.675
31.9600,1.674
32.0000,1.647
32.0400,1.700
32.0800,1.683
32.1200,1.687
32.1600,1.659
32.2000,1.655
32.2400,1.661
32.2800,1.633
32.3200,1.646
32.3600,1.592
32.4000,1.698
32.4400,1.675
32.4800,1.670
32.5200,1.632
32.5600,1.685
32.6000,1.708
32.6400,1.636
32.6800,1.656
32.7200,1.623
32.7600,1.566
32.8000,1.616
32.8400,1.683
32.8800,1.672
32.9200,1.663
32.9600,1.640
33.0000,1.541
33.0400,1.643
33.0800,1.626
33.1200,1.611
33.1600,1.624
33.2000,1.635
33.2400,1.574
33.2800,1.547
33.3200,1.610
33.3600,1.649
33.4000,1.629
33.4400,1.555
33.4800,1.534
33.5200,1.564
33.5600,1.598
33.6000,1.508
33.6400,1.525
33.6800,1.563
33.7200,1.532
33.7600,1.414
33.8000,1.462
33.8400,1.594
33.8800,1.516
33.9200,1.521
33.9600,1.550
34.0000,1.521
34.0400,1.497
34.0800,1.568
34.1200,1.563
34.1600,1.502
34.2000,1.524
34.2400,1.491
34.2800,1.552
34.3200,1.578
34.3600,1.498
34.4000,1.529
34.4400,1.490
34.4800,1.531
34.5200,1.518
34.5600,1.485
34.6000,1.548
34.6400,1.444
34.6800,1.488
34.7200,1.470
34.7600,1.541
34.8000,1.481
34.8400,1.520
34.8800,1.513
34.9200,1.560
34.9600,1.520
35.0000,1.414
35.0400,1.490
35.0800,1.547
35.1200,1.502
35.1600,1.438
35.2000,1.381
35.2400,1.475
35.2800,1.445
35.3200,1.417
35.3600,1.461
35.4000,1.468
35.4400,1.493
35.4800,1.542
35.5200,1.449
35.5600,1.455
35.6000,1.454
35.6400,1.427
35.6800,1.499
35.7200,1.478
35.7600,1.508
35.8000,1.472
35.8400,1.475
35.8800,1.465
35.9200,1.450
35.9600,1.478
36.0000,1.510
36.0400,1.514
36.0800,1.468
36.1200,1.503
36.1600,1.575
36.2000,1.527
36.2400,1.435
36.2800,1.456
36.3200,1.490
36.3600,1.510
36.4000,1.467
36.4400,1.451
36.4800,1.441
36.5200,1.490
36.5600,1.534
36.6000,1.469
36.6400,1.551
36.6800,1.511
36.7200,1.440
36.7600,1.482
36.8000,1.502
36.8400,1.537
36.8800,1.506
36.9200,1.578
36.9600,1.573
37.0000,1.522
37.0400,1.520
37.0800,1.507
37.1200,1.596
37.1600,1.552
37.2000,1.580
37.2400,1.646
37.2800,1.600
37.3200,1.642
37.3600,1.730
37.4000,1.718
37.4400,1.756
37.4800,1.782
37.5200,1.769
37.5600,1.844
37.6000,1.930
37.6400,2.061
37.6800,2.163
37.7200,2.292
37.7600,2.476
37.8000,2.766
37.8400,3.129
37.8800,3.863
37.9200,4.940
37.9600,6.662
38.0000,10.446
38.0400,21.300
38.0800,41.903
38.1200,50.233
38.1600,40.740
38.2000,34.456
38.2400,24.370
38.2800,12.973
38.3200,7.517
38.3600,5.137
38.4000,4.054
38.4400,3.383
38.4800,2.957
38.5200,2.611
38.5600,2.438
38.6000,2.262
38.6400,2.143
38.6800,2.005
38.7200,1.892
38.7600,1.881
38.8000,1.754
38.8400,1.750
38.8800,1.678
38.9200,1.636
38.9600,1.575
39.0000,1.581
39.0400,1.539
39.0800,1.532
39.1200,1.512
39.1600,1.507
39.2000,1.345
39.2400,1.421
39.2800,1.366
39.3200,1.492
39.3600,1.458
39.4000,1.432
39.4400,1.467
39.4800,1.326
39.5200,1.343
39.5600,1.367
39.6000,1.360
39.6400,1.278
39.6800,1.333
39.7200,1.331
39.7600,1.302
39.8000,1.348
39.8400,1.299
39.8800,1.266
39.9200,1.268
39.9600,1.213
40.0000,1.270
40.0400,1.240
40.0800,1.259
40.1200,1.242
40.1600,1.286
40.2000,1.277
40.2400,1.263
40.2800,1.248
40.3200,1.217
40.3600,1.217
40.4000,1.203
40.4400,1.273
40.4800,1.203
40.5200,1.202
40.5600,1.237
40.6000,1.245
40.6400,1.201
40.6800,1.274
40.7200,1.247
40.7600,1.199
40.8000,1.265
40.8400,1.195
40.8800,1.248
40.9200,1.203
40.9600,1.239
41.0000,1.164
41.0400,1.169
41.0800,1.235
41.1200,1.237
41.1600,1.257
41.2000,1.283
41.2400,1.122
41.2800,1.240
41.3200,1.108
41.3600,1.133
41.4000,1.155
41.4400,1.175
41.4800,1.164
41.5200,1.171
41.5600,1.191
41.6000,1.156
41.6400,1.140
41.6800,1.147
41.7200,1.199
41.7600,1.137
41.8000,1.183
41.8400,1.224
41.8800,1.198
41.9200,1.134
41.9600,1.158
42.0000,1.141
42.0400,1.161
42.0800,1.159
42.1200,1.212
42.1600,1.142
42.2000,1.174
42.2400,1.145
42.2800,1.119
42.3200,1.134
42.3600,1.129
42.4000,1.152
42.4400,1.141
42.4800,1.127
42.5200,1.223
42.5600,1.146
42.6000,1.157
42.6400,1.134
42.6800,1.132
42.7200,1.184
42.7600,1.094
42.8000,1.135
42.8400,1.142
42.8800,1.136
42.9200,1.107
42.9600,1.170
43.0000,1.200
43.0400,1.198
43.0800,1.156
43.1200,1.156
43.1600,1.199
43.2000,1.184
43.2400,1.200
43.2800,1.157
43.3200,1.136
43.3600,1.155
43.4000,1.193
43.4400,1.256
43.4800,1.207
43.5200,1.293
43.5600,1.212
43.6000,1.293
43.6400,1.348
43.6800,1.384
43.7200,1.390
43.7600,1.478
43.8000,1.478
43.8400,1.602
43.8800,1.598
43.9200,1.724
43.9600,1.990
44.0000,2.132
44.0400,2.496
44.0800,2.785
44.1200,3.417
44.1600,4.354
44.2000,6.402
44.2400,10.305
44.2800,14.326
44.3200,15.034
44.3600,12.691
44.4000,11.503
44.4400,9.443
44.4800,6.591
44.5200,4.455
44.5600,3.224
44.6000,2.544
44.6400,2.226
44.6800,2.034
44.7200,1.793
44.7600,1.621
44.8000,1.518
44.8400,1.442
44.8800,1.333
44.9200,1.370
44.9600,1.336
45.0000,1.227
45.0400,1.210
45.0800,1.236
45.1200,1.205
45.1600,1.142
45.2000,1.092
45.2400,1.132
45.2800,1.100
45.3200,1.112
45.3600,1.076
45.4000,1.048
45.4400,1.030
45.4800,1.043
45.5200,1.018
45.5600,1.011
45.6000,0.923
45.6400,1.004
45.6800,1.035
45.7200,0.992
45.7600,0.977
45.8000,1.018
45.8400,0.933
45.8800,0.953
45.9200,0.954
45.9600,0.975
46.0000,0.951
46.0400,0.969
46.0800,0.902
46.1200,0.929
46.1600,0.930
46.2000,0.942
46.2400,0.923
46.2800,0.906
46.3200,0.948
46.3600,0.900
46.4000,0.965
46.4400,0.956
46.4800,0.904
46.5200,0.929
46.5600,0.935
46.6000,0.919
46.6400,0.940
46.6800,0.929
46.7200,0.895
46.7600,0.917
46.8000,0.908
46.8400,0.908
46.8800,0.889
46.9200,0.898
46.9600,0.875
47.0000,0.878
47.0400,0.898
47.0800,0.894
47.1200,0.887
47.1600,0.912
47.2000,0.901
47.2400,0.848
47.2800,0.899
47.3200,0.897
47.3600,0.869
47.4000,0.856
47.4400,0.859
47.4800,0.870
47.5200,0.863
47.5600,0.870
47.6000,0.848
47.6400,0.889
47.6800,0.842
47.7200,0.821
47.7600,0.875
47.8000,0.876
47.8400,0.861
47.8800,0.842
47.9200,0.859
47.9600,0.817
48.0000,0.788
48.0400,0.884
48.0800,0.848
48.1200,0.864
48.1600,0.847
48.2000,0.845
48.2400,0.833
48.2800,0.833
48.3200,0.827
48.3600,0.853
48.4000,0.846
48.4400,0.847
48.4800,0.859
48.5200,0.858
48.5600,0.867
48.6000,0.872
48.6400,0.799
48.6800,0.788
48.7200,0.839
48.7600,0.854
48.8000,0.859
48.8400,0.796
48.8800,0.821
48.9200,0.778
48.9600,0.823
49.0000,0.813
49.0400,0.815
49.0800,0.828
49.1200,0.823
49.1600,0.793
49.2000,0.816
49.2400,0.816
49.2800,0.750
49.3200,0.805
49.3600,0.779
49.4000,0.789
49.4400,0.824
49.4800,0.768
49.5200,0.784
49.5600,0.809
49.6000,0.788
49.6400,0.798
49.6800,0.770
49.7200,0.803
49.7600,0.781
49.8000,0.770
49.8400,0.808
49.8800,0.798
49.9200,0.789
49.9600,0.712
50.0000,0.774
50.0400,0.787
50.0800,0.809
50.1200,0.720
50.1600,0.820
50.2000,0.773
50.2400,0.754
50.2800,0.753
50.3200,0.759
50.3600,0.778
50.4000,0.782
50.4400,0.794
50.4800,0.732
50.5200,0.719
50.5600,0.808
50.6000,0.743
50.6400,0.732
50.6800,0.728
50.7200,0.733
50.7600,0.744
50.8000,0.772
50.8400,0.747
50.8800,0.719
50.9200,0.760
50.9600,0.742
51.0000,0.734
51.0400,0.711
51.0800,0.762
51.1200,0.771
51.1600,0.721
51.2000,0.761
51.2400,0.692
51.2800,0.712
51.3200,0.729
51.3600,0.719
51.4000,0.691
51.4400,0.736
51.4800,0.752
51.5200,0.753
51.5600,0.746
51.6000,0.730
51.6400,0.749
51.6800,0.725
51.7200,0.704
51.7600,0.696
51.8000,0.717
51.8400,0.716
51.8800,0.706
51.9200,0.749
51.9600,0.752
52.0000,0.736
52.0400,0.704
52.0800,0.686
52.1200,0.710
52.1600,0.713
52.2000,0.715
52.2400,0.701
52.2800,0.747
52.3200,0.729
52.3600,0.718
52.4000,0.694
52.4400,0.747
52.4800,0.711
52.5200,0.665
52.5600,0.696
52.6000,0.663
52.6400,0.686
52.6800,0.687
52.7200,0.696
52.7600,0.665
52.8000,0.711
52.8400,0.678
52.8800,0.646
52.9200,0.707
52.9600,0.721
53.0000,0.668
53.0400,0.690
53.0800,0.661
53.1200,0.653
53.1600,0.654
53.2000,0.665
53.2400,0.683
53.2800,0.663
53.3200,0.683
53.3600,0.672
53.4000,0.625
53.4400,0.648
53.4800,0.642
53.5200,0.665
53.5600,0.689
53.6000,0.707
53.6400,0.717
53.6800,0.662
53.7200,0.702
53.7600,0.664
53.8000,0.655
53.8400,0.659
53.8800,0.658
53.9200,0.699
53.9600,0.672
54.0000,0.646
54.0400,0.670
54.0800,0.706
54.1200,0.663
54.1600,0.719
54.2000,0.640
54.2400,0.649
54.2800,0.633
54.3200,0.631
54.3600,0.660
54.4000,0.646
54.4400,0.655
54.4800,0.666
54.5200,0.675
54.5600,0.652
54.6000,0.671
54.6400,0.636
54.6800,0.622
54.7200,0.681
54.7600,0.644
54.8000,0.652
54.8400,0.628
54.8800,0.616
54.9200,0.641
54.9600,0.656
55.0000,0.665
55.0400,0.653
55.0800,0.617
55.1200,0.649
55.1600,0.658
55.2000,0.643
55.2400,0.671
55.2800,0.613
55.3200,0.603
55.3600,0.631
55.4000,0.645
55.4400,0.659
55.4800,0.597
55.5200,0.658
55.5600,0.624
55.6000,0.661
55.6400,0.599
55.6800,0.602
55.7200,0.620
55.7600,0.629
55.8000,0.612
55.8400,0.647
55.8800,0.645
55.9200,0.649
55.9600,0.653
56.0000,0.595
56.0400,0.615
56.0800,0.633
56.1200,0.644
56.1600,0.632
56.2000,0.626
56.2400,0.641
56.2800,0.659
56.3200,0.580
56.3600,0.599
56.4000,0.627
56.4400,0.619
56.4800,0.632
56.5200,0.584
56.5600,0.639
56.6000,0.644
56.6400,0.612
56.6800,0.556
56.7200,0.659
56.7600,0.675
56.8000,0.583
56.8400,0.586
56.8800,0.624
56.9200,0.586
56.9600,0.643
57.0000,0.589
57.0400,0.623
57.0800,0.598
57.1200,0.580
57.1600,0.594
57.2000,0.613
57.2400,0.602
57.2800,0.598
57.3200,0.589
57.3600,0.586
57.4000,0.576
57.4400,0.637
57.4800,0.568
57.5200,0.573
57.5600,0.593
57.6000,0.628
57.6400,0.566
57.6800,0.599
57.7200,0.567
57.7600,0.592
57.8000,0.552
57.8400,0.567
57.8800,0.582
57.9200,0.607
57.9600,0.552
58.0000,0.562
58.0400,0.594
58.0800,0.576
58.1200,0.570
58.1600,0.557
58.2000,0.565
58.2400,0.557
58.2800,0.612
58.3200,0.582
58.3600,0.622
58.4000,0.577
58.4400,0.589
58.4800,0.564
58.5200,0.580
58.5600,0.578
58.6000,0.597
58.6400,0.587
58.6800,0.574
58.7200,0.574
58.7600,0.607
58.8000,0.577
58.8400,0.525
58.8800,0.559
58.9200,0.558
58.9600,0.596
59.0000,0.519
59.0400,0.550
59.0800,0.571
59.1200,0.600
59.1600,0.622
59.2000,0.510
59.2400,0.561
59.2800,0.549
59.3200,0.618
59.3600,0.598
59.4000,0.547
59.4400,0.559
59.4800,0.553
59.5200,0.542
59.5600,0.565
59.6000,0.549
59.6400,0.537
59.6800,0.588
59.7200,0.578
59.7600,0.557
59.8000,0.549
59.8400,0.578
59.8800,0.542
59.9200,0.550
59.9600,0.542
60.0000,0.570
60.0400,0.546
60.0800,0.513
60.1200,0.531
60.1600,0.517
60.2000,0.522
60.2400,0.551
60.2800,0.535
60.3200,0.533
60.3600,0.528
60.4000,0.568
60.4400,0.568
60.4800,0.534
60.5200,0.497
60.5600,0.517
60.6000,0.541
60.6400,0.545
60.6800,0.531
60.7200,0.542
60.7600,0.537
60.8000,0.535
60.8400,0.559
60.8800,0.523
60.9200,0.558
60.9600,0.554
61.0000,0.533
61.0400,0.552
61.0800,0.590
61.1200,0.522
61.1600,0.544
61.2000,0.531
61.2400,0.505
61.2800,0.503
61.3200,0.480
61.3600,0.514
61.4000,0.500
61.4400,0.516
61.4800,0.527
61.5200,0.569
61.5600,0.533
61.6000,0.569
61.6400,0.638
61.6800,0.578
61.7200,0.521
61.7600,0.555
61.8000,0.554
61.8400,0.477
61.8800,0.547
61.9200,0.531
61.9600,0.550
62.0000,0.481
62.0400,0.524
62.0800,0.511
62.1200,0.516
62.1600,0.583
62.2000,0.520
62.2400,0.547
62.2800,0.517
62.3200,0.519
62.3600,0.498
62.4000,0.516
62.4400,0.504
62.4800,0.542
62.5200,0.514
62.5600,0.498
62.6000,0.550
62.6400,0.526
62.6800,0.530
62.7200,0.534
62.7600,0.548
62.8000,0.582
62.8400,0.538
62.8800,0.528
62.9200,0.546
62.9600,0.563
63.0000,0.541
63.0400,0.578
63.0800,0.512
63.1200,0.545
63.1600,0.553
63.2000,0.542
63.2400,0.545
63.2800,0.548
63.3200,0.538
63.3600,0.574
63.4000,0.560
63.4400,0.540
63.4800,0.544
63.5200,0.527
63.5600,0.528
63.6000,0.563
63.6400,0.607
63.6800,0.654
63.7200,0.645
63.7600,0.618
63.8000,0.603
63.8400,0.652
63.8800,0.671
63.9200,0.719
63.9600,0.744
64.0000,0.752
64.0400,0.800
64.0800,0.856
64.1200,0.905
64.1600,0.985
64.2000,1.138
64.2400,1.247
64.2800,1.545
64.3200,2.172
64.3600,3.517
64.4000,6.072
64.4400,7.942
64.4800,6.626
64.5200,4.414
64.5600,3.915
64.6000,4.806
64.6400,4.596
64.6800,3.161
64.7200,1.944
64.7600,1.456
64.8000,1.236
64.8400,1.030
64.8800,0.924
64.9200,0.916
64.9600,0.816
65.0000,0.777
65.0400,0.800
65.0800,0.695
65.1200,0.708
65.1600,0.666
65.2000,0.655
65.2400,0.654
65.2800,0.629
65.3200,0.656
65.3600,0.595
65.4000,0.640
65.4400,0.613
65.4800,0.612
65.5200,0.601
65.5600,0.609
65.6000,0.589
65.6400,0.580
65.6800,0.633
65.7200,0.624
65.7600,0.605
65.8000,0.618
65.8400,0.595
65.8800,0.651
65.9200,0.603
65.9600,0.599
66.0000,0.645
66.0400,0.630
66.0800,0.659
66.1200,0.598
66.1600,0.648
66.2000,0.635
66.2400,0.627
66.2800,0.628
66.3200,0.595
66.3600,0.648
66.4000,0.637
66.4400,0.636
66.4800,0.640
66.5200,0.660
66.5600,0.644
66.6000,0.670
66.6400,0.714
66.6800,0.698
66.7200,0.656
66.7600,0.703
66.8000,0.700
66.8400,0.713
66.8800,0.722
66.9200,0.725
66.9600,0.731
67.0000,0.718
67.0400,0.740
67.0800,0.726
67.1200,0.786
67.1600,0.811
67.2000,0.766
67.2400,0.775
67.2800,0.840
67.3200,0.803
67.3600,0.856
67.4000,0.800
67.4400,0.821
67.4800,0.844
67.5200,0.871
67.5600,0.877
67.6000,0.894
67.6400,0.915
67.6800,0.907
67.7200,0.966
67.7600,0.942
67.8000,0.962
67.8400,1.040
67.8800,1.034
67.9200,1.016
67.9600,1.050
68.0000,1.106
68.0400,1.088
68.0800,1.123
68.1200,1.168
68.1600,1.184
68.2000,1.222
68.2400,1.218
68.2800,1.305
68.3200,1.341
68.3600,1.307
68.4000,1.442
68.4400,1.505
68.4800,1.543
68.5200,1.695
68.5600,1.748
68.6000,1.812
68.6400,1.997
68.6800,2.337
68.7200,2.887
68.7600,3.686
68.8000,4.224
68.8400,4.399
68.8800,4.527
68.9200,4.990
68.9600,6.426
69.0000,10.199
69.0400,22.367
69.0800,100.004
69.1200,271.922
69.1600,233.832
69.2000,69.180
69.2400,28.186
69.2800,64.570
69.3200,142.370
69.3600,115.802
69.4000,34.474
69.4400,11.003
69.4800,6.454
69.5200,4.844
69.5600,3.803
69.6000,3.268
69.6400,2.860
69.6800,2.612
69.7200,2.315
69.7600,2.180
69.8000,2.015
69.8400,1.865
69.8800,1.850
69.9200,1.575
69.9600,1.647
70.0000,1.560
70.0400,1.552
70.0800,1.507
70.1200,1.417
70.1600,1.373
70.2000,1.322
70.2400,1.321
70.2800,1.190
70.3200,1.257
70.3600,1.156
70.4000,1.131
70.4400,1.081
70.4800,1.085
70.5200,1.056
70.5600,1.085
70.6000,1.007
70.6400,1.025
70.6800,0.986
70.7200,1.017
70.7600,0.875
70.8000,0.933
70.8400,0.844
70.8800,0.881
70.9200,0.871
70.9600,0.839
71.0000,0.787
71.0400,0.794
71.0800,0.753
71.1200,0.779
71.1600,0.769
71.2000,0.759
71.2400,0.732
71.2800,0.759
71.3200,0.704
71.3600,0.677
71.4000,0.674
71.4400,0.671
71.4800,0.624
71.5200,0.615
71.5600,0.594
71.6000,0.644
71.6400,0.651
71.6800,0.609
71.7200,0.632
71.7600,0.570
71.8000,0.563
71.8400,0.574
71.8800,0.602
71.9200,0.562
71.9600,0.581
72.0000,0.503
72.0400,0.533
72.0800,0.517
72.1200,0.509
72.1600,0.546
72.2000,0.526
72.2400,0.513
72.2800,0.488
72.3200,0.495
72.3600,0.470
72.4000,0.491
72.4400,0.462
72.4800,0.489
72.5200,0.502
72.5600,0.462
72.6000,0.467
72.6400,0.440
72.6800,0.514
72.7200,0.465
72.7600,0.426
72.8000,0.472
72.8400,0.481
72.8800,0.446
72.9200,0.457
72.9600,0.435
73.0000,0.436
73.0400,0.468
73.0800,0.459
73.1200,0.462
73.1600,0.428
73.2000,0.448
73.2400,0.462
73.2800,0.444
73.3200,0.433
73.3600,0.427
73.4000,0.432
73.4400,0.456
73.4800,0.412
73.5200,0.396
73.5600,0.430
73.6000,0.389
73.6400,0.414
73.6800,0.369
73.7200,0.440
73.7600,0.407
73.8000,0.421
73.8400,0.449
73.8800,0.432
73.9200,0.402
73.9600,0.395
74.0000,0.366
74.0400,0.368
74.0800,0.410
74.1200,0.389
74.1600,0.398
74.2000,0.344
74.2400,0.381
74.2800,0.365
74.3200,0.382
74.3600,0.388
74.4000,0.375
74.4400,0.395
74.4800,0.370
74.5200,0.379
74.5600,0.382
74.6000,0.416
74.6400,0.364
74.6800,0.361
74.7200,0.377
74.7600,0.371
74.8000,0.388
74.8400,0.364
74.8800,0.361
74.9200,0.390
74.9600,0.359
75.0000,0.355
75.0400,0.387
75.0800,0.338
75.1200,0.330
75.1600,0.393
75.2000,0.394
75.2400,0.378
75.2800,0.396
75.3200,0.406
75.3600,0.400
75.4000,0.376
75.4400,0.344
75.4800,0.386
75.5200,0.383
75.5600,0.357
75.6000,0.408
75.6400,0.364
75.6800,0.383
75.7200,0.341
75.7600,0.369
75.8000,0.382
75.8400,0.391
75.8800,0.370
75.9200,0.377
75.9600,0.372
76.0000,0.373
76.0400,0.379
76.0800,0.404
76.1200,0.348
76.1600,0.382
76.2000,0.370
76.2400,0.393
76.2800,0.354
76.3200,0.363
76.3600,0.422
76.4000,0.408
76.4400,0.363
76.4800,0.406
76.5200,0.418
76.5600,0.409
76.6000,0.438
76.6400,0.459
76.6800,0.427
76.7200,0.464
76.7600,0.423
76.8000,0.474
76.8400,0.481
76.8800,0.484
76.9200,0.506
76.9600,0.584
77.0000,0.612
77.0400,0.662
77.0800,0.701
77.1200,0.753
77.1600,0.872
77.2000,1.132
77.2400,1.546
77.2800,2.200
77.3200,3.633
77.3600,5.758
77.4000,6.867
77.4400,5.557
77.4800,3.743
77.5200,2.988
77.5600,3.261
77.6000,3.872
77.6400,3.929
77.6800,2.953
77.7200,1.894
77.7600,1.331
77.8000,0.968
77.8400,0.817
77.8800,0.686
77.9200,0.599
77.9600,0.549
78.0000,0.528
78.0400,0.481
78.0800,0.488
78.1200,0.471
78.1600,0.430
78.2000,0.413
78.2400,0.438
78.2800,0.388
78.3200,0.408
78.3600,0.390
78.4000,0.364
78.4400,0.415
78.4800,0.375
78.5200,0.356
78.5600,0.323
78.6000,0.333
78.6400,0.337
78.6800,0.342
78.7200,0.359
78.7600,0.362
78.8000,0.364
78.8400,0.342
78.8800,0.327
78.9200,0.340
78.9600,0.350
79.0000,0.356
79.0400,0.353
79.0800,0.314
79.1200,0.325
79.1600,0.330
79.2000,0.363
79.2400,0.335
79.2800,0.337
79.3200,0.301
79.3600,0.327
79.4000,0.317
79.4400,0.323
79.4800,0.325
79.5200,0.313
79.5600,0.329
79.6000,0.351
79.6400,0.302
79.6800,0.313
79.7200,0.296
79.7600,0.327
79.8000,0.316
79.8400,0.302
79.8800,0.318
79.9200,0.312
79.9600,0.285
80.0000,0.302
