theta,intensity
5.0000,5.060
5.0400,4.916
5.0800,4.894
5.1200,4.877
5.1600,4.743
5.2000,4.757
5.2400,4.708
5.2800,4.600
5.3200,4.554
5.3600,4.470
5.4000,4.396
5.4400,4.369
5.4800,4.357
5.5200,4.356
5.5600,4.361
5.6000,4.305
5.6400,4.268
5.6800,4.332
5.7200,4.202
5.7600,4.412
5.8000,4.303
5.8400,4.299
5.8800,4.292
5.9200,4.300
5.9600,4.207
6.0000,4.136
6.0400,4.212
6.0800,4.128
6.1200,4.273
6.1600,4.122
6.2000,4.249
6.2400,4.187
6.2800,4.222
6.3200,4.112
6.3600,4.132
6.4000,4.128
6.4400,4.202
6.4800,4.031
6.5200,4.187
6.5600,4.097
6.6000,4.141
6.6400,4.084
6.6800,4.133
6.7200,4.094
6.7600,4.179
6.8000,4.096
6.8400,4.032
6.8800,4.087
6.9200,3.989
6.9600,4.035
7.0000,4.158
7.0400,4.013
7.0800,4.015
7.1200,3.936
7.1600,3.953
7.2000,3.906
7.2400,3.938
7.2800,4.036
7.3200,4.213
7.3600,4.011
7.4000,4.033
7.4400,3.947
7.4800,3.919
7.5200,4.054
7.5600,3.921
7.6000,3.914
7.6400,3.812
7.6800,4.043
7.7200,3.930
7.7600,4.058
7.8000,3.876
7.8400,3.885
7.8800,3.875
7.9200,3.869
7.9600,3.893
8.0000,3.902
8.0400,3.814
8.0800,3.851
8.1200,3.828
8.1600,3.784
8.2000,3.861
8.2400,3.805
8.2800,3.871
8.3200,3.938
8.3600,3.834
8.4000,3.894
8.4400,3.885
8.4800,3.837
8.5200,3.896
8.5600,3.837
8.6000,3.919
8.6400,3.799
8.6800,3.837
8.7200,3.787
8.7600,3.811
8.8000,3.755
8.8400,3.815
8.8800,3.906
8.9200,3.824
8.9600,3.734
9.0000,3.745
9.0400,3.812
9.0800,3.768
9.1200,3.834
9.1600,3.760
9.2000,3.804
9.2400,3.702
9.2800,3.769
9.3200,3.792
9.3600,3.721
9.4000,3.783
9.4400,3.793
9.4800,3.736
9.5200,3.666
9.5600,3.757
9.6000,3.675
9.6400,3.752
9.6800,3.616
9.7200,3.674
9.7600,3.589
9.8000,3.661
9.8400,3.669
9.8800,3.668
9.9200,3.612
9.9600,3.594
10.0000,3.632
10.0400,3.660
10.0800,3.630
10.1200,3.482
10.1600,3.640
10.2000,3.682
10.2400,3.590
10.2800,3.634
10.3200,3.630
10.3600,3.588
10.4000,3.604
10.4400,3.576
10.4800,3.567
10.5200,3.617
10.5600,3.702
10.6000,3.603
10.6400,3.504
10.6800,3.532
10.7200,3.575
10.7600,3.623
10.8000,3.567
10.8400,3.572
10.8800,3.670
10.9200,3.487
10.9600,3.547
11.0000,3.567
11.0400,3.594
11.0800,3.689
11.1200,3.601
11.1600,3.462
11.2000,3.554
11.2400,3.519
11.2800,3.522
11.3200,3.449
11.3600,3.595
11.4000,3.557
11.4400,3.473
11.4800,3.559
11.5200,3.407
11.5600,3.484
11.6000,3.477
11.6400,3.458
11.6800,3.552
11.7200,3.538
11.7600,3.425
11.8000,3.440
11.8400,3.403
11.8800,3.391
11.9200,3.320
11.9600,3.489
12.0000,3.453
12.0400,3.397
12.0800,3.384
12.1200,3.424
12.1600,3.367
12.2000,3.499
12.2400,3.385
12.2800,3.397
12.3200,3.382
12.3600,3.408
12.4000,3.379
12.4400,3.473
12.4800,3.459
12.5200,3.376
12.5600,3.392
12.6000,3.387
12.6400,3.453
12.6800,3.397
12.7200,3.303
12.7600,3.350
12.8000,3.340
12.8400,3.263
12.8800,3.367
12.9200,3.350
12.9600,3.346
13.0000,3.385
13.0400,3.357
13.0800,3.441
13.1200,3.332
13.1600,3.293
13.2000,3.356
13.2400,3.339
13.2800,3.443
13.3200,3.311
13.3600,3.301
13.4000,3.319
13.4400,3.234
13.4800,3.318
13.5200,3.353
13.5600,3.250
13.6000,3.250
13.6400,3.220
13.6800,3.260
13.7200,3.313
13.7600,3.307
13.8000,3.380
13.8400,3.253
13.8800,3.289
13.9200,3.255
13.9600,3.237
14.0000,3.236
14.0400,3.172
14.0800,3.186
14.1200,3.225
14.1600,3.215
14.2000,3.279
14.2400,3.169
14.2800,3.364
14.3200,3.208
14.3600,3.219
14.4000,3.138
14.4400,3.199
14.4800,3.234
14.5200,3.151
14.5600,3.208
14.6000,3.253
14.6400,3.289
14.6800,3.214
14.7200,3.222
14.7600,3.121
14.8000,3.182
14.8400,3.170
14.8800,3.092
14.9200,3.211
14.9600,3.160
15.0000,3.061
15.0400,3.155
15.0800,3.204
15.1200,3.186
15.1600,3.135
15.2000,3.165
15.2400,3.194
15.2800,3.106
15.3200,3.068
15.3600,3.048
15.4000,3.107
15.4400,3.216
15.4800,3.150
15.5200,3.118
15.5600,3.107
15.6000,3.064
15.6400,2.998
15.6800,3.152
15.7200,3.030
15.7600,2.977
15.8000,3.070
15.8400,3.076
15.8800,2.996
15.9200,3.057
15.9600,3.067
16.0000,3.006
16.0400,3.065
16.0800,3.050
16.1200,3.076
16.1600,3.043
16.2000,3.086
16.2400,3.068
16.2800,3.118
16.3200,2.988
16.3600,2.910
16.4000,3.025
16.4400,3.067
16.4800,3.052
16.5200,3.047
16.5600,2.965
16.6000,3.031
16.6400,3.057
16.6800,2.937
16.7200,3.036
16.7600,2.993
16.8000,3.094
16.8400,2.994
16.8800,3.030
16.9200,2.934
16.9600,2.976
17.0000,3.035
17.0400,3.012
17.0800,2.958
17.1200,3.022
17.1600,2.903
17.2000,2.957
17.2400,2.911
17.2800,2.932
17.3200,2.938
17.3600,2.993
17.4000,2.899
17.4400,2.892
17.4800,2.922
17.5200,2.969
17.5600,2.925
17.6000,2.967
17.6400,2.920
17.6800,2.841
17.7200,2.967
17.7600,2.877
17.8000,2.894
17.8400,2.746
17.8800,2.933
17.9200,2.918
17.9600,2.881
18.0000,2.846
18.0400,2.822
18.0800,2.846
18.1200,2.912
18.1600,2.914
18.2000,2.874
18.2400,2.785
18.2800,2.827
18.3200,2.885
18.3600,2.775
18.4000,2.813
18.4400,2.795
18.4800,2.822
18.5200,2.791
18.5600,2.824
18.6000,2.808
18.6400,2.900
18.6800,2.882
18.7200,2.735
18.7600,2.905
18.8000,2.779
18.8400,2.878
18.8800,2.764
18.9200,2.842
18.9600,2.808
19.0000,2.831
19.0400,2.844
19.0800,2.835
19.1200,2.672
19.1600,2.744
19.2000,2.789
19.2400,2.737
19.2800,2.784
19.3200,2.728
19.3600,2.678
19.4000,2.723
19.4400,2.673
19.4800,2.647
19.5200,2.722
19.5600,2.730
19.6000,2.796
19.6400,2.651
19.6800,2.761
19.7200,2.635
19.7600,2.776
19.8000,2.669
19.8400,2.628
19.8800,2.728
19.9200,2.605
19.9600,2.737
20.0000,2.724
20.0400,2.766
20.0800,2.593
20.1200,2.653
20.1600,2.631
20.2000,2.652
20.2400,2.696
20.2800,2.611
20.3200,2.548
20.3600,2.697
20.4000,2.575
20.4400,2.690
20.4800,2.650
20.5200,2.617
20.5600,2.581
20.6000,2.549
20.6400,2.630
20.6800,2.578
20.7200,2.628
20.7600,2.575
20.8000,2.593
20.8400,2.571
20.8800,2.480
20.9200,2.659
20.9600,2.668
21.0000,2.533
21.0400,2.520
21.0800,2.604
21.1200,2.554
21.1600,2.673
21.2000,2.601
21.2400,2.475
21.2800,2.485
21.3200,2.598
21.3600,2.636
21.4000,2.521
21.4400,2.562
21.4800,2.607
21.5200,2.568
21.5600,2.591
21.6000,2.533
21.6400,2.544
21.6800,2.451
21.7200,2.558
21.7600,2.509
21.8000,2.432
21.8400,2.583
21.8800,2.493
21.9200,2.537
21.9600,2.505
22.0000,2.548
22.0400,2.490
22.0800,2.433
22.1200,2.477
22.1600,2.425
22.2000,2.443
22.2400,2.426
22.2800,2.475
22.3200,2.416
22.3600,2.412
22.4000,2.473
22.4400,2.429
22.4800,2.416
22.5200,2.460
22.5600,2.413
22.6000,2.439
22.6400,2.476
22.6800,2.402
22.7200,2.329
22.7600,2.467
22.8000,2.467
22.8400,2.437
22.8800,2.352
22.9200,2.366
22.9600,2.281
23.0000,2.449
23.0400,2.453
23.0800,2.432
23.1200,2.389
23.1600,2.401
23.2000,2.406
23.2400,2.467
23.2800,2.401
23.3200,2.445
23.3600,2.407
23.4000,2.352
23.4400,2.410
23.4800,2.356
23.5200,2.344
23.5600,2.315
23.6000,2.374
23.6400,2.382
23.6800,2.327
23.7200,2.389
23.7600,2.291
23.8000,2.351
23.8400,2.282
23.8800,2.341
23.9200,2.374
23.9600,2.417
24.0000,2.356
24.0400,2.348
24.0800,2.266
24.1200,2.315
24.1600,2.318
24.2000,2.332
24.2400,2.280
24.2800,2.316
24.3200,2.227
24.3600,2.274
24.4000,2.220
24.4400,2.189
24.4800,2.259
24.5200,2.316
24.5600,2.332
24.6000,2.189
24.6400,2.301
24.6800,2.251
24.7200,2.276
24.7600,2.220
24.8000,2.150
24.8400,2.184
24.8800,2.210
24.9200,2.229
24.9600,2.187
25.0000,2.138
25.0400,2.224
25.0800,2.170
25.1200,2.278
25.1600,2.205
25.2000,2.230
25.2400,2.219
25.2800,2.228
25.3200,2.151
25.3600,2.230
25.4000,2.210
25.4400,2.183
25.4800,2.144
25.5200,2.118
25.5600,2.201
25.6000,2.120
25.6400,2.132
25.6800,2.168
25.7200,2.222
25.7600,2.156
25.8000,2.165
25.8400,2.179
25.8800,2.166
25.9200,2.126
25.9600,2.104
26.0000,2.132
26.0400,2.134
26.0800,2.174
26.1200,2.143
26.1600,2.108
26.2000,2.131
26.2400,2.099
26.2800,2.157
26.3200,2.115
26.3600,2.117
26.4000,2.177
26.4400,2.041
26.4800,2.098
26.5200,2.114
26.5600,2.076
26.6000,2.089
26.6400,2.099
26.6800,2.096
26.7200,2.072
26.7600,2.086
26.8000,2.156
26.8400,2.092
26.8800,2.081
26.9200,2.061
26.9600,2.060
27.0000,2.108
27.0400,2.063
27.0800,2.029
27.1200,2.014
27.1600,2.020
27.2000,2.093
27.2400,1.930
27.2800,2.038
27.3200,2.046
27.3600,2.039
27.4000,2.083
27.4400,2.084
27.4800,2.077
27.5200,1.969
27.5600,2.104
27.6000,2.043
27.6400,2.040
27.6800,1.921
27.7200,1.978
27.7600,2.045
27.8000,2.072
27.8400,1.991
27.8800,2.025
27.9200,2.033
27.9600,1.929
28.0000,1.959
28.0400,1.928
28.0800,1.975
28.1200,2.005
28.1600,1.968
28.2000,1.938
28.2400,1.996
28.2800,1.971
28.3200,1.978
28.3600,1.827
28.4000,1.958
28.4400,1.937
28.4800,1.909
28.5200,1.979
28.5600,1.946
28.6000,1.874
28.6400,1.924
28.6800,1.908
28.7200,1.847
28.7600,1.879
28.8000,1.896
28.8400,1.914
28.8800,1.908
28.9200,1.949
28.9600,1.862
29.0000,1.913
29.0400,1.876
29.0800,1.872
29.1200,1.932
29.1600,1.853
29.2000,1.849
29.2400,1.919
29.2800,1.825
29.3200,1.897
29.3600,1.822
29.4000,1.836
29.4400,1.820
29.4800,1.771
29.5200,1.915
29.5600,1.793
29.6000,1.872
29.6400,1.856
29.6800,1.899
29.7200,1.836
29.7600,1.841
29.8000,1.872
29.8400,1.853
29.8800,1.859
29.9200,1.901
29.9600,1.765
30.0000,1.825
30.0400,1.862
30.0800,1.797
30.1200,1.757
30.1600,1.883
30.2000,1.766
30.2400,1.744
30.2800,1.802
30.3200,1.822
30.3600,1.761
30.4000,1.735
30.4400,1.750
30.4800,1.729
30.5200,1.800
30.5600,1.782
30.6000,1.712
30.6400,1.776
30.6800,1.751
30.7200,1.723
30.7600,1.751
30.8000,1.769
30.8400,1.800
30.8800,1.797
30.9200,1.771
30.9600,1.725
31.0000,1.711
31.0400,1.683
31.0800,1.732
31.1200,1.763
31.1600,1.805
31.2000,1.710
31.2400,1.677
31.2800,1.796
31.3200,1.678
31.3600,1.705
31.4000,1.761
31.4400,1.718
31.4800,1.708
31.5200,1.762
31.5600,1.787
31.6000,1.717
31.6400,1.695
31.6800,1.690
31.7200,1.741
31.7600,1.717
31.8000,1.671
31.8400,1.654
31.8800,1.635
31.9200,1.701
31.9600,1.693
32.0000,1.682
32.0400,1.697
32.0800,1.634
32.1200,1.693
32.1600,1.640
32.2000,1.732
32.2400,1.616
32.2800,1.636
32.3200,1.682
32.3600,1.710
32.4000,1.639
32.4400,1.631
32.4800,1.621
32.5200,1.624
32.5600,1.687
32.6000,1.688
32.6400,1.662
32.6800,1.651
32.7200,1.652
32.7600,1.694
32.8000,1.704
32.8400,1.725
32.8800,1.629
32.9200,1.597
32.9600,1.633
33.0000,1.620
33.0400,1.652
33.0800,1.613
33.1200,1.629
33.1600,1.644
33.2000,1.649
33.2400,1.646
33.2800,1.585
33.3200,1.645
33.3600,1.596
33.4000,1.660
33.4400,1.592
33.4800,1.611
33.5200,1.567
33.5600,1.591
33.6000,1.624
33.6400,1.563
33.6800,1.588
33.7200,1.571
33.7600,1.564
33.8000,1.561
33.8400,1.542
33.8800,1.568
33.9200,1.531
33.9600,1.579
34.0000,1.523
34.0400,1.512
34.0800,1.561
34.1200,1.591
34.1600,1.550
34.2000,1.534
34.2400,1.499
34.2800,1.496
34.3200,1.559
34.3600,1.502
34.4000,1.546
34.4400,1.501
34.4800,1.532
34.5200,1.520
34.5600,1.539
34.6000,1.465
34.6400,1.465
34.6800,1.531
34.7200,1.542
34.7600,1.499
34.8000,1.483
34.8400,1.503
34.8800,1.509
34.9200,1.492
34.9600,1.566
35.0000,1.454
35.0400,1.510
35.0800,1.537
35.1200,1.498
35.1600,1.489
35.2000,1.561
35.2400,1.524
35.2800,1.493
35.3200,1.479
35.3600,1.589
35.4000,1.455
35.4400,1.489
35.4800,1.458
35.5200,1.425
35.5600,1.497
35.6000,1.492
35.6400,1.524
35.6800,1.468
35.7200,1.444
35.7600,1.510
35.8000,1.554
35.8400,1.458
35.8800,1.457
35.9200,1.509
35.9600,1.471
36.0000,1.459
36.0400,1.431
36.0800,1.466
36.1200,1.467
36.1600,1.515
36.2000,1.426
36.2400,1.511
36.2800,1.492
36.3200,1.477
36.3600,1.490
36.4000,1.490
36.4400,1.431
36.4800,1.481
36.5200,1.472
36.5600,1.507
36.6000,1.482
36.6400,1.436
36.6800,1.520
36.7200,1.520
36.7600,1.451
36.8000,1.480
36.8400,1.523
36.8800,1.505
36.9200,1.505
36.9600,1.518
37.0000,1.524
37.0400,1.520
37.0800,1.494
37.1200,1.530
37.1600,1.530
37.2000,1.519
37.2400,1.517
37.2800,1.551
37.3200,1.575
37.3600,1.533
37.4000,1.629
37.4400,1.625
37.4800,1.634
37.5200,1.623
37.5600,1.701
37.6000,1.658
37.6400,1.732
37.6800,1.758
37.7200,1.737
37.7600,1.715
37.8000,1.790
37.8400,1.877
37.8800,1.925
37.9200,1.907
37.9600,2.009
38.0000,2.104
38.0400,2.186
38.0800,2.223
38.1200,2.324
38.1600,2.356
38.2000,2.585
38.2400,2.663
38.2800,2.864
38.3200,2.894
38.3600,3.040
38.4000,3.146
38.4400,3.242
38.4800,3.420
38.5200,3.566
38.5600,3.760
38.6000,3.965
38.6400,4.215
38.6800,4.523
38.7200,4.781
38.7600,4.947
38.8000,5.485
38.8400,5.948
38.8800,6.176
38.9200,6.229
38.9600,5.962
39.0000,5.831
39.0400,5.453
39.0800,4.900
39.1200,4.499
39.1600,4.254
39.2000,4.025
39.2400,3.746
39.2800,3.753
39.3200,3.443
39.3600,3.484
39.4000,3.318
39.4400,3.251
39.4800,3.089
39.5200,3.075
39.5600,2.994
39.6000,3.018
39.6400,2.831
39.6800,2.838
39.7200,2.779
39.7600,2.791
39.8000,2.730
39.8400,2.668
39.8800,2.567
39.9200,2.561
39.9600,2.520
40.0000,2.390
40.0400,2.297
40.0800,2.303
40.1200,2.251
40.1600,2.189
40.2000,2.115
40.2400,2.108
40.2800,2.080
40.3200,1.972
40.3600,1.949
40.4000,1.807
40.4400,1.807
40.4800,1.871
40.5200,1.769
40.5600,1.759
40.6000,1.720
40.6400,1.694
40.6800,1.679
40.7200,1.687
40.7600,1.648
40.8000,1.580
40.8400,1.572
40.8800,1.612
40.9200,1.484
40.9600,1.502
41.0000,1.481
41.0400,1.474
41.0800,1.466
41.1200,1.445
41.1600,1.441
41.2000,1.436
41.2400,1.410
41.2800,1.413
41.3200,1.361
41.3600,1.431
41.4000,1.441
41.4400,1.378
41.4800,1.376
41.5200,1.393
41.5600,1.285
41.6000,1.373
41.6400,1.324
41.6800,1.318
41.7200,1.303
41.7600,1.270
41.8000,1.266
41.8400,1.271
41.8800,1.316
41.9200,1.320
41.9600,1.354
42.0000,1.308
42.0400,1.288
42.0800,1.341
42.1200,1.256
42.1600,1.258
42.2000,1.228
42.2400,1.235
42.2800,1.287
42.3200,1.250
42.3600,1.231
42.4000,1.269
42.4400,1.320
42.4800,1.229
42.5200,1.219
42.5600,1.175
42.6000,1.271
42.6400,1.211
42.6800,1.234
42.7200,1.284
42.7600,1.299
42.8000,1.298
42.8400,1.226
42.8800,1.196
42.9200,1.222
42.9600,1.257
43.0000,1.263
43.0400,1.282
43.0800,1.199
43.1200,1.235
43.1600,1.218
43.2000,1.235
43.2400,1.260
43.2800,1.244
43.3200,1.224
43.3600,1.262
43.4000,1.259
43.4400,1.255
43.4800,1.184
43.5200,1.288
43.5600,1.317
43.6000,1.273
43.6400,1.342
43.6800,1.331
43.7200,1.295
43.7600,1.299
43.8000,1.337
43.8400,1.294
43.8800,1.334
43.9200,1.359
43.9600,1.341
44.0000,1.274
44.0400,1.361
44.0800,1.363
44.1200,1.373
44.1600,1.433
44.2000,1.375
44.2400,1.439
44.2800,1.577
44.3200,1.476
44.3600,1.527
44.4000,1.641
44.4400,1.531
44.4800,1.528
44.5200,1.589
44.5600,1.532
44.6000,1.615
44.6400,1.692
44.6800,1.662
44.7200,1.749
44.7600,1.743
44.8000,1.767
44.8400,1.830
44.8800,1.863
44.9200,1.980
44.9600,1.957
45.0000,2.020
45.0400,2.012
45.0800,2.123
45.1200,2.123
45.1600,2.195
45.2000,2.241
45.2400,2.191
45.2800,2.179
45.3200,2.195
45.3600,2.122
45.4000,2.007
45.4400,2.063
45.4800,1.955
45.5200,1.832
45.5600,1.864
45.6000,1.812
45.6400,1.776
45.6800,1.695
45.7200,1.755
45.7600,1.625
45.8000,1.578
45.8400,1.554
45.8800,1.478
45.9200,1.521
45.9600,1.368
46.0000,1.414
46.0400,1.421
46.0800,1.417
46.1200,1.358
46.1600,1.348
46.2000,1.435
46.2400,1.318
46.2800,1.321
46.3200,1.319
46.3600,1.334
46.4000,1.294
46.4400,1.272
46.4800,1.317
46.5200,1.264
46.5600,1.219
46.6000,1.213
46.6400,1.181
46.6800,1.235
46.7200,1.149
46.7600,1.168
46.8000,1.191
46.8400,1.152
46.8800,1.136
46.9200,1.185
46.9600,1.130
47.0000,1.064
47.0400,1.067
47.0800,1.080
47.1200,1.059
47.1600,1.084
47.2000,1.030
47.2400,1.051
47.2800,0.999
47.3200,1.010
47.3600,1.075
47.4000,0.965
47.4400,0.991
47.4800,0.956
47.5200,0.977
47.5600,0.984
47.6000,1.005
47.6400,0.952
47.6800,0.945
47.7200,0.978
47.7600,0.917
47.8000,0.939
47.8400,0.963
47.8800,0.914
47.9200,0.915
47.9600,0.928
48.0000,0.929
48.0400,0.882
48.0800,0.897
48.1200,0.865
48.1600,0.887
48.2000,0.870
48.2400,0.924
48.2800,0.893
48.3200,0.904
48.3600,0.942
48.4000,0.881
48.4400,0.848
48.4800,0.869
48.5200,0.857
48.5600,0.877
48.6000,0.860
48.6400,0.877
48.6800,0.867
48.7200,0.912
48.7600,0.857
48.8000,0.854
48.8400,0.845
48.8800,0.881
48.9200,0.906
48.9600,0.884
49.0000,0.874
49.0400,0.866
49.0800,0.803
49.1200,0.853
49.1600,0.837
49.2000,0.854
49.2400,0.811
49.2800,0.842
49.3200,0.799
49.3600,0.832
49.4000,0.835
49.4400,0.791
49.4800,0.816
49.5200,0.809
49.5600,0.781
49.6000,0.815
49.6400,0.825
49.6800,0.837
49.7200,0.814
49.7600,0.798
49.8000,0.818
49.8400,0.781
49.8800,0.799
49.9200,0.822
49.9600,0.830
50.0000,0.796
50.0400,0.757
50.0800,0.742
50.1200,0.790
50.1600,0.729
50.2000,0.764
50.2400,0.794
50.2800,0.775
50.3200,0.795
50.3600,0.788
50.4000,0.791
50.4400,0.812
50.4800,0.755
50.5200,0.754
50.5600,0.788
50.6000,0.763
50.6400,0.771
50.6800,0.747
50.7200,0.766
50.7600,0.740
50.8000,0.773
50.8400,0.778
50.8800,0.760
50.9200,0.751
50.9600,0.735
51.0000,0.756
51.0400,0.780
51.0800,0.729
51.1200,0.780
51.1600,0.766
51.2000,0.757
51.2400,0.784
51.2800,0.696
51.3200,0.726
51.3600,0.799
51.4000,0.787
51.4400,0.735
51.4800,0.734
51.5200,0.758
51.5600,0.685
51.6000,0.702
51.6400,0.738
51.6800,0.721
51.7200,0.745
51.7600,0.735
51.8000,0.709
51.8400,0.759
51.8800,0.725
51.9200,0.697
51.9600,0.707
52.0000,0.719
52.0400,0.742
52.0800,0.691
52.1200,0.739
52.1600,0.733
52.2000,0.689
52.2400,0.760
52.2800,0.690
52.3200,0.680
52.3600,0.740
52.4000,0.690
52.4400,0.728
52.4800,0.707
52.5200,0.719
52.5600,0.680
52.6000,0.699
52.6400,0.717
52.6800,0.703
52.7200,0.693
52.7600,0.701
52.8000,0.703
52.8400,0.732
52.8800,0.700
52.9200,0.706
52.9600,0.723
53.0000,0.705
53.0400,0.729
53.0800,0.740
53.1200,0.709
53.1600,0.716
53.2000,0.684
53.2400,0.667
53.2800,0.683
53.3200,0.696
53.3600,0.709
53.4000,0.680
53.4400,0.703
53.4800,0.697
53.5200,0.672
53.5600,0.673
53.6000,0.660
53.6400,0.662
53.6800,0.682
53.7200,0.640
53.7600,0.705
53.8000,0.680
53.8400,0.717
53.8800,0.688
53.9200,0.663
53.9600,0.700
54.0000,0.698
54.0400,0.702
54.0800,0.676
54.1200,0.683
54.1600,0.724
54.2000,0.679
54.2400,0.660
54.2800,0.666
54.3200,0.687
54.3600,0.646
54.4000,0.669
54.4400,0.695
54.4800,0.697
54.5200,0.699
54.5600,0.649
54.6000,0.659
54.6400,0.626
54.6800,0.633
54.7200,0.647
54.7600,0.616
54.8000,0.629
54.8400,0.642
54.8800,0.609
54.9200,0.630
54.9600,0.666
55.0000,0.662
55.0400,0.650
55.0800,0.630
55.1200,0.700
55.1600,0.631
55.2000,0.673
55.2400,0.634
55.2800,0.639
55.3200,0.672
55.3600,0.630
55.4000,0.656
55.4400,0.640
55.4800,0.645
55.5200,0.671
55.5600,0.611
55.6000,0.643
55.6400,0.618
55.6800,0.674
55.7200,0.607
55.7600,0.620
55.8000,0.628
55.8400,0.693
55.8800,0.645
55.9200,0.634
55.9600,0.600
56.0000,0.620
56.0400,0.630
56.0800,0.628
56.1200,0.623
56.1600,0.625
56.2000,0.613
56.2400,0.615
56.2800,0.592
56.3200,0.639
56.3600,0.689
56.4000,0.609
56.4400,0.608
56.4800,0.617
56.5200,0.653
56.5600,0.663
56.6000,0.663
56.6400,0.652
56.6800,0.603
56.7200,0.655
56.7600,0.647
56.8000,0.581
56.8400,0.592
56.8800,0.590
56.9200,0.593
56.9600,0.604
57.0000,0.597
57.0400,0.630
57.0800,0.608
57.1200,0.641
57.1600,0.583
57.2000,0.594
57.2400,0.610
57.2800,0.616
57.3200,0.594
57.3600,0.608
57.4000,0.645
57.4400,0.592
57.4800,0.579
57.5200,0.600
57.5600,0.601
57.6000,0.612
57.6400,0.582
57.6800,0.613
57.7200,0.574
57.7600,0.563
57.8000,0.634
57.8400,0.596
57.8800,0.600
57.9200,0.586
57.9600,0.616
58.0000,0.576
58.0400,0.603
58.0800,0.611
58.1200,0.596
58.1600,0.630
58.2000,0.573
58.2400,0.566
58.2800,0.600
58.3200,0.574
58.3600,0.562
58.4000,0.589
58.4400,0.599
58.4800,0.610
58.5200,0.569
58.5600,0.611
58.6000,0.568
58.6400,0.563
58.6800,0.572
58.7200,0.633
58.7600,0.612
58.8000,0.601
58.8400,0.583
58.8800,0.589
58.9200,0.603
58.9600,0.559
59.0000,0.556
59.0400,0.548
59.0800,0.626
59.1200,0.587
59.1600,0.586
59.2000,0.554
59.2400,0.580
59.2800,0.585
59.3200,0.577
59.3600,0.549
59.4000,0.563
59.4400,0.554
59.4800,0.599
59.5200,0.564
59.5600,0.598
59.6000,0.551
59.6400,0.602
59.6800,0.587
59.7200,0.577
59.7600,0.542
59.8000,0.594
59.8400,0.559
59.8800,0.576
59.9200,0.554
59.9600,0.553
60.0000,0.563
60.0400,0.557
60.0800,0.559
60.1200,0.561
60.1600,0.576
60.2000,0.564
60.2400,0.562
60.2800,0.558
60.3200,0.551
60.3600,0.592
60.4000,0.547
60.4400,0.615
60.4800,0.526
60.5200,0.568
60.5600,0.572
60.6000,0.533
60.6400,0.544
60.6800,0.544
60.7200,0.510
60.7600,0.511
60.8000,0.560
60.8400,0.574
60.8800,0.557
60.9200,0.550
60.9600,0.560
61.0000,0.584
61.0400,0.554
61.0800,0.553
61.1200,0.549
61.1600,0.564
61.2000,0.473
61.2400,0.496
61.2800,0.578
61.3200,0.571
61.3600,0.544
61.4000,0.572
61.4400,0.561
61.4800,0.543
61.5200,0.579
61.5600,0.554
61.6000,0.584
61.6400,0.637
61.6800,0.648
61.7200,0.561
61.7600,0.543
61.8000,0.540
61.8400,0.517
61.8800,0.554
61.9200,0.523
61.9600,0.535
62.0000,0.580
62.0400,0.577
62.0800,0.534
62.1200,0.539
62.1600,0.516
62.2000,0.533
62.2400,0.546
62.2800,0.589
62.3200,0.541
62.3600,0.540
62.4000,0.532
62.4400,0.523
62.4800,0.533
62.5200,0.548
62.5600,0.558
62.6000,0.549
62.6400,0.537
62.6800,0.530
62.7200,0.556
62.7600,0.547
62.8000,0.541
62.8400,0.564
62.8800,0.581
62.9200,0.582
62.9600,0.574
63.0000,0.574
63.0400,0.566
63.0800,0.543
63.1200,0.509
63.1600,0.570
63.2000,0.547
63.2400,0.542
63.2800,0.556
63.3200,0.566
63.3600,0.541
63.4000,0.586
63.4400,0.576
63.4800,0.571
63.5200,0.531
63.5600,0.538
63.6000,0.556
63.6400,0.582
63.6800,0.581
63.7200,0.570
63.7600,0.574
63.8000,0.612
63.8400,0.627
63.8800,0.572
63.9200,0.588
63.9600,0.565
64.0000,0.573
64.0400,0.552
64.0800,0.569
64.1200,0.604
64.1600,0.633
64.2000,0.627
64.2400,0.643
64.2800,0.664
64.3200,0.630
64.3600,0.610
64.4000,0.708
64.4400,0.644
64.4800,0.626
64.5200,0.651
64.5600,0.695
64.6000,0.698
64.6400,0.658
64.6800,0.723
64.7200,0.689
64.7600,0.718
64.8000,0.691
64.8400,0.747
64.8800,0.718
64.9200,0.714
64.9600,0.704
65.0000,0.744
65.0400,0.723
65.0800,0.796
65.1200,0.807
65.1600,0.783
65.2000,0.804
65.2400,0.813
65.2800,0.837
65.3200,0.847
65.3600,0.887
65.4000,0.930
65.4400,0.851
65.4800,0.923
65.5200,0.925
65.5600,0.917
65.6000,0.997
65.6400,0.992
65.6800,1.055
65.7200,1.060
65.7600,1.129
65.8000,1.151
65.8400,1.198
65.8800,1.112
65.9200,1.145
65.9600,1.221
66.0000,1.153
66.0400,1.230
66.0800,1.201
66.1200,1.160
66.1600,1.069
66.2000,1.113
66.2400,1.079
66.2800,1.123
66.3200,1.104
66.3600,1.064
66.4000,1.076
66.4400,1.053
66.4800,1.039
66.5200,1.045
66.5600,1.048
66.6000,1.071
66.6400,1.078
66.6800,1.052
66.7200,1.086
66.7600,1.054
66.8000,1.050
66.8400,1.108
66.8800,1.086
66.9200,1.113
66.9600,1.052
67.0000,1.071
67.0400,1.118
67.0800,1.139
67.1200,1.156
67.1600,1.158
67.2000,1.134
67.2400,1.214
67.2800,1.188
67.3200,1.243
67.3600,1.214
67.4000,1.253
67.4400,1.284
67.4800,1.306
67.5200,1.318
67.5600,1.322
67.6000,1.307
67.6400,1.388
67.6800,1.340
67.7200,1.369
67.7600,1.438
67.8000,1.421
67.8400,1.504
67.8800,1.562
67.9200,1.564
67.9600,1.614
68.0000,1.571
68.0400,1.606
68.0800,1.711
68.1200,1.684
68.1600,1.748
68.2000,1.855
68.2400,1.810
68.2800,1.871
68.3200,2.029
68.3600,1.944
68.4000,2.168
68.4400,2.218
68.4800,2.401
68.5200,2.455
68.5600,2.622
68.6000,2.808
68.6400,2.969
68.6800,3.539
68.7200,4.574
68.7600,5.754
68.8000,6.682
68.8400,6.930
68.8800,6.922
68.9200,8.136
68.9600,11.002
69.0000,17.699
69.0400,39.071
69.0800,185.145
69.1200,458.649
69.1600,352.783
69.2000,93.926
69.2400,46.354
69.2800,115.994
69.3200,239.049
69.3600,173.307
69.4000,47.465
69.4400,17.250
69.4800,10.290
69.5200,7.392
69.5600,6.077
69.6000,5.088
69.6400,4.412
69.6800,3.887
69.7200,3.431
69.7600,3.215
69.8000,3.063
69.8400,2.844
69.8800,2.649
69.9200,2.485
69.9600,2.421
70.0000,2.360
70.0400,2.122
70.0800,2.083
70.1200,2.084
70.1600,1.998
70.2000,1.904
70.2400,1.853
70.2800,1.747
70.3200,1.728
70.3600,1.659
70.4000,1.560
70.4400,1.572
70.4800,1.528
70.5200,1.450
70.5600,1.445
70.6000,1.387
70.6400,1.346
70.6800,1.378
70.7200,1.296
70.7600,1.185
70.8000,1.236
70.8400,1.163
70.8800,1.176
70.9200,1.098
70.9600,1.055
71.0000,1.094
71.0400,1.136
71.0800,1.049
71.1200,1.038
71.1600,0.990
71.2000,0.933
71.2400,0.972
71.2800,0.956
71.3200,0.910
71.3600,0.866
71.4000,0.915
71.4400,0.829
71.4800,0.819
71.5200,0.844
71.5600,0.773
71.6000,0.794
71.6400,0.795
71.6800,0.824
71.7200,0.757
71.7600,0.694
71.8000,0.728
71.8400,0.741
71.8800,0.714
71.9200,0.713
71.9600,0.707
72.0000,0.666
72.0400,0.696
72.0800,0.693
72.1200,0.629
72.1600,0.644
72.2000,0.586
72.2400,0.625
72.2800,0.650
72.3200,0.642
72.3600,0.589
72.4000,0.602
72.4400,0.564
72.4800,0.567
72.5200,0.564
72.5600,0.563
72.6000,0.536
72.6400,0.536
72.6800,0.535
72.7200,0.523
72.7600,0.511
72.8000,0.516
72.8400,0.520
72.8800,0.486
72.9200,0.527
72.9600,0.526
73.0000,0.527
73.0400,0.526
73.0800,0.510
73.1200,0.513
73.1600,0.450
73.2000,0.484
73.2400,0.467
73.2800,0.503
73.3200,0.467
73.3600,0.515
73.4000,0.485
73.4400,0.474
73.4800,0.496
73.5200,0.479
73.5600,0.476
73.6000,0.484
73.6400,0.459
73.6800,0.439
73.7200,0.431
73.7600,0.448
73.8000,0.418
73.8400,0.446
73.8800,0.424
73.9200,0.434
73.9600,0.430
74.0000,0.442
74.0400,0.383
74.0800,0.369
74.1200,0.413
74.1600,0.406
74.2000,0.429
74.2400,0.439
74.2800,0.422
74.3200,0.405
74.3600,0.422
74.4000,0.397
74.4400,0.427
74.4800,0.406
74.5200,0.379
74.5600,0.433
74.6000,0.412
74.6400,0.418
74.6800,0.423
74.7200,0.394
74.7600,0.440
74.8000,0.435
74.8400,0.372
74.8800,0.376
74.9200,0.387
74.9600,0.378
75.0000,0.363
75.0400,0.372
75.0800,0.396
75.1200,0.368
75.1600,0.383
75.2000,0.407
75.2400,0.360
75.2800,0.367
75.3200,0.373
75.3600,0.376
75.4000,0.392
75.4400,0.378
75.4800,0.360
75.5200,0.373
75.5600,0.369
75.6000,0.352
75.6400,0.380
75.6800,0.411
75.7200,0.409
75.7600,0.407
75.8000,0.377
75.8400,0.375
75.8800,0.402
75.9200,0.370
75.9600,0.356
76.0000,0.331
76.0400,0.376
76.0800,0.379
76.1200,0.389
76.1600,0.357
76.2000,0.357
76.2400,0.373
76.2800,0.368
76.3200,0.363
76.3600,0.341
76.4000,0.390
76.4400,0.348
76.4800,0.360
76.5200,0.366
76.5600,0.396
76.6000,0.348
76.6400,0.390
76.6800,0.362
76.7200,0.329
76.7600,0.380
76.8000,0.412
76.8400,0.405
76.8800,0.375
76.9200,0.378
76.9600,0.355
77.0000,0.377
77.0400,0.403
77.0800,0.409
77.1200,0.373
77.1600,0.410
77.2000,0.385
77.2400,0.412
77.2800,0.352
77.3200,0.360
77.3600,0.388
77.4000,0.395
77.4400,0.438
77.4800,0.425
77.5200,0.394
77.5600,0.474
77.6000,0.447
77.6400,0.425
77.6800,0.426
77.7200,0.425
77.7600,0.418
77.8000,0.437
77.8400,0.416
77.8800,0.487
77.9200,0.440
77.9600,0.434
78.0000,0.470
78.0400,0.451
78.0800,0.471
78.1200,0.466
78.1600,0.424
78.2000,0.511
78.2400,0.514
78.2800,0.486
78.3200,0.473
78.3600,0.498
78.4000,0.519
78.4400,0.504
78.4800,0.505
78.5200,0.519
78.5600,0.546
78.6000,0.509
78.6400,0.531
78.6800,0.550
78.7200,0.562
78.7600,0.588
78.8000,0.554
78.8400,0.565
78.8800,0.578
78.9200,0.603
78.9600,0.580
79.0000,0.654
79.0400,0.652
79.0800,0.662
79.1200,0.655
79.1600,0.713
79.2000,0.694
79.2400,0.746
79.2800,0.721
79.3200,0.708
79.3600,0.717
79.4000,0.689
79.4400,0.688
79.4800,0.696
79.5200,0.651
79.5600,0.636
79.6000,0.605
79.6400,0.576
79.6800,0.562
79.7200,0.556
79.7600,0.582
79.8000,0.544
79.8400,0.557
79.8800,0.494
79.9200,0.543
79.9600,0.492
80.0000,0.505
