theta,intensity
5.0000,4.723
5.0400,4.588
5.0800,4.629
5.1200,4.509
5.1600,4.463
5.2000,4.432
5.2400,4.465
5.2800,4.424
5.3200,4.265
5.3600,4.233
5.4000,4.246
5.4400,4.320
5.4800,4.080
5.5200,4.130
5.5600,4.146
5.6000,4.187
5.6400,4.190
5.6800,4.117
5.7200,4.219
5.7600,4.211
5.8000,4.135
5.8400,4.087
5.8800,4.034
5.9200,4.063
5.9600,4.092
6.0000,4.107
6.0400,4.028
6.0800,4.127
6.1200,4.065
6.1600,3.990
6.2000,4.071
6.2400,4.127
6.2800,4.145
6.3200,4.188
6.3600,4.077
6.4000,4.135
6.4400,4.054
6.4800,4.015
6.5200,4.048
6.5600,3.973
6.6000,3.989
6.6400,4.034
6.6800,4.011
6.7200,3.874
6.7600,3.939
6.8000,3.957
6.8400,4.020
6.8800,3.991
6.9200,4.105
6.9600,3.973
7.0000,3.919
7.0400,3.952
7.0800,4.005
7.1200,3.932
7.1600,3.976
7.2000,3.857
7.2400,4.014
7.2800,3.958
7.3200,3.970
7.3600,3.935
7.4000,3.894
7.4400,3.875
7.4800,3.898
7.5200,4.033
7.5600,3.857
7.6000,3.812
7.6400,3.914
7.6800,3.847
7.7200,3.872
7.7600,3.784
7.8000,3.812
7.8400,3.908
7.8800,3.884
7.9200,3.841
7.9600,3.822
8.0000,3.824
8.0400,3.847
8.0800,3.888
8.1200,3.898
8.1600,3.821
8.2000,3.889
8.2400,3.736
8.2800,3.801
8.3200,3.890
8.3600,3.892
8.4000,3.786
8.4400,3.818
8.4800,3.798
8.5200,3.866
8.5600,3.755
8.6000,3.747
8.6400,3.751
8.6800,3.738
8.7200,3.691
8.7600,3.744
8.8000,3.794
8.8400,3.744
8.8800,3.748
8.9200,3.686
8.9600,3.704
9.0000,3.605
9.0400,3.748
9.0800,3.676
9.1200,3.644
9.1600,3.718
9.2000,3.593
9.2400,3.631
9.2800,3.659
9.3200,3.736
9.3600,3.634
9.4000,3.662
9.4400,3.703
9.4800,3.722
9.5200,3.647
9.5600,3.625
9.6000,3.612
9.6400,3.613
9.6800,3.759
9.7200,3.733
9.7600,3.601
9.8000,3.651
9.8400,3.646
9.8800,3.517
9.9200,3.643
9.9600,3.483
10.0000,3.627
10.0400,3.612
10.0800,3.649
10.1200,3.580
10.1600,3.653
10.2000,3.590
10.2400,3.633
10.2800,3.604
10.3200,3.595
10.3600,3.493
10.4000,3.569
10.4400,3.593
10.4800,3.529
10.5200,3.567
10.5600,3.504
10.6000,3.531
10.6400,3.484
10.6800,3.553
10.7200,3.607
10.7600,3.550
10.8000,3.480
10.8400,3.623
10.8800,3.549
10.9200,3.630
10.9600,3.579
11.0000,3.515
11.0400,3.456
11.0800,3.517
11.1200,3.408
11.1600,3.521
11.2000,3.507
11.2400,3.492
11.2800,3.435
11.3200,3.472
11.3600,3.445
11.4000,3.374
11.4400,3.401
11.4800,3.552
11.5200,3.475
11.5600,3.569
11.6000,3.462
11.6400,3.467
11.6800,3.510
11.7200,3.453
11.7600,3.368
11.8000,3.540
11.8400,3.527
11.8800,3.428
11.9200,3.405
11.9600,3.420
12.0000,3.401
12.0400,3.342
12.0800,3.455
12.1200,3.451
12.1600,3.475
12.2000,3.326
12.2400,3.400
12.2800,3.455
12.3200,3.420
12.3600,3.384
12.4000,3.322
12.4400,3.388
12.4800,3.393
12.5200,3.435
12.5600,3.381
12.6000,3.425
12.6400,3.373
12.6800,3.346
12.7200,3.348
12.7600,3.363
12.8000,3.401
12.8400,3.387
12.8800,3.327
12.9200,3.266
12.9600,3.261
13.0000,3.351
13.0400,3.225
13.0800,3.364
13.1200,3.306
13.1600,3.366
13.2000,3.351
13.2400,3.256
13.2800,3.217
13.3200,3.310
13.3600,3.223
13.4000,3.298
13.4400,3.233
13.4800,3.244
13.5200,3.198
13.5600,3.266
13.6000,3.317
13.6400,3.290
13.6800,3.219
13.7200,3.158
13.7600,3.328
13.8000,3.209
13.8400,3.268
13.8800,3.204
13.9200,3.200
13.9600,3.189
14.0000,3.136
14.0400,3.316
14.0800,3.211
14.1200,3.192
14.1600,3.200
14.2000,3.288
14.2400,3.197
14.2800,3.246
14.3200,3.237
14.3600,3.252
14.4000,3.257
14.4400,3.198
14.4800,3.202
14.5200,3.163
14.5600,3.110
14.6000,3.234
14.6400,3.163
14.6800,3.132
14.7200,3.167
14.7600,3.162
14.8000,3.138
14.8400,3.109
14.8800,3.235
14.9200,3.108
14.9600,3.163
15.0000,3.201
15.0400,3.147
15.0800,3.039
15.1200,3.058
15.1600,3.202
15.2000,3.117
15.2400,3.208
15.2800,3.136
15.3200,3.077
15.3600,3.119
15.4000,3.049
15.4400,3.108
15.4800,3.039
15.5200,2.999
15.5600,3.028
15.6000,3.025
15.6400,3.065
15.6800,3.017
15.7200,3.029
15.7600,3.087
15.8000,2.978
15.8400,3.087
15.8800,3.003
15.9200,3.085
15.9600,2.979
16.0000,2.997
16.0400,3.114
16.0800,2.873
16.1200,2.986
16.1600,2.973
16.2000,2.959
16.2400,2.926
16.2800,2.955
16.3200,2.908
16.3600,3.025
16.4000,2.900
16.4400,2.962
16.4800,2.965
16.5200,2.948
16.5600,3.042
16.6000,3.010
16.6400,3.008
16.6800,3.010
16.7200,2.896
16.7600,2.943
16.8000,3.044
16.8400,2.953
16.8800,2.956
16.9200,2.948
16.9600,2.966
17.0000,2.900
17.0400,2.851
17.0800,2.884
17.1200,2.876
17.1600,2.978
17.2000,2.803
17.2400,2.939
17.2800,2.929
17.3200,2.895
17.3600,2.980
17.4000,2.862
17.4400,2.874
17.4800,2.829
17.5200,2.913
17.5600,2.907
17.6000,2.966
17.6400,2.889
17.6800,2.817
17.7200,2.892
17.7600,2.786
17.8000,2.821
17.8400,2.819
17.8800,2.782
17.9200,2.781
17.9600,2.824
18.0000,2.829
18.0400,2.839
18.0800,2.796
18.1200,2.834
18.1600,2.878
18.2000,2.793
18.2400,2.827
18.2800,2.873
18.3200,2.776
18.3600,2.855
18.4000,2.737
18.4400,2.655
18.4800,2.853
18.5200,2.807
18.5600,2.824
18.6000,2.781
18.6400,2.745
18.6800,2.772
18.7200,2.751
18.7600,2.695
18.8000,2.828
18.8400,2.804
18.8800,2.858
18.9200,2.787
18.9600,2.766
19.0000,2.744
19.0400,2.756
19.0800,2.828
19.1200,2.584
19.1600,2.769
19.2000,2.701
19.2400,2.735
19.2800,2.754
19.3200,2.790
19.3600,2.807
19.4000,2.689
19.4400,2.719
19.4800,2.716
19.5200,2.733
19.5600,2.626
19.6000,2.590
19.6400,2.676
19.6800,2.765
19.7200,2.677
19.7600,2.665
19.8000,2.674
19.8400,2.733
19.8800,2.698
19.9200,2.679
19.9600,2.651
20.0000,2.642
20.0400,2.628
20.0800,2.692
20.1200,2.664
20.1600,2.597
20.2000,2.649
20.2400,2.621
20.2800,2.570
20.3200,2.680
20.3600,2.713
20.4000,2.590
20.4400,2.681
20.4800,2.684
20.5200,2.561
20.5600,2.660
20.6000,2.578
20.6400,2.633
20.6800,2.568
20.7200,2.602
20.7600,2.629
20.8000,2.614
20.8400,2.591
20.8800,2.500
20.9200,2.591
20.9600,2.561
21.0000,2.547
21.0400,2.567
21.0800,2.510
21.1200,2.546
21.1600,2.532
21.2000,2.484
21.2400,2.602
21.2800,2.530
21.3200,2.569
21.3600,2.534
21.4000,2.595
21.4400,2.534
21.4800,2.511
21.5200,2.497
21.5600,2.543
21.6000,2.534
21.6400,2.477
21.6800,2.482
21.7200,2.385
21.7600,2.461
21.8000,2.472
21.8400,2.595
21.8800,2.505
21.9200,2.559
21.9600,2.505
22.0000,2.540
22.0400,2.491
22.0800,2.526
22.1200,2.542
22.1600,2.449
22.2000,2.455
22.2400,2.426
22.2800,2.500
22.3200,2.404
22.3600,2.464
22.4000,2.443
22.4400,2.394
22.4800,2.429
22.5200,2.507
22.5600,2.422
22.6000,2.403
22.6400,2.511
22.6800,2.375
22.7200,2.408
22.7600,2.369
22.8000,2.401
22.8400,2.357
22.8800,2.440
22.9200,2.391
22.9600,2.445
23.0000,2.423
23.0400,2.301
23.0800,2.392
23.1200,2.375
23.1600,2.337
23.2000,2.331
23.2400,2.280
23.2800,2.381
23.3200,2.243
23.3600,2.346
23.4000,2.343
23.4400,2.307
23.4800,2.389
23.5200,2.410
23.5600,2.270
23.6000,2.377
23.6400,2.360
23.6800,2.319
23.7200,2.306
23.7600,2.316
23.8000,2.368
23.8400,2.278
23.8800,2.393
23.9200,2.367
23.9600,2.296
24.0000,2.233
24.0400,2.317
24.0800,2.355
24.1200,2.339
24.1600,2.252
24.2000,2.238
24.2400,2.303
24.2800,2.341
24.3200,2.225
24.3600,2.240
24.4000,2.246
24.4400,2.250
24.4800,2.171
24.5200,2.298
24.5600,2.261
24.6000,2.258
24.6400,2.309
24.6800,2.231
24.7200,2.186
24.7600,2.242
24.8000,2.160
24.8400,2.240
24.8800,2.249
24.9200,2.252
24.9600,2.183
25.0000,2.260
25.0400,2.166
25.0800,2.220
25.1200,2.139
25.1600,2.173
25.2000,2.234
25.2400,2.141
25.2800,2.194
25.3200,2.205
25.3600,2.203
25.4000,2.156
25.4400,2.106
25.4800,2.191
25.5200,2.186
25.5600,2.181
25.6000,2.155
25.6400,2.170
25.6800,2.117
25.7200,2.168
25.7600,2.111
25.8000,2.204
25.8400,2.136
25.8800,2.097
25.9200,2.128
25.9600,2.105
26.0000,2.069
26.0400,2.135
26.0800,2.119
26.1200,2.104
26.1600,2.145
26.2000,2.099
26.2400,2.114
26.2800,2.067
26.3200,2.108
26.3600,2.121
26.4000,2.165
26.4400,2.060
26.4800,2.089
26.5200,2.080
26.5600,2.014
26.6000,2.051
26.6400,2.025
26.6800,2.074
26.7200,1.957
26.7600,2.071
26.8000,2.006
26.8400,2.047
26.8800,2.044
26.9200,2.162
26.9600,2.014
27.0000,2.034
27.0400,2.104
27.0800,2.020
27.1200,2.116
27.1600,2.052
27.2000,2.078
27.2400,1.976
27.2800,1.895
27.3200,1.923
27.3600,1.968
27.4000,1.970
27.4400,2.013
27.4800,1.950
27.5200,1.940
27.5600,1.995
27.6000,2.011
27.6400,1.983
27.6800,1.978
27.7200,1.986
27.7600,1.916
27.8000,1.992
27.8400,2.046
27.8800,1.976
27.9200,1.910
27.9600,1.950
28.0000,1.984
28.0400,1.951
28.0800,1.913
28.1200,1.990
28.1600,1.949
28.2000,2.001
28.2400,1.871
28.2800,1.884
28.3200,1.968
28.3600,1.963
28.4000,2.006
28.4400,1.963
28.4800,1.936
28.5200,1.892
28.5600,1.893
28.6000,1.922
28.6400,1.904
28.6800,1.898
28.7200,1.900
28.7600,1.815
28.8000,1.844
28.8400,1.866
28.8800,1.872
28.9200,1.940
28.9600,2.013
29.0000,1.949
29.0400,1.894
29.0800,1.883
29.1200,1.878
29.1600,1.818
29.2000,1.838
29.2400,1.882
29.2800,1.860
29.3200,1.867
29.3600,1.830
29.4000,1.871
29.4400,1.789
29.4800,1.863
29.5200,1.798
29.5600,1.867
29.6000,1.758
29.6400,1.814
29.6800,1.824
29.7200,1.722
29.7600,1.787
29.8000,1.710
29.8400,1.875
29.8800,1.782
29.9200,1.856
29.9600,1.795
30.0000,1.815
30.0400,1.838
30.0800,1.774
30.1200,1.807
30.1600,1.750
30.2000,1.748
30.2400,1.802
30.2800,1.765
30.3200,1.812
30.3600,1.787
30.4000,1.762
30.4400,1.733
30.4800,1.808
30.5200,1.729
30.5600,1.718
30.6000,1.761
30.6400,1.794
30.6800,1.707
30.7200,1.710
30.7600,1.825
30.8000,1.786
30.8400,1.756
30.8800,1.733
30.9200,1.754
30.9600,1.609
31.0000,1.745
31.0400,1.716
31.0800,1.722
31.1200,1.761
31.1600,1.713
31.2000,1.750
31.2400,1.726
31.2800,1.715
31.3200,1.759
31.3600,1.674
31.4000,1.670
31.4400,1.658
31.4800,1.685
31.5200,1.621
31.5600,1.695
31.6000,1.771
31.6400,1.717
31.6800,1.744
31.7200,1.661
31.7600,1.629
31.8000,1.701
31.8400,1.668
31.8800,1.702
31.9200,1.640
31.9600,1.724
32.0000,1.622
32.0400,1.715
32.0800,1.640
32.1200,1.601
32.1600,1.691
32.2000,1.605
32.2400,1.660
32.2800,1.637
32.3200,1.627
32.3600,1.705
32.4000,1.570
32.4400,1.608
32.4800,1.623
32.5200,1.641
32.5600,1.591
32.6000,1.601
32.6400,1.555
32.6800,1.608
32.7200,1.615
32.7600,1.607
32.8000,1.580
32.8400,1.575
32.8800,1.646
32.9200,1.610
32.9600,1.649
33.0000,1.590
33.0400,1.633
33.0800,1.593
33.1200,1.626
33.1600,1.579
33.2000,1.642
33.2400,1.576
33.2800,1.568
33.3200,1.561
33.3600,1.594
33.4000,1.557
33.4400,1.525
33.4800,1.553
33.5200,1.558
33.5600,1.520
33.6000,1.487
33.6400,1.649
33.6800,1.555
33.7200,1.574
33.7600,1.476
33.8000,1.519
33.8400,1.519
33.8800,1.614
33.9200,1.560
33.9600,1.479
34.0000,1.497
34.0400,1.493
34.0800,1.522
34.1200,1.589
34.1600,1.601
34.2000,1.491
34.2400,1.545
34.2800,1.572
34.3200,1.539
34.3600,1.527
34.4000,1.499
34.4400,1.614
34.4800,1.553
34.5200,1.457
34.5600,1.436
34.6000,1.519
34.6400,1.480
34.6800,1.450
34.7200,1.504
34.7600,1.473
34.8000,1.418
34.8400,1.501
34.8800,1.487
34.9200,1.505
34.9600,1.477
35.0000,1.462
35.0400,1.468
35.0800,1.439
35.1200,1.424
35.1600,1.483
35.2000,1.439
35.2400,1.552
35.2800,1.442
35.3200,1.403
35.3600,1.392
35.4000,1.414
35.4400,1.484
35.4800,1.382
35.5200,1.454
35.5600,1.425
35.6000,1.525
35.6400,1.409
35.6800,1.425
35.7200,1.441
35.7600,1.450
35.8000,1.415
35.8400,1.447
35.8800,1.428
35.9200,1.486
35.9600,1.407
36.0000,1.429
36.0400,1.447
36.0800,1.375
36.1200,1.342
36.1600,1.423
36.2000,1.416
36.2400,1.413
36.2800,1.383
36.3200,1.383
36.3600,1.464
36.4000,1.426
36.4400,1.364
36.4800,1.446
36.5200,1.407
36.5600,1.396
36.6000,1.393
36.6400,1.457
36.6800,1.447
36.7200,1.410
36.7600,1.458
36.8000,1.440
36.8400,1.423
36.8800,1.458
36.9200,1.389
36.9600,1.445
37.0000,1.375
37.0400,1.418
37.0800,1.449
37.1200,1.377
37.1600,1.433
37.2000,1.367
37.2400,1.504
37.2800,1.447
37.3200,1.397
37.3600,1.471
37.4000,1.460
37.4400,1.482
37.4800,1.482
37.5200,1.494
37.5600,1.482
37.6000,1.562
37.6400,1.461
37.6800,1.518
37.7200,1.471
37.7600,1.549
37.8000,1.569
37.8400,1.531
37.8800,1.624
37.9200,1.754
37.9600,1.612
38.0000,1.760
38.0400,1.842
38.0800,1.871
38.1200,2.056
38.1600,2.082
38.2000,2.171
38.2400,2.447
38.2800,2.460
38.3200,2.679
38.3600,2.884
38.4000,3.147
38.4400,3.586
38.4800,3.963
38.5200,4.893
38.5600,6.036
38.6000,7.699
38.6400,10.263
38.6800,12.993
38.7200,15.016
38.7600,15.418
38.8000,14.307
38.8400,12.532
38.8800,10.328
38.9200,8.229
38.9600,6.382
39.0000,5.000
39.0400,4.009
39.0800,3.560
39.1200,3.043
39.1600,2.709
39.2000,2.422
39.2400,2.202
39.2800,2.059
39.3200,1.951
39.3600,1.901
39.4000,1.818
39.4400,1.744
39.4800,1.697
39.5200,1.654
39.5600,1.592
39.6000,1.552
39.6400,1.455
39.6800,1.533
39.7200,1.464
39.7600,1.486
39.8000,1.474
39.8400,1.421
39.8800,1.359
39.9200,1.374
39.9600,1.452
40.0000,1.404
40.0400,1.406
40.0800,1.480
40.1200,1.521
40.1600,1.550
40.2000,1.482
40.2400,1.364
40.2800,1.374
40.3200,1.367
40.3600,1.300
40.4000,1.250
40.4400,1.221
40.4800,1.270
40.5200,1.187
40.5600,1.256
40.6000,1.254
40.6400,1.216
40.6800,1.180
40.7200,1.216
40.7600,1.241
40.8000,1.187
40.8400,1.184
40.8800,1.198
40.9200,1.194
40.9600,1.193
41.0000,1.174
41.0400,1.121
41.0800,1.147
41.1200,1.238
41.1600,1.208
41.2000,1.178
41.2400,1.161
41.2800,1.183
41.3200,1.148
41.3600,1.164
41.4000,1.131
41.4400,1.194
41.4800,1.152
41.5200,1.224
41.5600,1.167
41.6000,1.203
41.6400,1.196
41.6800,1.226
41.7200,1.185
41.7600,1.148
41.8000,1.105
41.8400,1.097
41.8800,1.172
41.9200,1.143
41.9600,1.168
42.0000,1.108
42.0400,1.106
42.0800,1.154
42.1200,1.123
42.1600,1.153
42.2000,1.096
42.2400,1.103
42.2800,1.045
42.3200,1.103
42.3600,1.124
42.4000,1.115
42.4400,1.113
42.4800,1.119
42.5200,1.087
42.5600,1.106
42.6000,1.100
42.6400,1.150
42.6800,1.087
42.7200,1.124
42.7600,1.099
42.8000,1.071
42.8400,1.122
42.8800,1.149
42.9200,1.109
42.9600,1.110
43.0000,1.140
43.0400,1.112
43.0800,1.049
43.1200,1.072
43.1600,1.078
43.2000,1.088
43.2400,1.073
43.2800,1.110
43.3200,1.066
43.3600,1.093
43.4000,1.069
43.4400,1.141
43.4800,1.085
43.5200,1.110
43.5600,1.076
43.6000,1.155
43.6400,1.120
43.6800,1.192
43.7200,1.165
43.7600,1.081
43.8000,1.126
43.8400,1.151
43.8800,1.096
43.9200,1.109
43.9600,1.170
44.0000,1.216
44.0400,1.203
44.0800,1.237
44.1200,1.259
44.1600,1.286
44.2000,1.235
44.2400,1.285
44.2800,1.295
44.3200,1.364
44.3600,1.394
44.4000,1.379
44.4400,1.471
44.4800,1.512
44.5200,1.580
44.5600,1.625
44.6000,1.738
44.6400,1.861
44.6800,1.841
44.7200,2.153
44.7600,2.292
44.8000,2.510
44.8400,2.764
44.8800,3.138
44.9200,3.597
44.9600,4.227
45.0000,4.499
45.0400,4.787
45.0800,4.690
45.1200,4.538
45.1600,4.163
45.2000,3.792
45.2400,3.414
45.2800,3.070
45.3200,2.644
45.3600,2.342
45.4000,2.100
45.4400,1.918
45.4800,1.765
45.5200,1.573
45.5600,1.492
45.6000,1.480
45.6400,1.390
45.6800,1.308
45.7200,1.271
45.7600,1.235
45.8000,1.227
45.8400,1.239
45.8800,1.153
45.9200,1.140
45.9600,1.144
46.0000,1.052
46.0400,1.019
46.0800,1.109
46.1200,1.036
46.1600,1.016
46.2000,0.959
46.2400,0.973
46.2800,1.022
46.3200,1.024
46.3600,0.968
46.4000,0.900
46.4400,0.950
46.4800,1.010
46.5200,0.969
46.5600,0.995
46.6000,1.035
46.6400,0.986
46.6800,1.000
46.7200,0.979
46.7600,0.993
46.8000,0.940
46.8400,0.942
46.8800,0.945
46.9200,0.962
46.9600,0.925
47.0000,0.958
47.0400,0.926
47.0800,0.914
47.1200,0.925
47.1600,0.862
47.2000,0.916
47.2400,0.897
47.2800,0.910
47.3200,0.856
47.3600,0.870
47.4000,0.811
47.4400,0.877
47.4800,0.877
47.5200,0.866
47.5600,0.838
47.6000,0.822
47.6400,0.875
47.6800,0.872
47.7200,0.884
47.7600,0.844
47.8000,0.850
47.8400,0.898
47.8800,0.836
47.9200,0.792
47.9600,0.885
48.0000,0.797
48.0400,0.841
48.0800,0.890
48.1200,0.837
48.1600,0.858
48.2000,0.844
48.2400,0.840
48.2800,0.860
48.3200,0.876
48.3600,0.843
48.4000,0.855
48.4400,0.769
48.4800,0.826
48.5200,0.836
48.5600,0.777
48.6000,0.843
48.6400,0.824
48.6800,0.810
48.7200,0.799
48.7600,0.806
48.8000,0.812
48.8400,0.816
48.8800,0.821
48.9200,0.810
48.9600,0.786
49.0000,0.790
49.0400,0.814
49.0800,0.786
49.1200,0.810
49.1600,0.866
49.2000,0.792
49.2400,0.838
49.2800,0.800
49.3200,0.848
49.3600,0.797
49.4000,0.801
49.4400,0.788
49.4800,0.819
49.5200,0.816
49.5600,0.815
49.6000,0.819
49.6400,0.750
49.6800,0.763
49.7200,0.791
49.7600,0.735
49.8000,0.789
49.8400,0.760
49.8800,0.789
49.9200,0.779
49.9600,0.768
50.0000,0.746
50.0400,0.779
50.0800,0.789
50.1200,0.760
50.1600,0.743
50.2000,0.797
50.2400,0.755
50.2800,0.787
50.3200,0.736
50.3600,0.717
50.4000,0.729
50.4400,0.779
50.4800,0.730
50.5200,0.759
50.5600,0.761
50.6000,0.777
50.6400,0.705
50.6800,0.737
50.7200,0.715
50.7600,0.724
50.8000,0.756
50.8400,0.729
50.8800,0.738
50.9200,0.743
50.9600,0.736
51.0000,0.806
51.0400,0.760
51.0800,0.746
51.1200,0.735
51.1600,0.675
51.2000,0.721
51.2400,0.720
51.2800,0.738
51.3200,0.687
51.3600,0.737
51.4000,0.716
51.4400,0.694
51.4800,0.734
51.5200,0.764
51.5600,0.719
51.6000,0.720
51.6400,0.700
51.6800,0.709
51.7200,0.739
51.7600,0.678
51.8000,0.715
51.8400,0.733
51.8800,0.744
51.9200,0.700
51.9600,0.744
52.0000,0.742
52.0400,0.750
52.0800,0.713
52.1200,0.769
52.1600,0.738
52.2000,0.680
52.2400,0.655
52.2800,0.690
52.3200,0.723
52.3600,0.728
52.4000,0.757
52.4400,0.719
52.4800,0.690
52.5200,0.656
52.5600,0.678
52.6000,0.712
52.6400,0.698
52.6800,0.653
52.7200,0.700
52.7600,0.718
52.8000,0.721
52.8400,0.695
52.8800,0.706
52.9200,0.677
52.9600,0.725
53.0000,0.714
53.0400,0.691
53.0800,0.696
53.1200,0.649
53.1600,0.628
53.2000,0.661
53.2400,0.726
53.2800,0.729
53.3200,0.684
53.3600,0.651
53.4000,0.656
53.4400,0.681
53.4800,0.686
53.5200,0.661
53.5600,0.667
53.6000,0.648
53.6400,0.695
53.6800,0.728
53.7200,0.678
53.7600,0.646
53.8000,0.659
53.8400,0.685
53.8800,0.605
53.9200,0.673
53.9600,0.611
54.0000,0.635
54.0400,0.660
54.0800,0.598
54.1200,0.670
54.1600,0.709
54.2000,0.625
54.2400,0.614
54.2800,0.664
54.3200,0.671
54.3600,0.680
54.4000,0.665
54.4400,0.687
54.4800,0.682
54.5200,0.660
54.5600,0.682
54.6000,0.604
54.6400,0.641
54.6800,0.667
54.7200,0.700
54.7600,0.623
54.8000,0.661
54.8400,0.642
54.8800,0.644
54.9200,0.657
54.9600,0.598
55.0000,0.710
55.0400,0.672
55.0800,0.663
55.1200,0.613
55.1600,0.646
55.2000,0.638
55.2400,0.623
55.2800,0.637
55.3200,0.614
55.3600,0.624
55.4000,0.636
55.4400,0.606
55.4800,0.615
55.5200,0.637
55.5600,0.591
55.6000,0.615
55.6400,0.626
55.6800,0.661
55.7200,0.631
55.7600,0.634
55.8000,0.628
55.8400,0.619
55.8800,0.622
55.9200,0.619
55.9600,0.632
56.0000,0.634
56.0400,0.690
56.0800,0.642
56.1200,0.631
56.1600,0.603
56.2000,0.596
56.2400,0.646
56.2800,0.610
56.3200,0.627
56.3600,0.601
56.4000,0.629
56.4400,0.646
56.4800,0.567
56.5200,0.601
56.5600,0.588
56.6000,0.594
56.6400,0.595
56.6800,0.616
56.7200,0.604
56.7600,0.641
56.8000,0.657
56.8400,0.554
56.8800,0.594
56.9200,0.632
56.9600,0.558
57.0000,0.612
57.0400,0.600
57.0800,0.549
57.1200,0.648
57.1600,0.607
57.2000,0.632
57.2400,0.601
57.2800,0.578
57.3200,0.628
57.3600,0.566
57.4000,0.584
57.4400,0.582
57.4800,0.557
57.5200,0.605
57.5600,0.561
57.6000,0.629
57.6400,0.582
57.6800,0.605
57.7200,0.623
57.7600,0.594
57.8000,0.576
57.8400,0.612
57.8800,0.600
57.9200,0.583
57.9600,0.606
58.0000,0.588
58.0400,0.577
58.0800,0.529
58.1200,0.553
58.1600,0.557
58.2000,0.604
58.2400,0.599
58.2800,0.571
58.3200,0.618
58.3600,0.588
58.4000,0.582
58.4400,0.601
58.4800,0.599
58.5200,0.624
58.5600,0.593
58.6000,0.536
58.6400,0.594
58.6800,0.614
58.7200,0.594
58.7600,0.576
58.8000,0.604
58.8400,0.576
58.8800,0.560
58.9200,0.583
58.9600,0.573
59.0000,0.592
59.0400,0.593
59.0800,0.573
59.1200,0.600
59.1600,0.581
59.2000,0.578
59.2400,0.572
59.2800,0.561
59.3200,0.567
59.3600,0.548
59.4000,0.588
59.4400,0.558
59.4800,0.596
59.5200,0.570
59.5600,0.523
59.6000,0.577
59.6400,0.602
59.6800,0.538
59.7200,0.550
59.7600,0.541
59.8000,0.506
59.8400,0.544
59.8800,0.582
59.9200,0.580
59.9600,0.593
60.0000,0.536
60.0400,0.544
60.0800,0.520
60.1200,0.593
60.1600,0.591
60.2000,0.564
60.2400,0.551
60.2800,0.559
60.3200,0.522
60.3600,0.527
60.4000,0.561
60.4400,0.539
60.4800,0.563
60.5200,0.583
60.5600,0.577
60.6000,0.545
60.6400,0.541
60.6800,0.544
60.7200,0.536
60.7600,0.559
60.8000,0.530
60.8400,0.520
60.8800,0.545
60.9200,0.537
60.9600,0.496
61.0000,0.518
61.0400,0.500
61.0800,0.539
61.1200,0.514
61.1600,0.512
61.2000,0.546
61.2400,0.507
61.2800,0.558
61.3200,0.522
61.3600,0.520
61.4000,0.503
61.4400,0.556
61.4800,0.531
61.5200,0.526
61.5600,0.502
61.6000,0.577
61.6400,0.530
61.6800,0.627
61.7200,0.632
61.7600,0.576
61.8000,0.534
61.8400,0.550
61.8800,0.468
61.9200,0.538
61.9600,0.529
62.0000,0.570
62.0400,0.511
62.0800,0.543
62.1200,0.524
62.1600,0.497
62.2000,0.539
62.2400,0.549
62.2800,0.529
62.3200,0.543
62.3600,0.512
62.4000,0.532
62.4400,0.515
62.4800,0.528
62.5200,0.503
62.5600,0.493
62.6000,0.501
62.6400,0.522
62.6800,0.526
62.7200,0.530
62.7600,0.509
62.8000,0.514
62.8400,0.490
62.8800,0.572
62.9200,0.527
62.9600,0.539
63.0000,0.538
63.0400,0.521
63.0800,0.488
63.1200,0.544
63.1600,0.499
63.2000,0.552
63.2400,0.545
63.2800,0.547
63.3200,0.542
63.3600,0.532
63.4000,0.512
63.4400,0.559
63.4800,0.544
63.5200,0.514
63.5600,0.575
63.6000,0.512
63.6400,0.529
63.6800,0.554
63.7200,0.532
63.7600,0.570
63.8000,0.510
63.8400,0.539
63.8800,0.540
63.9200,0.544
63.9600,0.561
64.0000,0.545
64.0400,0.571
64.0800,0.590
64.1200,0.567
64.1600,0.577
64.2000,0.553
64.2400,0.580
64.2800,0.566
64.3200,0.569
64.3600,0.556
64.4000,0.606
64.4400,0.562
64.4800,0.602
64.5200,0.657
64.5600,0.674
64.6000,0.639
64.6400,0.646
64.6800,0.695
64.7200,0.639
64.7600,0.708
64.8000,0.731
64.8400,0.740
64.8800,0.744
64.9200,0.780
64.9600,0.735
65.0000,0.774
65.0400,0.745
65.0800,0.859
65.1200,0.886
65.1600,0.889
65.2000,0.961
65.2400,1.045
65.2800,1.114
65.3200,1.172
65.3600,1.292
65.4000,1.414
65.4400,1.575
65.4800,1.843
65.5200,1.916
65.5600,2.103
65.6000,2.243
65.6400,2.216
65.6800,2.150
65.7200,2.161
65.7600,2.020
65.8000,1.784
65.8400,1.636
65.8800,1.653
65.9200,1.445
65.9600,1.324
66.0000,1.228
66.0400,1.145
66.0800,1.048
66.1200,0.999
66.1600,1.006
66.2000,0.942
66.2400,0.873
66.2800,0.934
66.3200,0.874
66.3600,0.920
66.4000,0.859
66.4400,0.889
66.4800,0.888
66.5200,0.852
66.5600,0.803
66.6000,0.834
66.6400,0.820
66.6800,0.894
66.7200,0.889
66.7600,0.908
66.8000,0.923
66.8400,0.927
66.8800,0.900
66.9200,0.899
66.9600,0.937
67.0000,0.930
67.0400,0.945
67.0800,0.966
67.1200,1.005
67.1600,1.003
67.2000,0.973
67.2400,1.022
67.2800,1.003
67.3200,1.046
67.3600,1.073
67.4000,1.092
67.4400,1.097
67.4800,1.057
67.5200,1.157
67.5600,1.152
67.6000,1.178
67.6400,1.190
67.6800,1.235
67.7200,1.257
67.7600,1.332
67.8000,1.330
67.8400,1.324
67.8800,1.330
67.9200,1.420
67.9600,1.442
68.0000,1.526
68.0400,1.544
68.0800,1.529
68.1200,1.517
68.1600,1.703
68.2000,1.673
68.2400,1.722
68.2800,1.737
68.3200,1.796
68.3600,1.902
68.4000,1.994
68.4400,2.078
68.4800,2.149
68.5200,2.331
68.5600,2.365
68.6000,2.600
68.6400,2.748
68.6800,3.060
68.7200,3.892
68.7600,5.020
68.8000,6.223
68.8400,6.793
68.8800,6.854
68.9200,7.084
68.9600,8.903
69.0000,12.966
69.0400,23.251
69.0800,70.401
69.1200,313.693
69.1600,487.543
69.2000,239.503
69.2400,61.216
69.2800,59.306
69.3200,177.748
69.3600,245.665
69.4000,116.800
69.4400,29.551
69.4800,13.231
69.5200,8.830
69.5600,6.843
69.6000,5.547
69.6400,4.558
69.6800,4.096
69.7200,3.652
69.7600,3.320
69.8000,3.032
69.8400,2.856
69.8800,2.654
69.9200,2.537
69.9600,2.395
70.0000,2.321
70.0400,2.207
70.0800,2.252
70.1200,2.021
70.1600,1.939
70.2000,1.821
70.2400,1.879
70.2800,1.815
70.3200,1.822
70.3600,1.619
70.4000,1.580
70.4400,1.553
70.4800,1.545
70.5200,1.490
70.5600,1.454
70.6000,1.391
70.6400,1.333
70.6800,1.317
70.7200,1.254
70.7600,1.244
70.8000,1.211
70.8400,1.137
70.8800,1.114
70.9200,1.145
70.9600,1.170
71.0000,1.086
71.0400,1.034
71.0800,0.988
71.1200,0.994
71.1600,1.010
71.2000,0.946
71.2400,0.965
71.2800,0.956
71.3200,0.910
71.3600,0.864
71.4000,0.908
71.4400,0.771
71.4800,0.831
71.5200,0.814
71.5600,0.792
71.6000,0.819
71.6400,0.742
71.6800,0.777
71.7200,0.741
71.7600,0.700
71.8000,0.684
71.8400,0.739
71.8800,0.664
71.9200,0.685
71.9600,0.658
72.0000,0.657
72.0400,0.629
72.0800,0.611
72.1200,0.658
72.1600,0.634
72.2000,0.597
72.2400,0.605
72.2800,0.587
72.3200,0.605
72.3600,0.578
72.4000,0.578
72.4400,0.573
72.4800,0.560
72.5200,0.600
72.5600,0.528
72.6000,0.543
72.6400,0.513
72.6800,0.513
72.7200,0.488
72.7600,0.561
72.8000,0.540
72.8400,0.534
72.8800,0.531
72.9200,0.509
72.9600,0.478
73.0000,0.461
73.0400,0.477
73.0800,0.449
73.1200,0.504
73.1600,0.472
73.2000,0.484
73.2400,0.474
73.2800,0.479
73.3200,0.416
73.3600,0.453
73.4000,0.463
73.4400,0.430
73.4800,0.434
73.5200,0.433
73.5600,0.436
73.6000,0.457
73.6400,0.441
73.6800,0.441
73.7200,0.421
73.7600,0.476
73.8000,0.426
73.8400,0.446
73.8800,0.414
73.9200,0.402
73.9600,0.405
74.0000,0.392
74.0400,0.419
74.0800,0.416
74.1200,0.440
74.1600,0.375
74.2000,0.433
74.2400,0.422
74.2800,0.386
74.3200,0.398
74.3600,0.388
74.4000,0.401
74.4400,0.366
74.4800,0.382
74.5200,0.392
74.5600,0.368
74.6000,0.407
74.6400,0.375
74.6800,0.363
74.7200,0.388
74.7600,0.413
74.8000,0.416
74.8400,0.370
74.8800,0.382
74.9200,0.355
74.9600,0.380
75.0000,0.388
75.0400,0.371
75.0800,0.392
75.1200,0.373
75.1600,0.352
75.2000,0.362
75.2400,0.385
75.2800,0.320
75.3200,0.352
75.3600,0.339
75.4000,0.388
75.4400,0.339
75.4800,0.359
75.5200,0.366
75.5600,0.334
75.6000,0.315
75.6400,0.335
75.6800,0.346
75.7200,0.339
75.7600,0.346
75.8000,0.315
75.8400,0.344
75.8800,0.353
75.9200,0.317
75.9600,0.326
76.0000,0.323
76.0400,0.334
76.0800,0.357
76.1200,0.350
76.1600,0.368
76.2000,0.326
76.2400,0.338
76.2800,0.350
76.3200,0.371
76.3600,0.307
76.4000,0.334
76.4400,0.330
76.4800,0.310
76.5200,0.361
76.5600,0.352
76.6000,0.362
76.6400,0.326
76.6800,0.351
76.7200,0.348
76.7600,0.353
76.8000,0.326
76.8400,0.332
76.8800,0.346
76.9200,0.333
76.9600,0.318
77.0000,0.356
77.0400,0.333
77.0800,0.342
77.1200,0.362
77.1600,0.380
77.2000,0.345
77.2400,0.377
77.2800,0.354
77.3200,0.375
77.3600,0.353
77.4000,0.369
77.4400,0.344
77.4800,0.375
77.5200,0.366
77.5600,0.375
77.6000,0.389
77.6400,0.377
77.6800,0.380
77.7200,0.377
77.7600,0.388
77.8000,0.393
77.8400,0.390
77.8800,0.434
77.9200,0.428
77.9600,0.472
78.0000,0.461
78.0400,0.428
78.0800,0.425
78.1200,0.432
78.1600,0.437
78.2000,0.480
78.2400,0.540
78.2800,0.493
78.3200,0.533
78.3600,0.577
78.4000,0.619
78.4400,0.642
78.4800,0.683
78.5200,0.708
78.5600,0.797
78.6000,0.886
78.6400,0.978
78.6800,1.102
78.7200,1.203
78.7600,1.360
78.8000,1.389
78.8400,1.579
78.8800,1.611
78.9200,1.617
78.9600,1.532
79.0000,1.535
79.0400,1.533
79.0800,1.456
79.1200,1.335
79.1600,1.211
79.2000,1.106
79.2400,1.001
79.2800,0.922
79.3200,0.852
79.3600,0.761
79.4000,0.721
79.4400,0.588
79.4800,0.602
79.5200,0.547
79.5600,0.505
79.6000,0.511
79.6400,0.506
79.6800,0.468
79.7200,0.438
79.7600,0.380
79.8000,0.415
79.8400,0.389
79.8800,0.407
79.9200,0.385
79.9600,0.386
80.0000,0.328
