theta,intensity
5.0000,4.361
5.0400,4.284
5.0800,4.355
5.1200,4.194
5.1600,4.227
5.2000,4.301
5.2400,4.305
5.2800,4.133
5.3200,4.126
5.3600,4.185
5.4000,4.176
5.4400,4.184
5.4800,4.053
5.5200,4.081
5.5600,4.025
5.6000,4.127
5.6400,4.031
5.6800,3.998
5.7200,4.109
5.7600,4.088
5.8000,4.080
5.8400,4.085
5.8800,4.102
5.9200,4.100
5.9600,4.042
6.0000,4.120
6.0400,4.025
6.0800,4.059
6.1200,4.110
6.1600,4.008
6.2000,3.932
6.2400,4.010
6.2800,4.057
6.3200,4.025
6.3600,4.027
6.4000,3.946
6.4400,4.009
6.4800,3.937
6.5200,3.891
6.5600,4.029
6.6000,3.939
6.6400,3.958
6.6800,3.983
6.7200,3.934
6.7600,3.906
6.8000,3.995
6.8400,3.938
6.8800,3.866
6.9200,3.863
6.9600,3.861
7.0000,3.889
7.0400,3.784
7.0800,3.856
7.1200,3.919
7.1600,3.898
7.2000,3.938
7.2400,3.853
7.2800,3.945
7.3200,3.869
7.3600,3.838
7.4000,3.762
7.4400,3.904
7.4800,3.897
7.5200,3.890
7.5600,3.908
7.6000,3.764
7.6400,3.743
7.6800,3.759
7.7200,3.809
7.7600,3.870
7.8000,3.832
7.8400,3.734
7.8800,3.858
7.9200,3.818
7.9600,3.656
8.0000,3.865
8.0400,3.783
8.0800,3.734
8.1200,3.736
8.1600,3.846
8.2000,3.714
8.2400,3.748
8.2800,3.721
8.3200,3.785
8.3600,3.763
8.4000,3.729
8.4400,3.822
8.4800,3.685
8.5200,3.834
8.5600,3.685
8.6000,3.707
8.6400,3.584
8.6800,3.751
8.7200,3.665
8.7600,3.593
8.8000,3.680
8.8400,3.543
8.8800,3.667
8.9200,3.664
8.9600,3.667
9.0000,3.585
9.0400,3.619
9.0800,3.648
9.1200,3.691
9.1600,3.735
9.2000,3.690
9.2400,3.714
9.2800,3.645
9.3200,3.620
9.3600,3.679
9.4000,3.627
9.4400,3.652
9.4800,3.679
9.5200,3.654
9.5600,3.628
9.6000,3.677
9.6400,3.646
9.6800,3.650
9.7200,3.538
9.7600,3.645
9.8000,3.617
9.8400,3.499
9.8800,3.587
9.9200,3.552
9.9600,3.547
10.0000,3.609
10.0400,3.527
10.0800,3.630
10.1200,3.538
10.1600,3.597
10.2000,3.527
10.2400,3.559
10.2800,3.545
10.3200,3.564
10.3600,3.446
10.4000,3.535
10.4400,3.574
10.4800,3.610
10.5200,3.514
10.5600,3.419
10.6000,3.554
10.6400,3.518
10.6800,3.487
10.7200,3.615
10.7600,3.570
10.8000,3.530
10.8400,3.518
10.8800,3.458
10.9200,3.542
10.9600,3.435
11.0000,3.436
11.0400,3.416
11.0800,3.460
11.1200,3.488
11.1600,3.403
11.2000,3.607
11.2400,3.467
11.2800,3.466
11.3200,3.420
11.3600,3.516
11.4000,3.453
11.4400,3.395
11.4800,3.437
11.5200,3.394
11.5600,3.404
11.6000,3.314
11.6400,3.337
11.6800,3.460
11.7200,3.426
11.7600,3.392
11.8000,3.381
11.8400,3.450
11.8800,3.401
11.9200,3.443
11.9600,3.406
12.0000,3.389
12.0400,3.360
12.0800,3.457
12.1200,3.401
12.1600,3.350
12.2000,3.329
12.2400,3.374
12.2800,3.403
12.3200,3.357
12.3600,3.388
12.4000,3.326
12.4400,3.252
12.4800,3.336
12.5200,3.328
12.5600,3.343
12.6000,3.269
12.6400,3.361
12.6800,3.282
12.7200,3.387
12.7600,3.316
12.8000,3.346
12.8400,3.363
12.8800,3.377
12.9200,3.320
12.9600,3.294
13.0000,3.274
13.0400,3.321
13.0800,3.322
13.1200,3.166
13.1600,3.247
13.2000,3.282
13.2400,3.269
13.2800,3.345
13.3200,3.211
13.3600,3.311
13.4000,3.179
13.4400,3.213
13.4800,3.208
13.5200,3.192
13.5600,3.197
13.6000,3.320
13.6400,3.155
13.6800,3.130
13.7200,3.256
13.7600,3.211
13.8000,3.256
13.8400,3.088
13.8800,3.229
13.9200,3.127
13.9600,3.176
14.0000,3.182
14.0400,3.186
14.0800,3.137
14.1200,3.126
14.1600,3.205
14.2000,3.140
14.2400,3.237
14.2800,3.092
14.3200,3.171
14.3600,3.181
14.4000,3.083
14.4400,3.095
14.4800,3.136
14.5200,3.151
14.5600,3.193
14.6000,3.135
14.6400,3.167
14.6800,3.131
14.7200,3.155
14.7600,3.150
14.8000,3.144
14.8400,3.016
14.8800,3.089
14.9200,3.074
14.9600,3.223
15.0000,3.173
15.0400,3.080
15.0800,3.116
15.1200,3.133
15.1600,3.117
15.2000,3.151
15.2400,3.011
15.2800,3.017
15.3200,2.984
15.3600,3.087
15.4000,2.996
15.4400,3.094
15.4800,2.921
15.5200,3.079
15.5600,2.985
15.6000,2.976
15.6400,2.992
15.6800,2.977
15.7200,3.002
15.7600,3.075
15.8000,3.053
15.8400,2.922
15.8800,2.988
15.9200,2.965
15.9600,3.015
16.0000,3.048
16.0400,2.981
16.0800,2.931
16.1200,3.024
16.1600,2.987
16.2000,2.924
16.2400,3.096
16.2800,2.977
16.3200,3.001
16.3600,3.047
16.4000,2.989
16.4400,2.904
16.4800,2.946
16.5200,2.952
16.5600,2.947
16.6000,3.015
16.6400,3.017
16.6800,2.977
16.7200,2.990
16.7600,2.859
16.8000,2.955
16.8400,2.995
16.8800,2.915
16.9200,2.983
16.9600,2.994
17.0000,2.976
17.0400,2.960
17.0800,2.976
17.1200,2.783
17.1600,2.902
17.2000,2.852
17.2400,2.866
17.2800,2.935
17.3200,2.939
17.3600,2.979
17.4000,2.855
17.4400,2.819
17.4800,2.921
17.5200,2.756
17.5600,2.840
17.6000,2.888
17.6400,2.892
17.6800,2.801
17.7200,2.840
17.7600,2.864
17.8000,2.849
17.8400,2.933
17.8800,2.815
17.9200,2.809
17.9600,2.861
18.0000,2.819
18.0400,2.858
18.0800,2.772
18.1200,2.774
18.1600,2.746
18.2000,2.781
18.2400,2.850
18.2800,2.760
18.3200,2.814
18.3600,2.731
18.4000,2.791
18.4400,2.760
18.4800,2.721
18.5200,2.748
18.5600,2.790
18.6000,2.808
18.6400,2.784
18.6800,2.776
18.7200,2.842
18.7600,2.743
18.8000,2.765
18.8400,2.777
18.8800,2.702
18.9200,2.737
18.9600,2.733
19.0000,2.731
19.0400,2.708
19.0800,2.704
19.1200,2.731
19.1600,2.683
19.2000,2.656
19.2400,2.645
19.2800,2.689
19.3200,2.763
19.3600,2.638
19.4000,2.714
19.4400,2.702
19.4800,2.644
19.5200,2.757
19.5600,2.557
19.6000,2.794
19.6400,2.633
19.6800,2.664
19.7200,2.712
19.7600,2.754
19.8000,2.619
19.8400,2.750
19.8800,2.587
19.9200,2.664
19.9600,2.634
20.0000,2.606
20.0400,2.573
20.0800,2.605
20.1200,2.602
20.1600,2.642
20.2000,2.641
20.2400,2.600
20.2800,2.585
20.3200,2.657
20.3600,2.621
20.4000,2.612
20.4400,2.621
20.4800,2.575
20.5200,2.518
20.5600,2.626
20.6000,2.507
20.6400,2.640
20.6800,2.450
20.7200,2.529
20.7600,2.675
20.8000,2.597
20.8400,2.532
20.8800,2.653
20.9200,2.559
20.9600,2.579
21.0000,2.566
21.0400,2.584
21.0800,2.521
21.1200,2.533
21.1600,2.479
21.2000,2.581
21.2400,2.565
21.2800,2.546
21.3200,2.598
21.3600,2.595
21.4000,2.559
21.4400,2.486
21.4800,2.568
21.5200,2.450
21.5600,2.537
21.6000,2.536
21.6400,2.496
21.6800,2.451
21.7200,2.472
21.7600,2.536
21.8000,2.575
21.8400,2.464
21.8800,2.481
21.9200,2.529
21.9600,2.442
22.0000,2.447
22.0400,2.526
22.0800,2.512
22.1200,2.426
22.1600,2.499
22.2000,2.354
22.2400,2.498
22.2800,2.529
22.3200,2.494
22.3600,2.462
22.4000,2.481
22.4400,2.432
22.4800,2.449
22.5200,2.333
22.5600,2.378
22.6000,2.394
22.6400,2.439
22.6800,2.429
22.7200,2.360
22.7600,2.434
22.8000,2.432
22.8400,2.304
22.8800,2.385
22.9200,2.288
22.9600,2.309
23.0000,2.416
23.0400,2.349
23.0800,2.336
23.1200,2.274
23.1600,2.365
23.2000,2.339
23.2400,2.478
23.2800,2.339
23.3200,2.247
23.3600,2.310
23.4000,2.286
23.4400,2.350
23.4800,2.287
23.5200,2.406
23.5600,2.290
23.6000,2.283
23.6400,2.348
23.6800,2.358
23.7200,2.313
23.7600,2.312
23.8000,2.345
23.8400,2.329
23.8800,2.345
23.9200,2.305
23.9600,2.371
24.0000,2.369
24.0400,2.354
24.0800,2.276
24.1200,2.295
24.1600,2.285
24.2000,2.243
24.2400,2.323
24.2800,2.254
24.3200,2.235
24.3600,2.183
24.4000,2.282
24.4400,2.183
24.4800,2.245
24.5200,2.272
24.5600,2.148
24.6000,2.210
24.6400,2.275
24.6800,2.208
24.7200,2.146
24.7600,2.294
24.8000,2.206
24.8400,2.196
24.8800,2.250
24.9200,2.217
24.9600,2.240
25.0000,2.128
25.0400,2.283
25.0800,2.196
25.1200,2.234
25.1600,2.134
25.2000,2.199
25.2400,2.266
25.2800,2.149
25.3200,2.264
25.3600,2.117
25.4000,2.210
25.4400,2.219
25.4800,2.220
25.5200,2.143
25.5600,2.163
25.6000,2.232
25.6400,2.156
25.6800,2.144
25.7200,2.134
25.7600,2.188
25.8000,2.147
25.8400,2.133
25.8800,2.160
25.9200,2.101
25.9600,2.129
26.0000,2.029
26.0400,2.215
26.0800,2.128
26.1200,2.111
26.1600,2.053
26.2000,2.070
26.2400,2.034
26.2800,2.073
26.3200,2.032
26.3600,2.050
26.4000,2.035
26.4400,2.080
26.4800,2.075
26.5200,2.095
26.5600,2.045
26.6000,2.082
26.6400,2.117
26.6800,2.049
26.7200,2.049
26.7600,2.092
26.8000,2.046
26.8400,2.082
26.8800,2.028
26.9200,2.074
26.9600,2.008
27.0000,2.029
27.0400,2.013
27.0800,2.059
27.1200,1.996
27.1600,1.990
27.2000,1.989
27.2400,1.985
27.2800,2.014
27.3200,2.090
27.3600,2.016
27.4000,1.987
27.4400,2.001
27.4800,1.939
27.5200,2.054
27.5600,1.982
27.6000,1.982
27.6400,1.961
27.6800,2.014
27.7200,1.907
27.7600,1.936
27.8000,1.952
27.8400,1.931
27.8800,1.960
27.9200,1.966
27.9600,2.027
28.0000,1.943
28.0400,1.866
28.0800,1.908
28.1200,1.935
28.1600,1.986
28.2000,1.902
28.2400,1.857
28.2800,1.992
28.3200,1.939
28.3600,1.883
28.4000,1.893
28.4400,1.884
28.4800,1.927
28.5200,1.910
28.5600,1.948
28.6000,1.905
28.6400,1.977
28.6800,1.946
28.7200,1.896
28.7600,1.811
28.8000,1.800
28.8400,1.908
28.8800,1.970
28.9200,1.868
28.9600,1.859
29.0000,1.900
29.0400,1.867
29.0800,1.890
29.1200,1.846
29.1600,1.910
29.2000,1.828
29.2400,1.810
29.2800,1.875
29.3200,1.894
29.3600,1.868
29.4000,1.793
29.4400,1.849
29.4800,1.843
29.5200,1.790
29.5600,1.884
29.6000,1.873
29.6400,1.803
29.6800,1.846
29.7200,1.895
29.7600,1.855
29.8000,1.750
29.8400,1.766
29.8800,1.824
29.9200,1.803
29.9600,1.819
30.0000,1.836
30.0400,1.854
30.0800,1.798
30.1200,1.762
30.1600,1.721
30.2000,1.769
30.2400,1.775
30.2800,1.767
30.3200,1.701
30.3600,1.733
30.4000,1.827
30.4400,1.698
30.4800,1.704
30.5200,1.742
30.5600,1.730
30.6000,1.773
30.6400,1.786
30.6800,1.735
30.7200,1.759
30.7600,1.734
30.8000,1.763
30.8400,1.731
30.8800,1.745
30.9200,1.784
30.9600,1.771
31.0000,1.744
31.0400,1.771
31.0800,1.799
31.1200,1.739
31.1600,1.731
31.2000,1.764
31.2400,1.734
31.2800,1.697
31.3200,1.626
31.3600,1.647
31.4000,1.652
31.4400,1.610
31.4800,1.743
31.5200,1.716
31.5600,1.747
31.6000,1.691
31.6400,1.649
31.6800,1.607
31.7200,1.701
31.7600,1.680
31.8000,1.681
31.8400,1.628
31.8800,1.726
31.9200,1.707
31.9600,1.643
32.0000,1.627
32.0400,1.641
32.0800,1.692
32.1200,1.550
32.1600,1.657
32.2000,1.641
32.2400,1.567
32.2800,1.657
32.3200,1.610
32.3600,1.717
32.4000,1.640
32.4400,1.640
32.4800,1.608
32.5200,1.607
32.5600,1.658
32.6000,1.649
32.6400,1.562
32.6800,1.583
32.7200,1.528
32.7600,1.635
32.8000,1.654
32.8400,1.638
32.8800,1.542
32.9200,1.612
32.9600,1.614
33.0000,1.641
33.0400,1.594
33.0800,1.591
33.1200,1.572
33.1600,1.536
33.2000,1.637
33.2400,1.516
33.2800,1.530
33.3200,1.630
33.3600,1.656
33.4000,1.582
33.4400,1.578
33.4800,1.565
33.5200,1.562
33.5600,1.509
33.6000,1.561
33.6400,1.529
33.6800,1.543
33.7200,1.529
33.7600,1.566
33.8000,1.583
33.8400,1.471
33.8800,1.543
33.9200,1.502
33.9600,1.560
34.0000,1.523
34.0400,1.533
34.0800,1.497
34.1200,1.489
34.1600,1.524
34.2000,1.532
34.2400,1.543
34.2800,1.563
34.3200,1.430
34.3600,1.449
34.4000,1.485
34.4400,1.473
34.4800,1.463
34.5200,1.421
34.5600,1.496
34.6000,1.455
34.6400,1.471
34.6800,1.515
34.7200,1.445
34.7600,1.472
34.8000,1.457
34.8400,1.475
34.8800,1.539
34.9200,1.499
34.9600,1.447
35.0000,1.472
35.0400,1.444
35.0800,1.486
35.1200,1.464
35.1600,1.394
35.2000,1.396
35.2400,1.479
35.2800,1.521
35.3200,1.463
35.3600,1.486
35.4000,1.409
35.4400,1.413
35.4800,1.461
35.5200,1.438
35.5600,1.427
35.6000,1.465
35.6400,1.415
35.6800,1.361
35.7200,1.407
35.7600,1.412
35.8000,1.392
35.8400,1.433
35.8800,1.376
35.9200,1.450
35.9600,1.454
36.0000,1.381
36.0400,1.370
36.0800,1.420
36.1200,1.468
36.1600,1.347
36.2000,1.348
36.2400,1.412
36.2800,1.408
36.3200,1.414
36.3600,1.394
36.4000,1.417
36.4400,1.448
36.4800,1.410
36.5200,1.493
36.5600,1.360
36.6000,1.376
36.6400,1.462
36.6800,1.371
36.7200,1.404
36.7600,1.363
36.8000,1.394
36.8400,1.423
36.8800,1.456
36.9200,1.349
36.9600,1.422
37.0000,1.504
37.0400,1.354
37.0800,1.478
37.1200,1.520
37.1600,1.452
37.2000,1.320
37.2400,1.396
37.2800,1.471
37.3200,1.498
37.3600,1.457
37.4000,1.389
37.4400,1.461
37.4800,1.442
37.5200,1.494
37.5600,1.468
37.6000,1.501
37.6400,1.542
37.6800,1.500
37.7200,1.493
37.7600,1.552
37.8000,1.599
37.8400,1.563
37.8800,1.641
37.9200,1.634
37.9600,1.682
38.0000,1.756
38.0400,1.947
38.0800,1.995
38.1200,2.103
38.1600,2.362
38.2000,2.479
38.2400,2.560
38.2800,2.786
38.3200,3.054
38.3600,3.227
38.4000,3.281
38.4400,3.637
38.4800,3.928
38.5200,4.334
38.5600,4.881
38.6000,5.661
38.6400,6.174
38.6800,6.910
38.7200,7.186
38.7600,7.083
38.8000,6.609
38.8400,6.125
38.8800,5.408
38.9200,4.719
38.9600,4.090
39.0000,3.578
39.0400,3.228
39.0800,2.845
39.1200,2.572
39.1600,2.432
39.2000,2.233
39.2400,2.075
39.2800,1.983
39.3200,1.860
39.3600,1.812
39.4000,1.857
39.4400,1.738
39.4800,1.701
39.5200,1.678
39.5600,1.664
39.6000,1.541
39.6400,1.569
39.6800,1.530
39.7200,1.532
39.7600,1.479
39.8000,1.499
39.8400,1.493
39.8800,1.513
39.9200,1.456
39.9600,1.450
40.0000,1.421
40.0400,1.462
40.0800,1.487
40.1200,1.468
40.1600,1.516
40.2000,1.463
40.2400,1.447
40.2800,1.326
40.3200,1.409
40.3600,1.319
40.4000,1.299
40.4400,1.376
40.4800,1.325
40.5200,1.282
40.5600,1.259
40.6000,1.274
40.6400,1.255
40.6800,1.251
40.7200,1.214
40.7600,1.240
40.8000,1.201
40.8400,1.271
40.8800,1.215
40.9200,1.228
40.9600,1.209
41.0000,1.210
41.0400,1.204
41.0800,1.178
41.1200,1.170
41.1600,1.165
41.2000,1.125
41.2400,1.172
41.2800,1.170
41.3200,1.195
41.3600,1.192
41.4000,1.168
41.4400,1.155
41.4800,1.180
41.5200,1.275
41.5600,1.191
41.6000,1.147
41.6400,1.220
41.6800,1.160
41.7200,1.188
41.7600,1.189
41.8000,1.119
41.8400,1.167
41.8800,1.098
41.9200,1.123
41.9600,1.140
42.0000,1.195
42.0400,1.110
42.0800,1.151
42.1200,1.159
42.1600,1.125
42.2000,1.096
42.2400,1.095
42.2800,1.081
42.3200,1.128
42.3600,1.076
42.4000,1.109
42.4400,1.109
42.4800,1.124
42.5200,1.095
42.5600,1.111
42.6000,1.090
42.6400,1.168
42.6800,1.088
42.7200,1.097
42.7600,1.109
42.8000,1.125
42.8400,1.130
42.8800,1.145
42.9200,1.078
42.9600,1.085
43.0000,1.129
43.0400,1.110
43.0800,1.126
43.1200,1.147
43.1600,1.106
43.2000,1.170
43.2400,1.092
43.2800,1.110
43.3200,1.086
43.3600,1.072
43.4000,1.148
43.4400,1.032
43.4800,1.079
43.5200,1.137
43.5600,1.132
43.6000,1.074
43.6400,1.086
43.6800,1.092
43.7200,1.080
43.7600,1.162
43.8000,1.185
43.8400,1.133
43.8800,1.154
43.9200,1.235
43.9600,1.185
44.0000,1.235
44.0400,1.270
44.0800,1.276
44.1200,1.251
44.1600,1.305
44.2000,1.282
44.2400,1.325
44.2800,1.297
44.3200,1.358
44.3600,1.420
44.4000,1.396
44.4400,1.487
44.4800,1.521
44.5200,1.624
44.5600,1.612
44.6000,1.814
44.6400,1.792
44.6800,1.815
44.7200,1.870
44.7600,1.967
44.8000,2.082
44.8400,2.222
44.8800,2.373
44.9200,2.353
44.9600,2.469
45.0000,2.481
45.0400,2.514
45.0800,2.554
45.1200,2.459
45.1600,2.248
45.2000,2.070
45.2400,2.042
45.2800,1.941
45.3200,1.861
45.3600,1.807
45.4000,1.663
45.4400,1.488
45.4800,1.424
45.5200,1.406
45.5600,1.370
45.6000,1.274
45.6400,1.196
45.6800,1.209
45.7200,1.257
45.7600,1.163
45.8000,1.124
45.8400,1.127
45.8800,1.108
45.9200,1.074
45.9600,1.043
46.0000,1.106
46.0400,1.058
46.0800,1.040
46.1200,1.046
46.1600,1.018
46.2000,1.051
46.2400,0.967
46.2800,0.995
46.3200,0.989
46.3600,1.042
46.4000,1.047
46.4400,1.019
46.4800,0.923
46.5200,0.946
46.5600,0.989
46.6000,0.973
46.6400,0.967
46.6800,0.907
46.7200,0.949
46.7600,0.990
46.8000,0.964
46.8400,0.966
46.8800,0.952
46.9200,0.900
46.9600,0.913
47.0000,0.925
47.0400,0.932
47.0800,0.920
47.1200,0.951
47.1600,0.874
47.2000,0.905
47.2400,0.983
47.2800,0.913
47.3200,0.933
47.3600,0.842
47.4000,0.888
47.4400,0.847
47.4800,0.830
47.5200,0.880
47.5600,0.820
47.6000,0.891
47.6400,0.883
47.6800,0.860
47.7200,0.844
47.7600,0.887
47.8000,0.908
47.8400,0.834
47.8800,0.848
47.9200,0.834
47.9600,0.890
48.0000,0.892
48.0400,0.866
48.0800,0.852
48.1200,0.831
48.1600,0.823
48.2000,0.802
48.2400,0.850
48.2800,0.805
48.3200,0.814
48.3600,0.904
48.4000,0.884
48.4400,0.868
48.4800,0.870
48.5200,0.843
48.5600,0.817
48.6000,0.841
48.6400,0.831
48.6800,0.866
48.7200,0.766
48.7600,0.824
48.8000,0.818
48.8400,0.821
48.8800,0.769
48.9200,0.810
48.9600,0.813
49.0000,0.845
49.0400,0.775
49.0800,0.845
49.1200,0.826
49.1600,0.800
49.2000,0.746
49.2400,0.754
49.2800,0.795
49.3200,0.831
49.3600,0.801
49.4000,0.812
49.4400,0.795
49.4800,0.761
49.5200,0.787
49.5600,0.826
49.6000,0.793
49.6400,0.764
49.6800,0.802
49.7200,0.764
49.7600,0.733
49.8000,0.782
49.8400,0.778
49.8800,0.794
49.9200,0.799
49.9600,0.768
50.0000,0.779
50.0400,0.761
50.0800,0.753
50.1200,0.750
50.1600,0.735
50.2000,0.774
50.2400,0.790
50.2800,0.783
50.3200,0.790
50.3600,0.777
50.4000,0.730
50.4400,0.755
50.4800,0.720
50.5200,0.740
50.5600,0.744
50.6000,0.740
50.6400,0.729
50.6800,0.727
50.7200,0.722
50.7600,0.734
50.8000,0.732
50.8400,0.779
50.8800,0.719
50.9200,0.788
50.9600,0.757
51.0000,0.757
51.0400,0.734
51.0800,0.719
51.1200,0.718
51.1600,0.744
51.2000,0.750
51.2400,0.719
51.2800,0.738
51.3200,0.719
51.3600,0.733
51.4000,0.741
51.4400,0.729
51.4800,0.758
51.5200,0.761
51.5600,0.729
51.6000,0.693
51.6400,0.695
51.6800,0.706
51.7200,0.657
51.7600,0.701
51.8000,0.766
51.8400,0.719
51.8800,0.708
51.9200,0.694
51.9600,0.692
52.0000,0.676
52.0400,0.723
52.0800,0.717
52.1200,0.695
52.1600,0.698
52.2000,0.682
52.2400,0.734
52.2800,0.682
52.3200,0.709
52.3600,0.725
52.4000,0.711
52.4400,0.720
52.4800,0.672
52.5200,0.687
52.5600,0.704
52.6000,0.739
52.6400,0.691
52.6800,0.683
52.7200,0.658
52.7600,0.707
52.8000,0.694
52.8400,0.679
52.8800,0.717
52.9200,0.686
52.9600,0.686
53.0000,0.737
53.0400,0.698
53.0800,0.694
53.1200,0.653
53.1600,0.707
53.2000,0.697
53.2400,0.675
53.2800,0.697
53.3200,0.735
53.3600,0.686
53.4000,0.676
53.4400,0.689
53.4800,0.713
53.5200,0.654
53.5600,0.708
53.6000,0.684
53.6400,0.725
53.6800,0.655
53.7200,0.654
53.7600,0.680
53.8000,0.688
53.8400,0.674
53.8800,0.634
53.9200,0.704
53.9600,0.708
54.0000,0.676
54.0400,0.658
54.0800,0.681
54.1200,0.635
54.1600,0.701
54.2000,0.669
54.2400,0.657
54.2800,0.665
54.3200,0.688
54.3600,0.685
54.4000,0.665
54.4400,0.647
54.4800,0.643
54.5200,0.659
54.5600,0.675
54.6000,0.629
54.6400,0.646
54.6800,0.628
54.7200,0.657
54.7600,0.708
54.8000,0.618
54.8400,0.660
54.8800,0.654
54.9200,0.637
54.9600,0.663
55.0000,0.643
55.0400,0.669
55.0800,0.664
55.1200,0.644
55.1600,0.678
55.2000,0.638
55.2400,0.615
55.2800,0.643
55.3200,0.647
55.3600,0.653
55.4000,0.664
55.4400,0.612
55.4800,0.624
55.5200,0.600
55.5600,0.596
55.6000,0.642
55.6400,0.599
55.6800,0.619
55.7200,0.655
55.7600,0.621
55.8000,0.606
55.8400,0.616
55.8800,0.645
55.9200,0.622
55.9600,0.640
56.0000,0.620
56.0400,0.597
56.0800,0.611
56.1200,0.603
56.1600,0.632
56.2000,0.685
56.2400,0.683
56.2800,0.612
56.3200,0.587
56.3600,0.627
56.4000,0.657
56.4400,0.604
56.4800,0.639
56.5200,0.652
56.5600,0.625
56.6000,0.615
56.6400,0.633
56.6800,0.616
56.7200,0.568
56.7600,0.621
56.8000,0.573
56.8400,0.581
56.8800,0.599
56.9200,0.616
56.9600,0.598
57.0000,0.624
57.0400,0.597
57.0800,0.587
57.1200,0.605
57.1600,0.635
57.2000,0.631
57.2400,0.589
57.2800,0.623
57.3200,0.554
57.3600,0.591
57.4000,0.597
57.4400,0.600
57.4800,0.601
57.5200,0.599
57.5600,0.610
57.6000,0.574
57.6400,0.586
57.6800,0.550
57.7200,0.605
57.7600,0.605
57.8000,0.579
57.8400,0.588
57.8800,0.643
57.9200,0.579
57.9600,0.614
58.0000,0.597
58.0400,0.593
58.0800,0.592
58.1200,0.565
58.1600,0.565
58.2000,0.601
58.2400,0.589
58.2800,0.601
58.3200,0.575
58.3600,0.548
58.4000,0.588
58.4400,0.571
58.4800,0.583
58.5200,0.556
58.5600,0.590
58.6000,0.589
58.6400,0.571
58.6800,0.586
58.7200,0.575
58.7600,0.551
58.8000,0.580
58.8400,0.604
58.8800,0.577
58.9200,0.577
58.9600,0.570
59.0000,0.531
59.0400,0.563
59.0800,0.544
59.1200,0.587
59.1600,0.539
59.2000,0.608
59.2400,0.604
59.2800,0.531
59.3200,0.522
59.3600,0.584
59.4000,0.550
59.4400,0.554
59.4800,0.543
59.5200,0.572
59.5600,0.527
59.6000,0.565
59.6400,0.581
59.6800,0.555
59.7200,0.547
59.7600,0.562
59.8000,0.594
59.8400,0.569
59.8800,0.521
59.9200,0.595
59.9600,0.575
60.0000,0.539
60.0400,0.555
60.0800,0.535
60.1200,0.556
60.1600,0.589
60.2000,0.574
60.2400,0.580
60.2800,0.568
60.3200,0.534
60.3600,0.565
60.4000,0.543
60.4400,0.527
60.4800,0.528
60.5200,0.524
60.5600,0.567
60.6000,0.527
60.6400,0.532
60.6800,0.520
60.7200,0.548
60.7600,0.557
60.8000,0.510
60.8400,0.534
60.8800,0.580
60.9200,0.533
60.9600,0.532
61.0000,0.488
61.0400,0.486
61.0800,0.507
61.1200,0.546
61.1600,0.531
61.2000,0.511
61.2400,0.535
61.2800,0.563
61.3200,0.530
61.3600,0.549
61.4000,0.538
61.4400,0.552
61.4800,0.551
61.5200,0.541
61.5600,0.567
61.6000,0.560
61.6400,0.550
61.6800,0.588
61.7200,0.627
61.7600,0.635
61.8000,0.553
61.8400,0.477
61.8800,0.519
61.9200,0.543
61.9600,0.517
62.0000,0.508
62.0400,0.546
62.0800,0.506
62.1200,0.515
62.1600,0.484
62.2000,0.512
62.2400,0.501
62.2800,0.534
62.3200,0.527
62.3600,0.543
62.4000,0.540
62.4400,0.554
62.4800,0.526
62.5200,0.548
62.5600,0.511
62.6000,0.537
62.6400,0.558
62.6800,0.521
62.7200,0.562
62.7600,0.518
62.8000,0.523
62.8400,0.499
62.8800,0.512
62.9200,0.516
62.9600,0.519
63.0000,0.514
63.0400,0.524
63.0800,0.546
63.1200,0.569
63.1600,0.560
63.2000,0.542
63.2400,0.562
63.2800,0.564
63.3200,0.504
63.3600,0.546
63.4000,0.530
63.4400,0.525
63.4800,0.511
63.5200,0.532
63.5600,0.549
63.6000,0.531
63.6400,0.520
63.6800,0.550
63.7200,0.563
63.7600,0.552
63.8000,0.598
63.8400,0.593
63.8800,0.578
63.9200,0.565
63.9600,0.559
64.0000,0.563
64.0400,0.600
64.0800,0.618
64.1200,0.608
64.1600,0.586
64.2000,0.582
64.2400,0.592
64.2800,0.634
64.3200,0.628
64.3600,0.617
64.4000,0.663
64.4400,0.681
64.4800,0.697
64.5200,0.709
64.5600,0.731
64.6000,0.741
64.6400,0.742
64.6800,0.680
64.7200,0.713
64.7600,0.767
64.8000,0.798
64.8400,0.785
64.8800,0.786
64.9200,0.831
64.9600,0.795
65.0000,0.849
65.0400,0.833
65.0800,0.838
65.1200,0.925
65.1600,0.951
65.2000,1.000
65.2400,0.993
65.2800,1.107
65.3200,1.133
65.3600,1.212
65.4000,1.311
65.4400,1.386
65.4800,1.370
65.5200,1.330
65.5600,1.367
65.6000,1.415
65.6400,1.330
65.6800,1.372
65.7200,1.269
65.7600,1.172
65.8000,1.109
65.8400,1.046
65.8800,1.076
65.9200,1.039
65.9600,1.036
66.0000,1.007
66.0400,0.885
66.0800,0.935
66.1200,0.900
66.1600,0.863
66.2000,0.863
66.2400,0.924
66.2800,0.868
66.3200,0.880
66.3600,0.874
66.4000,0.831
66.4400,0.795
66.4800,0.858
66.5200,0.861
66.5600,0.879
66.6000,0.918
66.6400,0.891
66.6800,0.879
66.7200,0.949
66.7600,0.950
66.8000,0.902
66.8400,0.941
66.8800,0.941
66.9200,0.907
66.9600,0.965
67.0000,0.933
67.0400,0.996
67.0800,1.028
67.1200,0.966
67.1600,0.980
67.2000,1.074
67.2400,1.054
67.2800,1.078
67.3200,1.069
67.3600,1.147
67.4000,1.101
67.4400,1.219
67.4800,1.207
67.5200,1.162
67.5600,1.158
67.6000,1.203
67.6400,1.238
67.6800,1.311
67.7200,1.324
67.7600,1.324
67.8000,1.299
67.8400,1.449
67.8800,1.444
67.9200,1.485
67.9600,1.508
68.0000,1.501
68.0400,1.582
68.0800,1.664
68.1200,1.671
68.1600,1.673
68.2000,1.754
68.2400,1.856
68.2800,1.868
68.3200,1.953
68.3600,1.995
68.4000,2.041
68.4400,2.188
68.4800,2.279
68.5200,2.281
68.5600,2.460
68.6000,2.690
68.6400,2.841
68.6800,2.985
68.7200,3.635
68.7600,4.396
68.8000,5.689
68.8400,6.941
68.8800,7.537
68.9200,7.506
68.9600,8.197
69.0000,10.560
69.0400,16.360
69.0800,31.771
69.1200,114.642
69.1600,421.305
69.2000,493.489
69.2400,188.699
69.2800,55.452
69.3200,83.043
69.3600,228.031
69.4000,246.690
69.4400,92.483
69.4800,25.164
69.5200,12.710
69.5600,8.821
69.6000,6.774
69.6400,5.742
69.6800,4.781
69.7200,4.308
69.7600,3.835
69.8000,3.578
69.8400,3.257
69.8800,3.055
69.9200,2.869
69.9600,2.614
70.0000,2.542
70.0400,2.361
70.0800,2.380
70.1200,2.322
70.1600,2.184
70.2000,2.110
70.2400,2.000
70.2800,1.989
70.3200,1.925
70.3600,1.846
70.4000,1.801
70.4400,1.690
70.4800,1.620
70.5200,1.646
70.5600,1.539
70.6000,1.539
70.6400,1.524
70.6800,1.437
70.7200,1.404
70.7600,1.387
70.8000,1.302
70.8400,1.305
70.8800,1.286
70.9200,1.256
70.9600,1.217
71.0000,1.138
71.0400,1.132
71.0800,1.129
71.1200,1.089
71.1600,1.069
71.2000,1.051
71.2400,1.053
71.2800,1.053
71.3200,0.984
71.3600,0.950
71.4000,0.919
71.4400,0.911
71.4800,0.917
71.5200,0.860
71.5600,0.858
71.6000,0.879
71.6400,0.805
71.6800,0.821
71.7200,0.820
71.7600,0.795
71.8000,0.756
71.8400,0.693
71.8800,0.729
71.9200,0.721
71.9600,0.699
72.0000,0.699
72.0400,0.732
72.0800,0.703
72.1200,0.696
72.1600,0.612
72.2000,0.585
72.2400,0.622
72.2800,0.647
72.3200,0.626
72.3600,0.634
72.4000,0.586
72.4400,0.575
72.4800,0.554
72.5200,0.585
72.5600,0.574
72.6000,0.556
72.6400,0.553
72.6800,0.527
72.7200,0.560
72.7600,0.527
72.8000,0.505
72.8400,0.531
72.8800,0.484
72.9200,0.506
72.9600,0.511
73.0000,0.504
73.0400,0.491
73.0800,0.483
73.1200,0.500
73.1600,0.496
73.2000,0.480
73.2400,0.501
73.2800,0.495
73.3200,0.483
73.3600,0.497
73.4000,0.469
73.4400,0.464
73.4800,0.448
73.5200,0.453
73.5600,0.460
73.6000,0.436
73.6400,0.434
73.6800,0.457
73.7200,0.431
73.7600,0.427
73.8000,0.416
73.8400,0.431
73.8800,0.436
73.9200,0.442
73.9600,0.412
74.0000,0.421
74.0400,0.465
74.0800,0.409
74.1200,0.419
74.1600,0.434
74.2000,0.442
74.2400,0.422
74.2800,0.427
74.3200,0.392
74.3600,0.425
74.4000,0.417
74.4400,0.405
74.4800,0.401
74.5200,0.404
74.5600,0.392
74.6000,0.410
74.6400,0.380
74.6800,0.389
74.7200,0.388
74.7600,0.361
74.8000,0.394
74.8400,0.393
74.8800,0.392
74.9200,0.389
74.9600,0.398
75.0000,0.390
75.0400,0.348
75.0800,0.373
75.1200,0.371
75.1600,0.355
75.2000,0.393
75.2400,0.383
75.2800,0.372
75.3200,0.350
75.3600,0.395
75.4000,0.367
75.4400,0.347
75.4800,0.348
75.5200,0.386
75.5600,0.363
75.6000,0.367
75.6400,0.376
75.6800,0.366
75.7200,0.374
75.7600,0.393
75.8000,0.387
75.8400,0.327
75.8800,0.351
75.9200,0.377
75.9600,0.351
76.0000,0.360
76.0400,0.369
76.0800,0.346
76.1200,0.348
76.1600,0.342
76.2000,0.379
76.2400,0.368
76.2800,0.373
76.3200,0.341
76.3600,0.368
76.4000,0.312
76.4400,0.329
76.4800,0.332
76.5200,0.375
76.5600,0.362
76.6000,0.362
76.6400,0.336
76.6800,0.342
76.7200,0.318
76.7600,0.357
76.8000,0.389
76.8400,0.339
76.8800,0.350
76.9200,0.393
76.9600,0.372
77.0000,0.398
77.0400,0.348
77.0800,0.326
77.1200,0.370
77.1600,0.377
77.2000,0.394
77.2400,0.366
77.2800,0.394
77.3200,0.409
77.3600,0.404
77.4000,0.411
77.4400,0.423
77.4800,0.396
77.5200,0.408
77.5600,0.424
77.6000,0.432
77.6400,0.454
77.6800,0.460
77.7200,0.421
77.7600,0.452
77.8000,0.447
77.8400,0.451
77.8800,0.486
77.9200,0.474
77.9600,0.493
78.0000,0.495
78.0400,0.524
78.0800,0.542
78.1200,0.546
78.1600,0.547
78.2000,0.567
78.2400,0.546
78.2800,0.560
78.3200,0.565
78.3600,0.629
78.4000,0.649
78.4400,0.681
78.4800,0.759
78.5200,0.754
78.5600,0.767
78.6000,0.840
78.6400,0.859
78.6800,0.837
78.7200,0.922
78.7600,0.952
78.8000,0.938
78.8400,0.909
78.8800,0.930
78.9200,0.864
78.9600,0.832
79.0000,0.853
79.0400,0.822
79.0800,0.727
79.1200,0.732
79.1600,0.637
79.2000,0.624
79.2400,0.606
79.2800,0.559
79.3200,0.523
79.3600,0.491
79.4000,0.495
79.4400,0.460
79.4800,0.447
79.5200,0.468
79.5600,0.422
79.6000,0.412
79.6400,0.396
79.6800,0.416
79.7200,0.373
79.7600,0.360
79.8000,0.348
79.8400,0.360
79.8800,0.358
79.9200,0.332
79.9600,0.360
80.0000,0.357
