theta,intensity
5.0000,6.232
5.0400,6.137
5.0800,5.978
5.1200,5.877
5.1600,5.830
5.2000,5.705
5.2400,5.570
5.2800,5.347
5.3200,5.281
5.3600,5.233
5.4000,5.232
5.4400,4.958
5.4800,4.928
5.5200,4.913
5.5600,4.841
5.6000,4.729
5.6400,4.643
5.6800,4.594
5.7200,4.491
5.7600,4.395
5.8000,4.447
5.8400,4.433
5.8800,4.410
5.9200,4.307
5.9600,4.331
6.0000,4.369
6.0400,4.313
6.0800,4.132
6.1200,4.328
6.1600,4.280
6.2000,4.173
6.2400,4.236
6.2800,4.281
6.3200,4.230
6.3600,4.233
6.4000,4.227
6.4400,4.062
6.4800,4.170
6.5200,4.188
6.5600,4.250
6.6000,4.284
6.6400,4.180
6.6800,4.162
6.7200,4.152
6.7600,4.182
6.8000,4.202
6.8400,4.088
6.8800,4.116
6.9200,4.069
6.9600,4.142
7.0000,4.163
7.0400,4.171
7.0800,4.094
7.1200,4.062
7.1600,4.086
7.2000,4.049
7.2400,4.170
7.2800,4.125
7.3200,4.085
7.3600,4.060
7.4000,4.110
7.4400,4.022
7.4800,4.056
7.5200,4.162
7.5600,4.015
7.6000,4.038
7.6400,4.010
7.6800,3.998
7.7200,3.896
7.7600,4.075
7.8000,4.083
7.8400,4.094
7.8800,4.057
7.9200,3.958
7.9600,3.909
8.0000,3.926
8.0400,4.121
8.0800,3.908
8.1200,4.107
8.1600,3.880
8.2000,3.902
8.2400,3.952
8.2800,3.933
8.3200,3.897
8.3600,3.922
8.4000,3.965
8.4400,3.854
8.4800,3.859
8.5200,3.876
8.5600,3.859
8.6000,3.908
8.6400,3.919
8.6800,3.857
8.7200,3.884
8.7600,3.830
8.8000,3.877
8.8400,3.897
8.8800,3.866
8.9200,3.744
8.9600,3.834
9.0000,3.924
9.0400,3.833
9.0800,3.761
9.1200,3.911
9.1600,3.769
9.2000,3.876
9.2400,3.901
9.2800,3.784
9.3200,3.849
9.3600,3.833
9.4000,3.819
9.4400,3.771
9.4800,3.710
9.5200,3.810
9.5600,3.653
9.6000,3.835
9.6400,3.769
9.6800,3.787
9.7200,3.812
9.7600,3.811
9.8000,3.703
9.8400,3.694
9.8800,3.675
9.9200,3.670
9.9600,3.667
10.0000,3.637
10.0400,3.633
10.0800,3.747
10.1200,3.799
10.1600,3.791
10.2000,3.696
10.2400,3.748
10.2800,3.637
10.3200,3.701
10.3600,3.766
10.4000,3.744
10.4400,3.649
10.4800,3.583
10.5200,3.759
10.5600,3.673
10.6000,3.639
10.6400,3.545
10.6800,3.666
10.7200,3.644
10.7600,3.672
10.8000,3.647
10.8400,3.576
10.8800,3.627
10.9200,3.635
10.9600,3.676
11.0000,3.676
11.0400,3.583
11.0800,3.607
11.1200,3.607
11.1600,3.546
11.2000,3.577
11.2400,3.529
11.2800,3.653
11.3200,3.626
11.3600,3.576
11.4000,3.549
11.4400,3.608
11.4800,3.652
11.5200,3.480
11.5600,3.591
11.6000,3.569
11.6400,3.555
11.6800,3.565
11.7200,3.496
11.7600,3.536
11.8000,3.450
11.8400,3.543
11.8800,3.507
11.9200,3.561
11.9600,3.505
12.0000,3.594
12.0400,3.503
12.0800,3.517
12.1200,3.625
12.1600,3.427
12.2000,3.436
12.2400,3.503
12.2800,3.545
12.3200,3.368
12.3600,3.471
12.4000,3.557
12.4400,3.520
12.4800,3.426
12.5200,3.420
12.5600,3.463
12.6000,3.292
12.6400,3.509
12.6800,3.432
12.7200,3.469
12.7600,3.355
12.8000,3.465
12.8400,3.422
12.8800,3.476
12.9200,3.451
12.9600,3.375
13.0000,3.423
13.0400,3.439
13.0800,3.452
13.1200,3.363
13.1600,3.407
13.2000,3.335
13.2400,3.462
13.2800,3.392
13.3200,3.422
13.3600,3.322
13.4000,3.435
13.4400,3.292
13.4800,3.432
13.5200,3.315
13.5600,3.436
13.6000,3.422
13.6400,3.383
13.6800,3.275
13.7200,3.280
13.7600,3.305
13.8000,3.376
13.8400,3.306
13.8800,3.260
13.9200,3.253
13.9600,3.360
14.0000,3.342
14.0400,3.287
14.0800,3.337
14.1200,3.269
14.1600,3.311
14.2000,3.249
14.2400,3.261
14.2800,3.330
14.3200,3.228
14.3600,3.259
14.4000,3.357
14.4400,3.284
14.4800,3.270
14.5200,3.320
14.5600,3.263
14.6000,3.280
14.6400,3.261
14.6800,3.248
14.7200,3.276
14.7600,3.333
14.8000,3.187
14.8400,3.226
14.8800,3.155
14.9200,3.325
14.9600,3.329
15.0000,3.234
15.0400,3.316
15.0800,3.172
15.1200,3.179
15.1600,3.227
15.2000,3.175
15.2400,3.277
15.2800,3.278
15.3200,3.241
15.3600,3.218
15.4000,3.170
15.4400,3.182
15.4800,3.132
15.5200,3.163
15.5600,3.102
15.6000,3.208
15.6400,3.141
15.6800,3.085
15.7200,3.056
15.7600,3.160
15.8000,3.122
15.8400,3.084
15.8800,3.201
15.9200,3.126
15.9600,3.092
16.0000,3.056
16.0400,3.141
16.0800,3.106
16.1200,3.083
16.1600,3.130
16.2000,3.072
16.2400,3.052
16.2800,3.155
16.3200,3.107
16.3600,3.171
16.4000,3.052
16.4400,3.088
16.4800,3.054
16.5200,3.058
16.5600,3.136
16.6000,3.071
16.6400,3.098
16.6800,2.995
16.7200,3.147
16.7600,2.830
16.8000,3.001
16.8400,3.187
16.8800,3.018
16.9200,2.960
16.9600,2.976
17.0000,2.882
17.0400,2.997
17.0800,3.011
17.1200,3.014
17.1600,3.023
17.2000,3.103
17.2400,3.059
17.2800,2.966
17.3200,3.048
17.3600,2.985
17.4000,2.958
17.4400,2.934
17.4800,2.907
17.5200,3.045
17.5600,2.996
17.6000,2.900
17.6400,2.962
17.6800,2.939
17.7200,2.972
17.7600,2.929
17.8000,2.911
17.8400,2.816
17.8800,2.884
17.9200,2.873
17.9600,2.857
18.0000,2.844
18.0400,2.876
18.0800,2.918
18.1200,2.947
18.1600,2.875
18.2000,2.910
18.2400,2.859
18.2800,2.832
18.3200,2.915
18.3600,2.884
18.4000,2.937
18.4400,2.912
18.4800,2.784
18.5200,2.845
18.5600,2.859
18.6000,2.827
18.6400,2.924
18.6800,2.909
18.7200,2.828
18.7600,2.860
18.8000,2.822
18.8400,2.788
18.8800,2.825
18.9200,2.801
18.9600,2.875
19.0000,2.854
19.0400,2.858
19.0800,2.819
19.1200,2.834
19.1600,2.856
19.2000,2.731
19.2400,2.676
19.2800,2.802
19.3200,2.769
19.3600,2.856
19.4000,2.822
19.4400,2.712
19.4800,2.792
19.5200,2.840
19.5600,2.840
19.6000,2.746
19.6400,2.765
19.6800,2.775
19.7200,2.756
19.7600,2.776
19.8000,2.761
19.8400,2.689
19.8800,2.849
19.9200,2.734
19.9600,2.753
20.0000,2.707
20.0400,2.685
20.0800,2.722
20.1200,2.706
20.1600,2.749
20.2000,2.729
20.2400,2.697
20.2800,2.757
20.3200,2.676
20.3600,2.774
20.4000,2.636
20.4400,2.694
20.4800,2.702
20.5200,2.705
20.5600,2.802
20.6000,2.682
20.6400,2.668
20.6800,2.691
20.7200,2.715
20.7600,2.682
20.8000,2.658
20.8400,2.656
20.8800,2.716
20.9200,2.702
20.9600,2.752
21.0000,2.798
21.0400,2.674
21.0800,2.708
21.1200,2.705
21.1600,2.658
21.2000,2.775
21.2400,2.694
21.2800,2.696
21.3200,2.865
21.3600,2.848
21.4000,3.133
21.4400,3.493
21.4800,3.538
21.5200,3.371
21.5600,3.113
21.6000,2.873
21.6400,2.744
21.6800,2.738
21.7200,2.732
21.7600,2.629
21.8000,2.708
21.8400,2.612
21.8800,2.632
21.9200,2.567
21.9600,2.579
22.0000,2.562
22.0400,2.563
22.0800,2.508
22.1200,2.479
22.1600,2.566
22.2000,2.514
22.2400,2.572
22.2800,2.473
22.3200,2.480
22.3600,2.515
22.4000,2.511
22.4400,2.571
22.4800,2.493
22.5200,2.594
22.5600,2.553
22.6000,2.549
22.6400,2.489
22.6800,2.574
22.7200,2.598
22.7600,2.443
22.8000,2.544
22.8400,2.446
22.8800,2.470
22.9200,2.513
22.9600,2.488
23.0000,2.402
23.0400,2.485
23.0800,2.450
23.1200,2.498
23.1600,2.344
23.2000,2.430
23.2400,2.411
23.2800,2.469
23.3200,2.503
23.3600,2.362
23.4000,2.342
23.4400,2.409
23.4800,2.374
23.5200,2.450
23.5600,2.352
23.6000,2.408
23.6400,2.464
23.6800,2.348
23.7200,2.374
23.7600,2.308
23.8000,2.390
23.8400,2.355
23.8800,2.337
23.9200,2.383
23.9600,2.423
24.0000,2.304
24.0400,2.369
24.0800,2.375
24.1200,2.380
24.1600,2.310
24.2000,2.390
24.2400,2.384
24.2800,2.324
24.3200,2.291
24.3600,2.292
24.4000,2.307
24.4400,2.339
24.4800,2.382
24.5200,2.357
24.5600,2.420
24.6000,2.322
24.6400,2.365
24.6800,2.318
24.7200,2.331
24.7600,2.354
24.8000,2.283
24.8400,2.243
24.8800,2.239
24.9200,2.227
24.9600,2.251
25.0000,2.180
25.0400,2.324
25.0800,2.295
25.1200,2.184
25.1600,2.307
25.2000,2.369
25.2400,2.294
25.2800,2.249
25.3200,2.276
25.3600,2.333
25.4000,2.191
25.4400,2.294
25.4800,2.289
25.5200,2.209
25.5600,2.249
25.6000,2.196
25.6400,2.224
25.6800,2.159
25.7200,2.229
25.7600,2.202
25.8000,2.269
25.8400,2.255
25.8800,2.252
25.9200,2.252
25.9600,2.178
26.0000,2.256
26.0400,2.160
26.0800,2.207
26.1200,2.181
26.1600,2.224
26.2000,2.217
26.2400,2.175
26.2800,2.216
26.3200,2.227
26.3600,2.245
26.4000,2.163
26.4400,2.135
26.4800,2.160
26.5200,2.203
26.5600,2.204
26.6000,2.160
26.6400,2.182
26.6800,2.108
26.7200,2.146
26.7600,2.223
26.8000,2.091
26.8400,2.193
26.8800,2.148
26.9200,2.178
26.9600,2.121
27.0000,2.142
27.0400,2.169
27.0800,2.091
27.1200,2.105
27.1600,2.109
27.2000,2.135
27.2400,2.062
27.2800,2.092
27.3200,2.117
27.3600,2.020
27.4000,2.074
27.4400,2.100
27.4800,2.115
27.5200,2.073
27.5600,2.092
27.6000,2.052
27.6400,2.056
27.6800,2.109
27.7200,2.068
27.7600,2.124
27.8000,2.119
27.8400,2.059
27.8800,2.093
27.9200,2.045
27.9600,2.087
28.0000,1.965
28.0400,2.095
28.0800,2.036
28.1200,2.007
28.1600,2.061
28.2000,2.098
28.2400,2.058
28.2800,2.015
28.3200,2.080
28.3600,2.137
28.4000,2.078
28.4400,2.128
28.4800,2.063
28.5200,2.083
28.5600,2.125
28.6000,2.050
28.6400,2.054
28.6800,1.990
28.7200,2.038
28.7600,2.073
28.8000,2.045
28.8400,2.091
28.8800,2.071
28.9200,2.127
28.9600,2.060
29.0000,1.976
29.0400,2.064
29.0800,2.025
29.1200,2.104
29.1600,1.999
29.2000,2.053
29.2400,2.056
29.2800,1.995
29.3200,1.995
29.3600,2.069
29.4000,2.124
29.4400,1.995
29.4800,2.055
29.5200,2.035
29.5600,2.053
29.6000,1.904
29.6400,2.081
29.6800,2.017
29.7200,2.136
29.7600,2.070
29.8000,2.083
29.8400,2.074
29.8800,2.156
29.9200,2.078
29.9600,2.108
30.0000,2.142
30.0400,2.127
30.0800,2.215
30.1200,2.183
30.1600,2.245
30.2000,2.292
30.2400,2.265
30.2800,2.344
30.3200,2.613
30.3600,2.801
30.4000,3.328
30.4400,3.725
30.4800,5.342
30.5200,7.754
30.5600,9.215
30.6000,8.385
30.6400,7.023
30.6800,5.060
30.7200,3.790
30.7600,3.215
30.8000,2.875
30.8400,2.737
30.8800,2.508
30.9200,2.506
30.9600,2.354
31.0000,2.188
31.0400,2.266
31.0800,2.227
31.1200,2.230
31.1600,2.201
31.2000,2.224
31.2400,2.197
31.2800,2.229
31.3200,2.168
31.3600,2.251
31.4000,2.316
31.4400,2.234
31.4800,2.184
31.5200,2.301
31.5600,2.323
31.6000,2.318
31.6400,2.466
31.6800,2.447
31.7200,2.513
31.7600,2.534
31.8000,2.439
31.8400,2.372
31.8800,2.484
31.9200,2.311
31.9600,2.414
32.0000,2.315
32.0400,2.229
32.0800,2.205
32.1200,2.189
32.1600,2.235
32.2000,2.185
32.2400,2.106
32.2800,2.099
32.3200,2.144
32.3600,2.111
32.4000,2.149
32.4400,2.109
32.4800,2.157
32.5200,2.105
32.5600,2.141
32.6000,2.112
32.6400,2.217
32.6800,2.373
32.7200,2.422
32.7600,2.554
32.8000,3.213
32.8400,7.029
32.8800,15.082
32.9200,14.909
32.9600,11.165
33.0000,10.443
33.0400,6.442
33.0800,3.214
33.1200,2.318
33.1600,2.130
33.2000,2.133
33.2400,2.116
33.2800,2.085
33.3200,2.074
33.3600,2.071
33.4000,1.974
33.4400,2.072
33.4800,2.054
33.5200,2.085
33.5600,2.013
33.6000,2.004
33.6400,1.971
33.6800,1.998
33.7200,1.996
33.7600,2.006
33.8000,1.980
33.8400,1.963
33.8800,1.967
33.9200,1.997
33.9600,2.026
34.0000,2.022
34.0400,2.071
34.0800,2.072
34.1200,2.118
34.1600,2.075
34.2000,2.078
34.2400,2.090
34.2800,2.141
34.3200,2.171
34.3600,2.121
34.4000,2.246
34.4400,2.102
34.4800,2.077
34.5200,2.069
34.5600,2.059
34.6000,2.026
34.6400,2.006
34.6800,2.028
34.7200,1.982
34.7600,1.937
34.8000,1.992
34.8400,1.984
34.8800,1.965
34.9200,1.915
34.9600,1.939
35.0000,1.908
35.0400,1.942
35.0800,1.930
35.1200,1.955
35.1600,1.985
35.2000,2.009
35.2400,2.132
35.2800,2.219
35.3200,2.422
35.3600,2.687
35.4000,3.335
35.4400,3.743
35.4800,3.548
35.5200,3.144
35.5600,2.796
35.6000,2.513
35.6400,2.361
35.6800,2.149
35.7200,2.151
35.7600,2.101
35.8000,2.168
35.8400,2.057
35.8800,2.057
35.9200,2.112
35.9600,2.133
36.0000,2.099
36.0400,2.214
36.0800,2.275
36.1200,2.316
36.1600,2.361
36.2000,2.777
36.2400,3.673
36.2800,4.049
36.3200,3.679
36.3600,3.169
36.4000,2.877
36.4400,2.327
36.4800,2.122
36.5200,2.097
36.5600,1.950
36.6000,1.868
36.6400,1.865
36.6800,1.864
36.7200,1.802
36.7600,1.726
36.8000,1.755
36.8400,1.755
36.8800,1.697
36.9200,1.699
36.9600,1.719
37.0000,1.647
37.0400,1.574
37.0800,1.610
37.1200,1.581
37.1600,1.574
37.2000,1.577
37.2400,1.582
37.2800,1.568
37.3200,1.553
37.3600,1.557
37.4000,1.455
37.4400,1.466
37.4800,1.563
37.5200,1.562
37.5600,1.632
37.6000,1.672
37.6400,1.753
37.6800,1.733
37.7200,1.694
37.7600,1.657
37.8000,1.679
37.8400,1.626
37.8800,1.509
37.9200,1.479
37.9600,1.483
38.0000,1.414
38.0400,1.443
38.0800,1.383
38.1200,1.394
38.1600,1.443
38.2000,1.401
38.2400,1.433
38.2800,1.421
38.3200,1.418
38.3600,1.366
38.4000,1.360
38.4400,1.372
38.4800,1.391
38.5200,1.417
38.5600,1.396
38.6000,1.460
38.6400,1.402
38.6800,1.374
38.7200,1.320
38.7600,1.423
38.8000,1.460
38.8400,1.402
38.8800,1.480
38.9200,1.502
38.9600,1.545
39.0000,1.709
39.0400,2.679
39.0800,4.167
39.1200,4.178
39.1600,3.043
39.2000,3.070
39.2400,2.226
39.2800,1.667
39.3200,1.458
39.3600,1.388
39.4000,1.385
39.4400,1.377
39.4800,1.301
39.5200,1.369
39.5600,1.370
39.6000,1.337
39.6400,1.336
39.6800,1.369
39.7200,1.364
39.7600,1.376
39.8000,1.293
39.8400,1.348
39.8800,1.291
39.9200,1.354
39.9600,1.367
40.0000,1.298
40.0400,1.228
40.0800,1.308
40.1200,1.233
40.1600,1.237
40.2000,1.217
40.2400,1.232
40.2800,1.224
40.3200,1.286
40.3600,1.201
40.4000,1.216
40.4400,1.239
40.4800,1.276
40.5200,1.211
40.5600,1.176
40.6000,1.260
40.6400,1.196
40.6800,1.207
40.7200,1.215
40.7600,1.194
40.8000,1.192
40.8400,1.266
40.8800,1.187
40.9200,1.201
40.9600,1.246
41.0000,1.225
41.0400,1.204
41.0800,1.208
41.1200,1.137
41.1600,1.193
41.2000,1.210
41.2400,1.159
41.2800,1.213
41.3200,1.166
41.3600,1.170
41.4000,1.197
41.4400,1.225
41.4800,1.202
41.5200,1.176
41.5600,1.184
41.6000,1.169
41.6400,1.232
41.6800,1.242
41.7200,1.300
41.7600,1.332
41.8000,1.351
41.8400,1.353
41.8800,1.336
41.9200,1.282
41.9600,1.256
42.0000,1.228
42.0400,1.218
42.0800,1.161
42.1200,1.206
42.1600,1.131
42.2000,1.169
42.2400,1.177
42.2800,1.135
42.3200,1.083
42.3600,1.127
42.4000,1.089
42.4400,1.135
42.4800,1.029
42.5200,1.145
42.5600,1.061
42.6000,1.108
42.6400,1.146
42.6800,1.079
42.7200,1.091
42.7600,1.107
42.8000,1.083
42.8400,1.073
42.8800,1.151
42.9200,1.049
42.9600,1.134
43.0000,1.128
43.0400,1.085
43.0800,1.123
43.1200,1.153
43.1600,1.272
43.2000,1.222
43.2400,1.166
43.2800,1.123
43.3200,1.170
43.3600,1.080
43.4000,1.099
43.4400,1.056
43.4800,1.062
43.5200,1.070
43.5600,1.078
43.6000,1.028
43.6400,1.047
43.6800,1.108
43.7200,1.069
43.7600,1.138
43.8000,1.032
43.8400,1.086
43.8800,1.054
43.9200,1.123
43.9600,1.033
44.0000,1.017
44.0400,1.105
44.0800,1.016
44.1200,1.016
44.1600,1.072
44.2000,1.033
44.2400,1.033
44.2800,1.055
44.3200,1.031
44.3600,0.991
44.4000,1.046
44.4400,1.020
44.4800,0.965
44.5200,1.052
44.5600,1.038
44.6000,0.951
44.6400,0.980
44.6800,1.009
44.7200,1.007
44.7600,1.014
44.8000,1.053
44.8400,1.055
44.8800,1.039
44.9200,1.022
44.9600,1.053
45.0000,0.989
45.0400,1.024
45.0800,1.033
45.1200,1.031
45.1600,0.969
45.2000,0.958
45.2400,1.006
45.2800,0.986
45.3200,0.999
45.3600,0.979
45.4000,1.004
45.4400,1.045
45.4800,1.098
45.5200,1.073
45.5600,1.147
45.6000,1.211
45.6400,1.340
45.6800,1.282
45.7200,1.252
45.7600,1.186
45.8000,1.201
45.8400,1.138
45.8800,1.054
45.9200,1.075
45.9600,1.071
46.0000,1.037
46.0400,1.070
46.0800,0.982
46.1200,1.015
46.1600,1.005
46.2000,0.988
46.2400,1.024
46.2800,0.985
46.3200,0.983
46.3600,1.003
46.4000,0.966
46.4400,0.945
46.4800,0.953
46.5200,0.972
46.5600,0.965
46.6000,0.978
46.6400,0.956
46.6800,0.922
46.7200,0.938
46.7600,0.958
46.8000,0.922
46.8400,0.946
46.8800,1.023
46.9200,0.999
46.9600,0.944
47.0000,0.926
47.0400,0.937
47.0800,0.939
47.1200,0.957
47.1600,0.997
47.2000,0.982
47.2400,0.995
47.2800,0.923
47.3200,1.046
47.3600,1.072
47.4000,0.953
47.4400,0.956
47.4800,1.007
47.5200,1.013
47.5600,0.929
47.6000,0.941
47.6400,1.021
47.6800,0.968
47.7200,0.937
47.7600,0.955
47.8000,0.958
47.8400,0.963
47.8800,0.949
47.9200,0.939
47.9600,0.906
48.0000,0.919
48.0400,0.936
48.0800,0.890
48.1200,0.913
48.1600,0.944
48.2000,0.898
48.2400,0.907
48.2800,0.914
48.3200,0.867
48.3600,0.892
48.4000,0.928
48.4400,0.909
48.4800,0.874
48.5200,0.891
48.5600,0.904
48.6000,0.893
48.6400,0.901
48.6800,0.893
48.7200,0.855
48.7600,0.881
48.8000,0.898
48.8400,0.867
48.8800,0.908
48.9200,0.915
48.9600,0.863
49.0000,0.835
49.0400,0.874
49.0800,0.852
49.1200,0.868
49.1600,0.913
49.2000,0.937
49.2400,0.915
49.2800,0.937
49.3200,0.976
49.3600,0.913
49.4000,0.872
49.4400,0.930
49.4800,0.954
49.5200,0.897
49.5600,0.834
49.6000,0.807
49.6400,0.913
49.6800,0.869
49.7200,0.855
49.7600,0.880
49.8000,0.818
49.8400,0.891
49.8800,0.874
49.9200,0.826
49.9600,0.843
50.0000,0.844
50.0400,0.874
50.0800,0.839
50.1200,0.822
50.1600,0.869
50.2000,0.827
50.2400,0.861
50.2800,0.839
50.3200,0.857
50.3600,0.847
50.4000,0.842
50.4400,0.848
50.4800,0.879
50.5200,0.869
50.5600,0.869
50.6000,0.886
50.6400,0.911
50.6800,0.898
50.7200,0.966
50.7600,0.972
50.8000,1.036
50.8400,1.136
50.8800,1.331
50.9200,1.631
50.9600,1.996
51.0000,2.233
51.0400,2.083
51.0800,1.862
51.1200,1.823
51.1600,1.644
51.2000,1.356
51.2400,1.156
51.2800,1.057
51.3200,1.001
51.3600,0.907
51.4000,0.915
51.4400,0.905
51.4800,0.824
51.5200,0.856
51.5600,0.830
51.6000,0.827
51.6400,0.849
51.6800,0.825
51.7200,0.835
51.7600,0.809
51.8000,0.821
51.8400,0.804
51.8800,0.796
51.9200,0.799
51.9600,0.842
52.0000,0.772
52.0400,0.763
52.0800,0.772
52.1200,0.732
52.1600,0.780
52.2000,0.809
52.2400,0.806
52.2800,0.790
52.3200,0.735
52.3600,0.763
52.4000,0.764
52.4400,0.820
52.4800,0.767
52.5200,0.766
52.5600,0.788
52.6000,0.788
52.6400,0.869
52.6800,0.861
52.7200,0.809
52.7600,0.826
52.8000,0.812
52.8400,0.853
52.8800,0.808
52.9200,0.791
52.9600,0.784
53.0000,0.836
53.0400,0.817
53.0800,0.756
53.1200,0.803
53.1600,0.752
53.2000,0.717
53.2400,0.784
53.2800,0.721
53.3200,0.726
53.3600,0.803
53.4000,0.772
53.4400,0.736
53.4800,0.787
53.5200,0.752
53.5600,0.726
53.6000,0.802
53.6400,0.782
53.6800,0.726
53.7200,0.781
53.7600,0.754
53.8000,0.748
53.8400,0.746
53.8800,0.770
53.9200,0.756
53.9600,0.737
54.0000,0.779
54.0400,0.750
54.0800,0.789
54.1200,0.785
54.1600,0.784
54.2000,0.811
54.2400,0.815
54.2800,0.879
54.3200,1.025
54.3600,1.504
54.4000,2.105
54.4400,1.703
54.4800,1.175
54.5200,1.288
54.5600,1.464
54.6000,1.101
54.6400,0.867
54.6800,0.807
54.7200,0.762
54.7600,0.814
54.8000,0.787
54.8400,0.740
54.8800,0.799
54.9200,0.730
54.9600,0.797
55.0000,0.724
55.0400,0.762
55.0800,0.773
55.1200,0.838
55.1600,0.762
55.2000,0.742
55.2400,0.731
55.2800,0.732
55.3200,0.755
55.3600,0.720
55.4000,0.757
55.4400,0.739
55.4800,0.766
55.5200,0.716
55.5600,0.776
55.6000,0.823
55.6400,0.834
55.6800,0.763
55.7200,0.785
55.7600,0.841
55.8000,0.822
55.8400,0.802
55.8800,0.819
55.9200,0.910
55.9600,0.914
56.0000,0.933
56.0400,0.914
56.0800,0.925
56.1200,0.905
56.1600,0.872
56.2000,0.883
56.2400,0.833
56.2800,0.868
56.3200,0.858
56.3600,0.914
56.4000,0.953
56.4400,1.060
56.4800,1.337
56.5200,1.342
56.5600,1.110
56.6000,1.040
56.6400,1.191
56.6800,1.108
56.7200,0.951
56.7600,0.861
56.8000,0.800
56.8400,0.867
56.8800,0.787
56.9200,0.835
56.9600,0.773
57.0000,0.795
57.0400,0.779
57.0800,0.805
57.1200,0.758
57.1600,0.737
57.2000,0.734
57.2400,0.749
57.2800,0.747
57.3200,0.799
57.3600,0.743
57.4000,0.783
57.4400,0.749
57.4800,0.748
57.5200,0.725
57.5600,0.790
57.6000,0.690
57.6400,0.724
57.6800,0.736
57.7200,0.716
57.7600,0.715
57.8000,0.695
57.8400,0.710
57.8800,0.693
57.9200,0.709
57.9600,0.689
58.0000,0.658
58.0400,0.719
58.0800,0.690
58.1200,0.686
58.1600,0.692
58.2000,0.660
58.2400,0.683
58.2800,0.667
58.3200,0.630
58.3600,0.675
58.4000,0.692
58.4400,0.668
58.4800,0.649
58.5200,0.642
58.5600,0.657
58.6000,0.672
58.6400,0.668
58.6800,0.680
58.7200,0.658
58.7600,0.698
58.8000,0.687
58.8400,0.673
58.8800,0.704
58.9200,0.730
58.9600,0.646
59.0000,0.683
59.0400,0.717
59.0800,0.816
59.1200,0.755
59.1600,0.712
59.2000,0.809
59.2400,0.747
59.2800,0.669
59.3200,0.691
59.3600,0.735
59.4000,0.698
59.4400,0.727
59.4800,0.650
59.5200,0.702
59.5600,0.645
59.6000,0.622
59.6400,0.652
59.6800,0.624
59.7200,0.630
59.7600,0.679
59.8000,0.649
59.8400,0.666
59.8800,0.612
59.9200,0.614
59.9600,0.645
60.0000,0.691
60.0400,0.645
60.0800,0.686
60.1200,0.654
60.1600,0.727
60.2000,0.697
60.2400,0.662
60.2800,0.705
60.3200,0.711
60.3600,0.750
60.4000,0.743
60.4400,0.789
60.4800,0.813
60.5200,0.969
60.5600,1.102
60.6000,1.288
60.6400,1.463
60.6800,1.391
60.7200,1.250
60.7600,1.213
60.8000,1.239
60.8400,1.140
60.8800,0.939
60.9200,0.854
60.9600,0.760
61.0000,0.794
61.0400,0.729
61.0800,0.720
61.1200,0.687
61.1600,0.679
61.2000,0.703
61.2400,0.671
61.2800,0.652
61.3200,0.691
61.3600,0.631
61.4000,0.630
61.4400,0.638
61.4800,0.637
61.5200,0.674
61.5600,0.657
61.6000,0.715
61.6400,0.778
61.6800,0.735
61.7200,0.662
61.7600,0.618
61.8000,0.643
61.8400,0.719
61.8800,0.649
61.9200,0.656
61.9600,0.670
62.0000,0.689
62.0400,0.683
62.0800,0.740
62.1200,0.825
62.1600,0.755
62.2000,0.746
62.2400,0.792
62.2800,0.725
62.3200,0.773
62.3600,0.719
62.4000,0.748
62.4400,0.711
62.4800,0.675
62.5200,0.690
62.5600,0.684
62.6000,0.658
62.6400,0.681
62.6800,0.643
62.7200,0.682
62.7600,0.705
62.8000,0.699
62.8400,0.672
62.8800,0.705
62.9200,0.661
62.9600,0.700
63.0000,0.747
63.0400,0.754
63.0800,0.807
63.1200,1.041
63.1600,1.182
63.2000,0.967
63.2400,0.795
63.2800,0.845
63.3200,0.944
63.3600,0.883
63.4000,0.745
63.4400,0.718
63.4800,0.661
63.5200,0.668
63.5600,0.723
63.6000,0.759
63.6400,0.830
63.6800,0.766
63.7200,0.725
63.7600,0.705
63.8000,0.757
63.8400,0.700
63.8800,0.710
63.9200,0.644
63.9600,0.630
64.0000,0.613
64.0400,0.649
64.0800,0.610
64.1200,0.644
64.1600,0.631
64.2000,0.628
64.2400,0.631
64.2800,0.664
64.3200,0.634
64.3600,0.607
64.4000,0.672
64.4400,0.654
64.4800,0.618
64.5200,0.593
64.5600,0.560
64.6000,0.601
64.6400,0.653
64.6800,0.601
64.7200,0.637
64.7600,0.593
64.8000,0.610
64.8400,0.654
64.8800,0.663
64.9200,0.676
64.9600,0.623
65.0000,0.661
65.0400,0.706
65.0800,0.685
65.1200,0.714
65.1600,0.706
65.2000,0.684
65.2400,0.696
65.2800,0.685
65.3200,0.674
65.3600,0.674
65.4000,0.675
65.4400,0.691
65.4800,0.695
65.5200,0.665
65.5600,0.689
65.6000,0.723
65.6400,0.656
65.6800,0.706
65.7200,0.722
65.7600,0.729
65.8000,0.736
65.8400,0.788
65.8800,0.680
65.9200,0.738
65.9600,0.718
66.0000,0.682
66.0400,0.768
66.0800,0.760
66.1200,0.760
66.1600,0.767
66.2000,0.775
66.2400,0.795
66.2800,0.808
66.3200,0.788
66.3600,0.895
66.4000,0.881
66.4400,0.856
66.4800,0.867
66.5200,0.880
66.5600,0.909
66.6000,0.983
66.6400,0.906
66.6800,0.903
66.7200,0.962
66.7600,0.996
66.8000,0.990
66.8400,1.073
66.8800,1.191
66.9200,1.651
66.9600,1.850
67.0000,1.644
67.0400,1.314
67.0800,1.250
67.1200,1.427
67.1600,1.455
67.2000,1.289
67.2400,1.190
67.2800,1.166
67.3200,1.158
67.3600,1.200
67.4000,1.203
67.4400,1.248
67.4800,1.235
67.5200,1.274
67.5600,1.295
67.6000,1.310
67.6400,1.399
67.6800,1.375
67.7200,1.420
67.7600,1.494
67.8000,1.462
67.8400,1.526
67.8800,1.548
67.9200,1.562
67.9600,1.646
68.0000,1.730
68.0400,1.679
68.0800,1.718
68.1200,1.899
68.1600,1.824
68.2000,1.864
68.2400,1.947
68.2800,2.075
68.3200,2.055
68.3600,2.049
68.4000,2.233
68.4400,2.341
68.4800,2.479
68.5200,2.595
68.5600,2.753
68.6000,2.868
68.6400,3.258
68.6800,3.983
68.7200,5.170
68.7600,6.456
68.8000,7.126
68.8400,7.282
68.8800,7.743
68.9200,9.550
68.9600,14.026
69.0000,25.293
69.0400,72.080
69.0800,325.292
69.1200,494.760
69.1600,242.802
69.2000,62.059
69.2400,60.368
69.2800,182.569
69.3200,249.265
69.3600,116.615
69.4000,29.813
69.4400,13.376
69.4800,8.938
69.5200,7.058
69.5600,5.702
69.6000,4.924
69.6400,4.354
69.6800,3.810
69.7200,3.580
69.7600,3.197
69.8000,2.996
69.8400,2.745
69.8800,2.622
69.9200,2.511
69.9600,2.352
70.0000,2.284
70.0400,2.253
70.0800,2.164
70.1200,2.118
70.1600,1.922
70.2000,1.913
70.2400,1.825
70.2800,1.745
70.3200,1.736
70.3600,1.671
70.4000,1.577
70.4400,1.560
70.4800,1.542
70.5200,1.514
70.5600,1.437
70.6000,1.436
70.6400,1.448
70.6800,1.379
70.7200,1.254
70.7600,1.236
70.8000,1.187
70.8400,1.227
70.8800,1.216
70.9200,1.156
70.9600,1.083
71.0000,1.119
71.0400,1.051
71.0800,1.056
71.1200,1.029
71.1600,0.978
71.2000,0.967
71.2400,1.026
71.2800,0.899
71.3200,0.964
71.3600,0.961
71.4000,0.894
71.4400,0.883
71.4800,0.871
71.5200,0.782
71.5600,0.820
71.6000,0.808
71.6400,0.760
71.6800,0.805
71.7200,0.755
71.7600,0.767
71.8000,0.792
71.8400,0.718
71.8800,0.733
71.9200,0.741
71.9600,0.709
72.0000,0.735
72.0400,0.677
72.0800,0.668
72.1200,0.633
72.1600,0.711
72.2000,0.649
72.2400,0.611
72.2800,0.636
72.3200,0.547
72.3600,0.619
72.4000,0.619
72.4400,0.647
72.4800,0.589
72.5200,0.602
72.5600,0.560
72.6000,0.591
72.6400,0.541
72.6800,0.557
72.7200,0.529
72.7600,0.540
72.8000,0.540
72.8400,0.547
72.8800,0.508
72.9200,0.535
72.9600,0.504
73.0000,0.491
73.0400,0.550
73.0800,0.537
73.1200,0.503
73.1600,0.505
73.2000,0.481
73.2400,0.518
73.2800,0.452
73.3200,0.490
73.3600,0.509
73.4000,0.457
73.4400,0.458
73.4800,0.495
73.5200,0.487
73.5600,0.475
73.6000,0.520
73.6400,0.524
73.6800,0.468
73.7200,0.479
73.7600,0.496
73.8000,0.447
73.8400,0.466
73.8800,0.469
73.9200,0.467
73.9600,0.412
74.0000,0.446
74.0400,0.451
74.0800,0.421
74.1200,0.431
74.1600,0.417
74.2000,0.430
74.2400,0.423
74.2800,0.418
74.3200,0.406
74.3600,0.437
74.4000,0.421
74.4400,0.403
74.4800,0.408
74.5200,0.367
74.5600,0.379
74.6000,0.436
74.6400,0.431
74.6800,0.443
74.7200,0.436
74.7600,0.408
74.8000,0.422
74.8400,0.418
74.8800,0.431
74.9200,0.426
74.9600,0.438
75.0000,0.451
75.0400,0.492
75.0800,0.447
75.1200,0.470
75.1600,0.450
75.2000,0.433
75.2400,0.424
75.2800,0.422
75.3200,0.404
75.3600,0.432
75.4000,0.425
75.4400,0.377
75.4800,0.352
75.5200,0.381
75.5600,0.380
75.6000,0.356
75.6400,0.369
75.6800,0.388
75.7200,0.393
75.7600,0.356
75.8000,0.349
75.8400,0.352
75.8800,0.365
75.9200,0.352
75.9600,0.391
76.0000,0.390
76.0400,0.343
76.0800,0.368
76.1200,0.387
76.1600,0.384
76.2000,0.362
76.2400,0.366
76.2800,0.384
76.3200,0.392
76.3600,0.452
76.4000,0.421
76.4400,0.419
76.4800,0.444
76.5200,0.399
76.5600,0.364
76.6000,0.388
76.6400,0.418
76.6800,0.412
76.7200,0.389
76.7600,0.365
76.8000,0.338
76.8400,0.375
76.8800,0.357
76.9200,0.356
76.9600,0.376
77.0000,0.354
77.0400,0.346
77.0800,0.389
77.1200,0.331
77.1600,0.348
77.2000,0.353
77.2400,0.352
77.2800,0.338
77.3200,0.371
77.3600,0.344
77.4000,0.319
77.4400,0.326
77.4800,0.347
77.5200,0.382
77.5600,0.328
77.6000,0.360
77.6400,0.342
77.6800,0.389
77.7200,0.376
77.7600,0.368
77.8000,0.369
77.8400,0.344
77.8800,0.350
77.9200,0.390
77.9600,0.350
78.0000,0.343
78.0400,0.341
78.0800,0.318
78.1200,0.331
78.1600,0.317
78.2000,0.348
78.2400,0.316
78.2800,0.315
78.3200,0.348
78.3600,0.309
78.4000,0.314
78.4400,0.351
78.4800,0.324
78.5200,0.325
78.5600,0.302
78.6000,0.295
78.6400,0.302
78.6800,0.316
78.7200,0.341
78.7600,0.304
78.8000,0.333
78.8400,0.326
78.8800,0.343
78.9200,0.325
78.9600,0.361
79.0000,0.319
79.0400,0.344
79.0800,0.349
79.1200,0.358
79.1600,0.332
79.2000,0.352
79.2400,0.342
79.2800,0.329
79.3200,0.328
79.3600,0.322
79.4000,0.297
79.4400,0.324
79.4800,0.312
79.5200,0.325
79.5600,0.322
79.6000,0.325
79.6400,0.306
79.6800,0.305
79.7200,0.284
79.7600,0.313
79.8000,0.294
79.8400,0.298
79.8800,0.307
79.9200,0.298
79.9600,0.302
80.0000,0.303
