theta,intensity
5.0000,5.448
5.0400,5.471
5.0800,5.422
5.1200,5.443
5.1600,5.332
5.2000,5.250
5.2400,5.282
5.2800,5.358
5.3200,5.329
5.3600,5.156
5.4000,5.291
5.4400,5.130
5.4800,5.127
5.5200,4.993
5.5600,4.976
5.6000,4.866
5.6400,4.796
5.6800,4.764
5.7200,4.748
5.7600,4.744
5.8000,4.626
5.8400,4.559
5.8800,4.715
5.9200,4.540
5.9600,4.507
6.0000,4.466
6.0400,4.465
6.0800,4.466
6.1200,4.384
6.1600,4.380
6.2000,4.244
6.2400,4.336
6.2800,4.479
6.3200,4.357
6.3600,4.370
6.4000,4.265
6.4400,4.276
6.4800,4.245
6.5200,4.127
6.5600,4.235
6.6000,4.251
6.6400,4.286
6.6800,4.249
6.7200,4.257
6.7600,4.164
6.8000,4.086
6.8400,4.081
6.8800,4.102
6.9200,4.130
6.9600,4.105
7.0000,4.073
7.0400,3.921
7.0800,4.093
7.1200,4.054
7.1600,3.979
7.2000,4.035
7.2400,3.798
7.2800,4.075
7.3200,4.032
7.3600,3.889
7.4000,4.014
7.4400,3.976
7.4800,3.957
7.5200,4.024
7.5600,4.052
7.6000,3.868
7.6400,3.988
7.6800,3.892
7.7200,3.894
7.7600,3.910
7.8000,3.845
7.8400,3.963
7.8800,3.926
7.9200,3.880
7.9600,3.879
8.0000,3.708
8.0400,3.923
8.0800,3.915
8.1200,3.913
8.1600,3.956
8.2000,3.778
8.2400,3.838
8.2800,3.865
8.3200,3.799
8.3600,3.786
8.4000,3.811
8.4400,3.827
8.4800,3.812
8.5200,3.838
8.5600,3.883
8.6000,3.717
8.6400,3.727
8.6800,3.736
8.7200,3.661
8.7600,3.749
8.8000,3.793
8.8400,3.877
8.8800,3.751
8.9200,3.839
8.9600,3.648
9.0000,3.748
9.0400,3.798
9.0800,3.737
9.1200,3.818
9.1600,3.832
9.2000,3.786
9.2400,3.834
9.2800,3.747
9.3200,3.745
9.3600,3.747
9.4000,3.766
9.4400,3.895
9.4800,3.704
9.5200,3.677
9.5600,3.698
9.6000,3.697
9.6400,3.724
9.6800,3.664
9.7200,3.666
9.7600,3.797
9.8000,3.754
9.8400,3.634
9.8800,3.544
9.9200,3.749
9.9600,3.703
10.0000,3.649
10.0400,3.651
10.0800,3.605
10.1200,3.674
10.1600,3.637
10.2000,3.568
10.2400,3.635
10.2800,3.726
10.3200,3.617
10.3600,3.689
10.4000,3.637
10.4400,3.578
10.4800,3.569
10.5200,3.521
10.5600,3.591
10.6000,3.556
10.6400,3.635
10.6800,3.536
10.7200,3.547
10.7600,3.569
10.8000,3.577
10.8400,3.621
10.8800,3.538
10.9200,3.673
10.9600,3.542
11.0000,3.495
11.0400,3.612
11.0800,3.636
11.1200,3.471
11.1600,3.441
11.2000,3.551
11.2400,3.551
11.2800,3.517
11.3200,3.575
11.3600,3.495
11.4000,3.565
11.4400,3.520
11.4800,3.512
11.5200,3.471
11.5600,3.603
11.6000,3.480
11.6400,3.578
11.6800,3.486
11.7200,3.481
11.7600,3.417
11.8000,3.376
11.8400,3.320
11.8800,3.490
11.9200,3.560
11.9600,3.473
12.0000,3.465
12.0400,3.474
12.0800,3.463
12.1200,3.444
12.1600,3.409
12.2000,3.468
12.2400,3.463
12.2800,3.488
12.3200,3.490
12.3600,3.473
12.4000,3.445
12.4400,3.358
12.4800,3.381
12.5200,3.390
12.5600,3.455
12.6000,3.324
12.6400,3.394
12.6800,3.378
12.7200,3.392
12.7600,3.374
12.8000,3.341
12.8400,3.475
12.8800,3.460
12.9200,3.420
12.9600,3.403
13.0000,3.358
13.0400,3.385
13.0800,3.466
13.1200,3.339
13.1600,3.342
13.2000,3.285
13.2400,3.386
13.2800,3.376
13.3200,3.383
13.3600,3.277
13.4000,3.323
13.4400,3.329
13.4800,3.332
13.5200,3.350
13.5600,3.292
13.6000,3.311
13.6400,3.276
13.6800,3.298
13.7200,3.270
13.7600,3.282
13.8000,3.277
13.8400,3.367
13.8800,3.296
13.9200,3.256
13.9600,3.188
14.0000,3.306
14.0400,3.249
14.0800,3.210
14.1200,3.208
14.1600,3.166
14.2000,3.236
14.2400,3.195
14.2800,3.285
14.3200,3.256
14.3600,3.211
14.4000,3.149
14.4400,3.199
14.4800,3.238
14.5200,3.313
14.5600,3.190
14.6000,3.143
14.6400,3.199
14.6800,3.293
14.7200,3.162
14.7600,3.217
14.8000,3.214
14.8400,3.130
14.8800,3.235
14.9200,3.145
14.9600,3.152
15.0000,3.255
15.0400,3.206
15.0800,3.131
15.1200,3.119
15.1600,3.206
15.2000,3.185
15.2400,3.108
15.2800,3.271
15.3200,3.217
15.3600,3.072
15.4000,3.153
15.4400,3.212
15.4800,3.151
15.5200,3.129
15.5600,3.204
15.6000,3.167
15.6400,3.151
15.6800,3.094
15.7200,3.111
15.7600,3.028
15.8000,3.171
15.8400,3.082
15.8800,3.211
15.9200,3.073
15.9600,3.091
16.0000,3.020
16.0400,3.081
16.0800,3.026
16.1200,2.951
16.1600,3.022
16.2000,3.021
16.2400,3.029
16.2800,2.978
16.3200,3.033
16.3600,3.064
16.4000,3.010
16.4400,3.064
16.4800,3.113
16.5200,3.118
16.5600,3.024
16.6000,3.042
16.6400,3.020
16.6800,3.055
16.7200,2.994
16.7600,2.973
16.8000,3.032
16.8400,2.933
16.8800,2.999
16.9200,2.996
16.9600,2.955
17.0000,2.983
17.0400,3.003
17.0800,2.918
17.1200,2.924
17.1600,2.983
17.2000,2.953
17.2400,2.964
17.2800,2.965
17.3200,2.932
17.3600,2.868
17.4000,2.952
17.4400,2.987
17.4800,2.960
17.5200,3.094
17.5600,2.948
17.6000,3.047
17.6400,2.954
17.6800,2.971
17.7200,3.061
17.7600,2.887
17.8000,2.801
17.8400,2.922
17.8800,2.827
17.9200,2.846
17.9600,2.875
18.0000,2.954
18.0400,2.853
18.0800,2.951
18.1200,2.933
18.1600,2.763
18.2000,2.903
18.2400,2.910
18.2800,2.768
18.3200,2.869
18.3600,2.892
18.4000,2.832
18.4400,2.874
18.4800,2.899
18.5200,2.846
18.5600,2.869
18.6000,2.822
18.6400,2.917
18.6800,2.817
18.7200,2.864
18.7600,2.808
18.8000,2.778
18.8400,2.870
18.8800,2.780
18.9200,2.755
18.9600,2.856
19.0000,2.814
19.0400,2.788
19.0800,2.807
19.1200,2.781
19.1600,2.872
19.2000,2.706
19.2400,2.734
19.2800,2.795
19.3200,2.763
19.3600,2.797
19.4000,2.802
19.4400,2.737
19.4800,2.762
19.5200,2.739
19.5600,2.676
19.6000,2.775
19.6400,2.770
19.6800,2.838
19.7200,2.818
19.7600,2.667
19.8000,2.689
19.8400,2.764
19.8800,2.706
19.9200,2.709
19.9600,2.703
20.0000,2.729
20.0400,2.734
20.0800,2.709
20.1200,2.719
20.1600,2.613
20.2000,2.627
20.2400,2.638
20.2800,2.713
20.3200,2.597
20.3600,2.657
20.4000,2.734
20.4400,2.771
20.4800,2.709
20.5200,2.696
20.5600,2.652
20.6000,2.761
20.6400,2.650
20.6800,2.644
20.7200,2.687
20.7600,2.669
20.8000,2.590
20.8400,2.644
20.8800,2.634
20.9200,2.640
20.9600,2.635
21.0000,2.677
21.0400,2.666
21.0800,2.687
21.1200,2.578
21.1600,2.642
21.2000,2.669
21.2400,2.668
21.2800,2.745
21.3200,2.702
21.3600,2.642
21.4000,2.831
21.4400,2.985
21.4800,3.117
21.5200,3.348
21.5600,3.326
21.6000,3.184
21.6400,2.888
21.6800,2.750
21.7200,2.650
21.7600,2.638
21.8000,2.662
21.8400,2.618
21.8800,2.634
21.9200,2.546
21.9600,2.600
22.0000,2.565
22.0400,2.545
22.0800,2.551
22.1200,2.597
22.1600,2.581
22.2000,2.582
22.2400,2.469
22.2800,2.492
22.3200,2.478
22.3600,2.569
22.4000,2.515
22.4400,2.529
22.4800,2.612
22.5200,2.508
22.5600,2.492
22.6000,2.539
22.6400,2.414
22.6800,2.470
22.7200,2.510
22.7600,2.390
22.8000,2.517
22.8400,2.540
22.8800,2.456
22.9200,2.448
22.9600,2.385
23.0000,2.488
23.0400,2.497
23.0800,2.443
23.1200,2.506
23.1600,2.472
23.2000,2.459
23.2400,2.413
23.2800,2.393
23.3200,2.509
23.3600,2.439
23.4000,2.429
23.4400,2.359
23.4800,2.416
23.5200,2.400
23.5600,2.460
23.6000,2.342
23.6400,2.434
23.6800,2.364
23.7200,2.262
23.7600,2.374
23.8000,2.290
23.8400,2.393
23.8800,2.374
23.9200,2.448
23.9600,2.344
24.0000,2.310
24.0400,2.332
24.0800,2.328
24.1200,2.355
24.1600,2.384
24.2000,2.367
24.2400,2.286
24.2800,2.307
24.3200,2.392
24.3600,2.303
24.4000,2.302
24.4400,2.323
24.4800,2.349
24.5200,2.300
24.5600,2.352
24.6000,2.301
24.6400,2.388
24.6800,2.378
24.7200,2.318
24.7600,2.387
24.8000,2.311
24.8400,2.259
24.8800,2.267
24.9200,2.307
24.9600,2.272
25.0000,2.263
25.0400,2.312
25.0800,2.241
25.1200,2.292
25.1600,2.329
25.2000,2.241
25.2400,2.170
25.2800,2.240
25.3200,2.192
25.3600,2.270
25.4000,2.244
25.4400,2.265
25.4800,2.238
25.5200,2.270
25.5600,2.228
25.6000,2.189
25.6400,2.199
25.6800,2.230
25.7200,2.240
25.7600,2.197
25.8000,2.297
25.8400,2.218
25.8800,2.217
25.9200,2.142
25.9600,2.149
26.0000,2.196
26.0400,2.160
26.0800,2.171
26.1200,2.191
26.1600,2.202
26.2000,2.118
26.2400,2.113
26.2800,2.166
26.3200,2.234
26.3600,2.189
26.4000,2.196
26.4400,2.124
26.4800,2.173
26.5200,2.173
26.5600,2.119
26.6000,2.144
26.6400,2.203
26.6800,2.205
26.7200,2.076
26.7600,2.126
26.8000,2.076
26.8400,2.169
26.8800,2.181
26.9200,2.112
26.9600,2.171
27.0000,2.097
27.0400,2.103
27.0800,2.072
27.1200,2.120
27.1600,2.120
27.2000,2.172
27.2400,2.134
27.2800,2.110
27.3200,2.205
27.3600,2.142
27.4000,2.040
27.4400,2.063
27.4800,2.065
27.5200,2.009
27.5600,2.039
27.6000,2.134
27.6400,2.018
27.6800,2.094
27.7200,2.018
27.7600,2.092
27.8000,2.102
27.8400,2.147
27.8800,2.080
27.9200,2.071
27.9600,2.105
28.0000,2.043
28.0400,2.137
28.0800,2.068
28.1200,2.066
28.1600,2.060
28.2000,2.063
28.2400,2.019
28.2800,2.004
28.3200,1.972
28.3600,2.090
28.4000,2.009
28.4400,2.075
28.4800,1.966
28.5200,2.047
28.5600,2.042
28.6000,2.014
28.6400,2.031
28.6800,1.981
28.7200,2.004
28.7600,2.000
28.8000,1.910
28.8400,1.996
28.8800,2.049
28.9200,2.018
28.9600,2.017
29.0000,1.990
29.0400,1.982
29.0800,1.991
29.1200,1.966
29.1600,2.093
29.2000,1.936
29.2400,2.049
29.2800,2.024
29.3200,2.024
29.3600,2.062
29.4000,2.017
29.4400,1.960
29.4800,1.946
29.5200,1.991
29.5600,1.952
29.6000,1.901
29.6400,2.001
29.6800,2.080
29.7200,1.991
29.7600,2.008
29.8000,2.066
29.8400,2.025
29.8800,2.048
29.9200,2.070
29.9600,2.101
30.0000,2.089
30.0400,2.125
30.0800,2.089
30.1200,2.153
30.1600,2.181
30.2000,2.235
30.2400,2.217
30.2800,2.372
30.3200,2.392
30.3600,2.496
30.4000,2.661
30.4400,2.927
30.4800,3.323
30.5200,3.939
30.5600,5.490
30.6000,7.407
30.6400,8.145
30.6800,7.279
30.7200,6.088
30.7600,4.755
30.8000,3.638
30.8400,3.082
30.8800,2.844
30.9200,2.621
30.9600,2.572
31.0000,2.492
31.0400,2.459
31.0800,2.329
31.1200,2.271
31.1600,2.273
31.2000,2.239
31.2400,2.177
31.2800,2.195
31.3200,2.217
31.3600,2.240
31.4000,2.316
31.4400,2.274
31.4800,2.274
31.5200,2.300
31.5600,2.377
31.6000,2.422
31.6400,2.433
31.6800,2.523
31.7200,2.614
31.7600,2.694
31.8000,2.651
31.8400,2.695
31.8800,2.649
31.9200,2.579
31.9600,2.473
32.0000,2.493
32.0400,2.444
32.0800,2.412
32.1200,2.285
32.1600,2.301
32.2000,2.266
32.2400,2.160
32.2800,2.220
32.3200,2.129
32.3600,2.140
32.4000,2.182
32.4400,2.068
32.4800,2.107
32.5200,2.142
32.5600,2.052
32.6000,2.086
32.6400,2.093
32.6800,2.068
32.7200,2.064
32.7600,2.130
32.8000,2.224
32.8400,2.344
32.8800,3.062
32.9200,5.727
32.9600,7.516
33.0000,6.152
33.0400,5.670
33.0800,4.838
33.1200,4.107
33.1600,2.687
33.2000,2.197
33.2400,2.067
33.2800,2.003
33.3200,1.965
33.3600,1.987
33.4000,2.008
33.4400,2.036
33.4800,1.938
33.5200,1.937
33.5600,2.025
33.6000,1.950
33.6400,1.983
33.6800,1.995
33.7200,1.973
33.7600,1.870
33.8000,1.958
33.8400,1.928
33.8800,2.016
33.9200,2.104
33.9600,1.980
34.0000,2.068
34.0400,2.062
34.0800,2.027
34.1200,2.079
34.1600,2.078
34.2000,2.053
34.2400,2.162
34.2800,2.147
34.3200,2.172
34.3600,2.204
34.4000,2.315
34.4400,2.349
34.4800,2.377
34.5200,2.370
34.5600,2.246
34.6000,2.205
34.6400,2.186
34.6800,2.122
34.7200,2.073
34.7600,2.037
34.8000,2.042
34.8400,1.982
34.8800,1.984
34.9200,1.938
34.9600,2.025
35.0000,1.974
35.0400,1.974
35.0800,1.983
35.1200,1.992
35.1600,2.050
35.2000,2.116
35.2400,2.079
35.2800,2.116
35.3200,2.115
35.3600,2.273
35.4000,2.524
35.4400,2.967
35.4800,3.385
35.5200,3.563
35.5600,3.283
35.6000,3.059
35.6400,2.714
35.6800,2.445
35.7200,2.334
35.7600,2.315
35.8000,2.243
35.8400,2.151
35.8800,2.238
35.9200,2.233
35.9600,2.337
36.0000,2.339
36.0400,2.387
36.0800,2.366
36.1200,2.457
36.1600,2.530
36.2000,2.569
36.2400,2.754
36.2800,3.435
36.3200,4.063
36.3600,3.878
36.4000,3.582
36.4400,3.299
36.4800,2.777
36.5200,2.479
36.5600,2.324
36.6000,2.170
36.6400,2.067
36.6800,1.985
36.7200,1.863
36.7600,1.861
36.8000,1.904
36.8400,1.850
36.8800,1.791
36.9200,1.690
36.9600,1.706
37.0000,1.646
37.0400,1.679
37.0800,1.673
37.1200,1.638
37.1600,1.593
37.2000,1.604
37.2400,1.569
37.2800,1.579
37.3200,1.604
37.3600,1.465
37.4000,1.540
37.4400,1.524
37.4800,1.490
37.5200,1.592
37.5600,1.543
37.6000,1.500
37.6400,1.516
37.6800,1.608
37.7200,1.711
37.7600,1.714
37.8000,1.690
37.8400,1.602
37.8800,1.504
37.9200,1.514
37.9600,1.504
38.0000,1.422
38.0400,1.454
38.0800,1.421
38.1200,1.423
38.1600,1.363
38.2000,1.405
38.2400,1.401
38.2800,1.431
38.3200,1.423
38.3600,1.393
38.4000,1.420
38.4400,1.362
38.4800,1.397
38.5200,1.391
38.5600,1.438
38.6000,1.369
38.6400,1.290
38.6800,1.393
38.7200,1.329
38.7600,1.364
38.8000,1.313
38.8400,1.306
38.8800,1.395
38.9200,1.404
38.9600,1.443
39.0000,1.536
39.0400,1.674
39.0800,1.804
39.1200,2.286
39.1600,2.675
39.2000,2.385
39.2400,2.162
39.2800,2.004
39.3200,1.712
39.3600,1.503
39.4000,1.308
39.4400,1.353
39.4800,1.368
39.5200,1.309
39.5600,1.328
39.6000,1.283
39.6400,1.342
39.6800,1.217
39.7200,1.335
39.7600,1.253
39.8000,1.312
39.8400,1.277
39.8800,1.249
39.9200,1.352
39.9600,1.272
40.0000,1.244
40.0400,1.300
40.0800,1.253
40.1200,1.244
40.1600,1.237
40.2000,1.244
40.2400,1.262
40.2800,1.237
40.3200,1.266
40.3600,1.265
40.4000,1.236
40.4400,1.240
40.4800,1.162
40.5200,1.261
40.5600,1.208
40.6000,1.160
40.6400,1.186
40.6800,1.223
40.7200,1.211
40.7600,1.191
40.8000,1.187
40.8400,1.185
40.8800,1.214
40.9200,1.195
40.9600,1.169
41.0000,1.182
41.0400,1.213
41.0800,1.219
41.1200,1.231
41.1600,1.158
41.2000,1.133
41.2400,1.121
41.2800,1.220
41.3200,1.158
41.3600,1.185
41.4000,1.216
41.4400,1.150
41.4800,1.201
41.5200,1.241
41.5600,1.241
41.6000,1.179
41.6400,1.133
41.6800,1.139
41.7200,1.218
41.7600,1.194
41.8000,1.177
41.8400,1.263
41.8800,1.358
41.9200,1.290
41.9600,1.322
42.0000,1.235
42.0400,1.191
42.0800,1.232
42.1200,1.148
42.1600,1.136
42.2000,1.102
42.2400,1.121
42.2800,1.201
42.3200,1.168
42.3600,1.132
42.4000,1.137
42.4400,1.063
42.4800,1.078
42.5200,1.114
42.5600,1.142
42.6000,1.089
42.6400,1.090
42.6800,1.101
42.7200,1.147
42.7600,1.065
42.8000,1.076
42.8400,1.089
42.8800,1.079
42.9200,1.125
42.9600,1.109
43.0000,1.123
43.0400,1.111
43.0800,1.102
43.1200,1.106
43.1600,1.108
43.2000,1.279
43.2400,1.737
43.2800,1.892
43.3200,1.549
43.3600,1.483
43.4000,1.414
43.4400,1.255
43.4800,1.079
43.5200,1.096
43.5600,1.053
43.6000,1.077
43.6400,1.052
43.6800,1.049
43.7200,1.070
43.7600,1.043
43.8000,1.068
43.8400,1.087
43.8800,1.051
43.9200,1.028
43.9600,1.052
44.0000,1.067
44.0400,1.056
44.0800,1.069
44.1200,1.029
44.1600,1.063
44.2000,1.103
44.2400,1.017
44.2800,0.989
44.3200,0.947
44.3600,1.036
44.4000,0.988
44.4400,0.950
44.4800,0.987
44.5200,0.988
44.5600,1.044
44.6000,0.995
44.6400,0.980
44.6800,0.998
44.7200,1.020
44.7600,1.039
44.8000,1.001
44.8400,0.960
44.8800,1.004
44.9200,0.986
44.9600,1.051
45.0000,0.958
45.0400,1.015
45.0800,1.005
45.1200,1.005
45.1600,1.028
45.2000,1.025
45.2400,1.029
45.2800,1.013
45.3200,1.011
45.3600,1.021
45.4000,1.042
45.4400,0.960
45.4800,1.006
45.5200,1.023
45.5600,1.026
45.6000,1.046
45.6400,1.134
45.6800,1.182
45.7200,1.351
45.7600,1.377
45.8000,1.253
45.8400,1.211
45.8800,1.133
45.9200,1.093
45.9600,1.077
46.0000,1.065
46.0400,1.021
46.0800,1.006
46.1200,0.983
46.1600,0.958
46.2000,1.022
46.2400,0.938
46.2800,0.976
46.3200,0.963
46.3600,1.007
46.4000,0.946
46.4400,0.992
46.4800,0.964
46.5200,0.972
46.5600,1.016
46.6000,0.967
46.6400,0.970
46.6800,0.918
46.7200,1.030
46.7600,0.985
46.8000,0.977
46.8400,0.964
46.8800,0.944
46.9200,0.920
46.9600,0.947
47.0000,0.985
47.0400,1.011
47.0800,1.004
47.1200,1.005
47.1600,0.998
47.2000,0.984
47.2400,0.988
47.2800,1.067
47.3200,0.991
47.3600,1.041
47.4000,1.016
47.4400,1.008
47.4800,0.963
47.5200,0.985
47.5600,0.996
47.6000,1.013
47.6400,0.978
47.6800,0.993
47.7200,1.012
47.7600,0.950
47.8000,0.995
47.8400,0.998
47.8800,0.997
47.9200,1.010
47.9600,0.898
48.0000,0.963
48.0400,0.961
48.0800,0.955
48.1200,0.947
48.1600,0.917
48.2000,0.891
48.2400,0.934
48.2800,0.917
48.3200,0.959
48.3600,0.935
48.4000,0.918
48.4400,0.901
48.4800,0.889
48.5200,0.929
48.5600,0.872
48.6000,0.901
48.6400,0.902
48.6800,0.870
48.7200,0.875
48.7600,0.881
48.8000,0.910
48.8400,0.910
48.8800,0.928
48.9200,0.860
48.9600,0.852
49.0000,0.855
49.0400,0.865
49.0800,0.854
49.1200,0.891
49.1600,0.891
49.2000,0.849
49.2400,0.887
49.2800,0.884
49.3200,0.955
49.3600,0.892
49.4000,0.907
49.4400,0.899
49.4800,0.906
49.5200,0.860
49.5600,0.909
49.6000,0.890
49.6400,0.828
49.6800,0.900
49.7200,0.856
49.7600,0.873
49.8000,0.848
49.8400,0.884
49.8800,0.900
49.9200,0.838
49.9600,0.838
50.0000,0.820
50.0400,0.916
50.0800,0.862
50.1200,0.808
50.1600,0.797
50.2000,0.875
50.2400,0.854
50.2800,0.843
50.3200,0.804
50.3600,0.782
50.4000,0.847
50.4400,0.866
50.4800,0.794
50.5200,0.866
50.5600,0.873
50.6000,0.841
50.6400,0.919
50.6800,0.915
50.7200,0.901
50.7600,0.932
50.8000,0.946
50.8400,1.039
50.8800,1.096
50.9200,1.149
50.9600,1.279
51.0000,1.571
51.0400,1.984
51.0800,2.010
51.1200,1.834
51.1600,1.769
51.2000,1.672
51.2400,1.476
51.2800,1.266
51.3200,1.124
51.3600,1.079
51.4000,0.969
51.4400,0.917
51.4800,0.925
51.5200,0.909
51.5600,0.837
51.6000,0.861
51.6400,0.876
51.6800,0.849
51.7200,0.836
51.7600,0.876
51.8000,0.798
51.8400,0.807
51.8800,0.739
51.9200,0.740
51.9600,0.806
52.0000,0.809
52.0400,0.783
52.0800,0.809
52.1200,0.788
52.1600,0.809
52.2000,0.836
52.2400,0.800
52.2800,0.766
52.3200,0.793
52.3600,0.811
52.4000,0.799
52.4400,0.765
52.4800,0.789
52.5200,0.805
52.5600,0.795
52.6000,0.789
52.6400,0.795
52.6800,0.798
52.7200,0.817
52.7600,0.825
52.8000,0.823
52.8400,0.843
52.8800,0.802
52.9200,0.776
52.9600,0.781
53.0000,0.831
53.0400,0.770
53.0800,0.747
53.1200,0.787
53.1600,0.755
53.2000,0.726
53.2400,0.792
53.2800,0.724
53.3200,0.806
53.3600,0.773
53.4000,0.773
53.4400,0.707
53.4800,0.762
53.5200,0.770
53.5600,0.740
53.6000,0.742
53.6400,0.730
53.6800,0.753
53.7200,0.725
53.7600,0.753
53.8000,0.732
53.8400,0.727
53.8800,0.735
53.9200,0.735
53.9600,0.712
54.0000,0.736
54.0400,0.759
54.0800,0.747
54.1200,0.770
54.1600,0.810
54.2000,0.758
54.2400,0.741
54.2800,0.768
54.3200,0.820
54.3600,0.899
54.4000,1.019
54.4400,1.275
54.4800,1.391
54.5200,1.204
54.5600,1.036
54.6000,1.103
54.6400,1.022
54.6800,0.857
54.7200,0.787
54.7600,0.721
54.8000,0.770
54.8400,0.779
54.8800,0.723
54.9200,0.723
54.9600,0.723
55.0000,0.784
55.0400,0.716
55.0800,0.747
55.1200,0.724
55.1600,0.766
55.2000,0.752
55.2400,0.751
55.2800,0.735
55.3200,0.720
55.3600,0.697
55.4000,0.756
55.4400,0.751
55.4800,0.751
55.5200,0.736
55.5600,0.737
55.6000,0.759
55.6400,0.744
55.6800,0.793
55.7200,0.787
55.7600,0.806
55.8000,0.729
55.8400,0.802
55.8800,0.773
55.9200,0.835
55.9600,0.930
56.0000,0.970
56.0400,0.924
56.0800,0.906
56.1200,0.852
56.1600,0.892
56.2000,0.931
56.2400,0.895
56.2800,0.937
56.3200,0.877
56.3600,0.889
56.4000,0.913
56.4400,0.919
56.4800,1.017
56.5200,1.024
56.5600,1.133
56.6000,1.043
56.6400,0.989
56.6800,1.011
56.7200,1.037
56.7600,0.997
56.8000,0.995
56.8400,0.940
56.8800,0.889
56.9200,0.860
56.9600,0.884
57.0000,0.884
57.0400,0.896
57.0800,0.832
57.1200,0.793
57.1600,0.789
57.2000,0.771
57.2400,0.826
57.2800,0.753
57.3200,0.727
57.3600,0.705
57.4000,0.734
57.4400,0.728
57.4800,0.743
57.5200,0.701
57.5600,0.685
57.6000,0.702
57.6400,0.730
57.6800,0.751
57.7200,0.721
57.7600,0.736
57.8000,0.734
57.8400,0.651
57.8800,0.740
57.9200,0.718
57.9600,0.686
58.0000,0.727
58.0400,0.709
58.0800,0.696
58.1200,0.671
58.1600,0.723
58.2000,0.696
58.2400,0.683
58.2800,0.690
58.3200,0.679
58.3600,0.626
58.4000,0.662
58.4400,0.671
58.4800,0.667
58.5200,0.599
58.5600,0.647
58.6000,0.700
58.6400,0.682
58.6800,0.639
58.7200,0.635
58.7600,0.668
58.8000,0.656
58.8400,0.650
58.8800,0.671
58.9200,0.625
58.9600,0.683
59.0000,0.696
59.0400,0.692
59.0800,0.704
59.1200,0.757
59.1600,0.713
59.2000,0.692
59.2400,0.697
59.2800,0.686
59.3200,0.687
59.3600,0.688
59.4000,0.701
59.4400,0.707
59.4800,0.684
59.5200,0.630
59.5600,0.602
59.6000,0.630
59.6400,0.620
59.6800,0.617
59.7200,0.655
59.7600,0.673
59.8000,0.671
59.8400,0.629
59.8800,0.671
59.9200,0.639
59.9600,0.674
60.0000,0.669
60.0400,0.698
60.0800,0.644
60.1200,0.642
60.1600,0.646
60.2000,0.638
60.2400,0.625
60.2800,0.665
60.3200,0.681
60.3600,0.728
60.4000,0.694
60.4400,0.676
60.4800,0.778
60.5200,0.785
60.5600,0.801
60.6000,0.946
60.6400,1.107
60.6800,1.274
60.7200,1.310
60.7600,1.204
60.8000,1.136
60.8400,1.103
60.8800,1.109
60.9200,1.003
60.9600,0.921
61.0000,0.789
61.0400,0.773
61.0800,0.687
61.1200,0.768
61.1600,0.678
61.2000,0.715
61.2400,0.638
61.2800,0.662
61.3200,0.660
61.3600,0.677
61.4000,0.619
61.4400,0.620
61.4800,0.646
61.5200,0.622
61.5600,0.646
61.6000,0.681
61.6400,0.687
61.6800,0.749
61.7200,0.756
61.7600,0.692
61.8000,0.635
61.8400,0.680
61.8800,0.671
61.9200,0.656
61.9600,0.661
62.0000,0.655
62.0400,0.698
62.0800,0.683
62.1200,0.667
62.1600,0.706
62.2000,0.757
62.2400,0.786
62.2800,0.754
62.3200,0.764
62.3600,0.754
62.4000,0.762
62.4400,0.722
62.4800,0.709
62.5200,0.705
62.5600,0.701
62.6000,0.729
62.6400,0.718
62.6800,0.700
62.7200,0.692
62.7600,0.702
62.8000,0.693
62.8400,0.737
62.8800,0.773
62.9200,0.741
62.9600,0.724
63.0000,0.716
63.0400,0.707
63.0800,0.756
63.1200,0.777
63.1600,0.785
63.2000,0.912
63.2400,0.898
63.2800,0.782
63.3200,0.796
63.3600,0.793
63.4000,0.812
63.4400,0.735
63.4800,0.719
63.5200,0.686
63.5600,0.672
63.6000,0.749
63.6400,0.669
63.6800,0.765
63.7200,0.745
63.7600,0.782
63.8000,0.716
63.8400,0.696
63.8800,0.729
63.9200,0.728
63.9600,0.687
64.0000,0.672
64.0400,0.635
64.0800,0.667
64.1200,0.642
64.1600,0.643
64.2000,0.606
64.2400,0.629
64.2800,0.625
64.3200,0.635
64.3600,0.625
64.4000,0.610
64.4400,0.633
64.4800,0.599
64.5200,0.589
64.5600,0.585
64.6000,0.666
64.6400,0.621
64.6800,0.612
64.7200,0.631
64.7600,0.614
64.8000,0.588
64.8400,0.618
64.8800,0.624
64.9200,0.620
64.9600,0.657
65.0000,0.657
65.0400,0.687
65.0800,0.665
65.1200,0.642
65.1600,0.645
65.2000,0.711
65.2400,0.715
65.2800,0.673
65.3200,0.665
65.3600,0.658
65.4000,0.704
65.4400,0.697
65.4800,0.672
65.5200,0.690
65.5600,0.660
65.6000,0.690
65.6400,0.660
65.6800,0.732
65.7200,0.748
65.7600,0.664
65.8000,0.747
65.8400,0.747
65.8800,0.717
65.9200,0.739
65.9600,0.774
66.0000,0.708
66.0400,0.736
66.0800,0.768
66.1200,0.736
66.1600,0.803
66.2000,0.739
66.2400,0.722
66.2800,0.815
66.3200,0.808
66.3600,0.864
66.4000,0.865
66.4400,0.823
66.4800,0.892
66.5200,0.834
66.5600,0.937
66.6000,0.962
66.6400,0.974
66.6800,0.930
66.7200,0.950
66.7600,1.032
66.8000,1.017
66.8400,0.897
66.8800,1.032
66.9200,1.049
66.9600,1.199
67.0000,1.367
67.0400,1.334
67.0800,1.278
67.1200,1.268
67.1600,1.293
67.2000,1.326
67.2400,1.275
67.2800,1.217
67.3200,1.232
67.3600,1.155
67.4000,1.237
67.4400,1.255
67.4800,1.268
67.5200,1.340
67.5600,1.309
67.6000,1.342
67.6400,1.336
67.6800,1.356
67.7200,1.466
67.7600,1.471
67.8000,1.465
67.8400,1.536
67.8800,1.555
67.9200,1.621
67.9600,1.683
68.0000,1.752
68.0400,1.786
68.0800,1.821
68.1200,1.894
68.1600,1.916
68.2000,1.927
68.2400,1.987
68.2800,2.030
68.3200,2.114
68.3600,2.138
68.4000,2.189
68.4400,2.259
68.4800,2.326
68.5200,2.452
68.5600,2.584
68.6000,2.799
68.6400,3.001
68.6800,3.255
68.7200,3.791
68.7600,4.660
68.8000,6.111
68.8400,7.229
68.8800,7.430
68.9200,7.686
68.9600,8.505
69.0000,11.313
69.0400,17.816
69.0800,38.069
69.1200,170.513
69.1600,482.899
69.2000,431.367
69.2400,131.261
69.2800,50.058
69.3200,110.211
69.3600,252.412
69.4000,211.763
69.4400,64.737
69.4800,19.935
69.5200,11.320
69.5600,8.291
69.6000,6.574
69.6400,5.631
69.6800,4.914
69.7200,4.246
69.7600,3.939
69.8000,3.594
69.8400,3.278
69.8800,3.078
69.9200,2.805
69.9600,2.712
70.0000,2.498
70.0400,2.527
70.0800,2.446
70.1200,2.429
70.1600,2.280
70.2000,2.199
70.2400,2.046
70.2800,2.069
70.3200,2.004
70.3600,1.854
70.4000,1.798
70.4400,1.792
70.4800,1.709
70.5200,1.646
70.5600,1.584
70.6000,1.506
70.6400,1.477
70.6800,1.455
70.7200,1.453
70.7600,1.398
70.8000,1.344
70.8400,1.365
70.8800,1.244
70.9200,1.205
70.9600,1.242
71.0000,1.190
71.0400,1.140
71.0800,1.090
71.1200,1.043
71.1600,0.999
71.2000,1.103
71.2400,1.032
71.2800,0.977
71.3200,1.005
71.3600,0.982
71.4000,0.916
71.4400,0.909
71.4800,0.942
71.5200,0.897
71.5600,0.861
71.6000,0.871
71.6400,0.862
71.6800,0.801
71.7200,0.770
71.7600,0.808
71.8000,0.775
71.8400,0.763
71.8800,0.720
71.9200,0.677
71.9600,0.690
72.0000,0.724
72.0400,0.676
72.0800,0.636
72.1200,0.733
72.1600,0.665
72.2000,0.671
72.2400,0.668
72.2800,0.612
72.3200,0.665
72.3600,0.610
72.4000,0.627
72.4400,0.639
72.4800,0.637
72.5200,0.577
72.5600,0.610
72.6000,0.636
72.6400,0.578
72.6800,0.613
72.7200,0.553
72.7600,0.582
72.8000,0.568
72.8400,0.547
72.8800,0.582
72.9200,0.565
72.9600,0.559
73.0000,0.516
73.0400,0.516
73.0800,0.553
73.1200,0.502
73.1600,0.489
73.2000,0.487
73.2400,0.474
73.2800,0.509
73.3200,0.508
73.3600,0.524
73.4000,0.519
73.4400,0.490
73.4800,0.470
73.5200,0.488
73.5600,0.469
73.6000,0.447
73.6400,0.491
73.6800,0.484
73.7200,0.520
73.7600,0.496
73.8000,0.494
73.8400,0.495
73.8800,0.499
73.9200,0.430
73.9600,0.473
74.0000,0.436
74.0400,0.429
74.0800,0.419
74.1200,0.470
74.1600,0.458
74.2000,0.428
74.2400,0.464
74.2800,0.452
74.3200,0.424
74.3600,0.421
74.4000,0.402
74.4400,0.414
74.4800,0.453
74.5200,0.438
74.5600,0.423
74.6000,0.423
74.6400,0.423
74.6800,0.418
74.7200,0.410
74.7600,0.399
74.8000,0.409
74.8400,0.420
74.8800,0.429
74.9200,0.408
74.9600,0.411
75.0000,0.430
75.0400,0.467
75.0800,0.484
75.1200,0.416
75.1600,0.418
75.2000,0.456
75.2400,0.432
75.2800,0.458
75.3200,0.445
75.3600,0.437
75.4000,0.416
75.4400,0.384
75.4800,0.387
75.5200,0.403
75.5600,0.384
75.6000,0.387
75.6400,0.346
75.6800,0.364
75.7200,0.363
75.7600,0.379
75.8000,0.375
75.8400,0.408
75.8800,0.409
75.9200,0.403
75.9600,0.364
76.0000,0.387
76.0400,0.340
76.0800,0.339
76.1200,0.398
76.1600,0.386
76.2000,0.391
76.2400,0.342
76.2800,0.383
76.3200,0.364
76.3600,0.360
76.4000,0.432
76.4400,0.372
76.4800,0.447
76.5200,0.436
76.5600,0.412
76.6000,0.378
76.6400,0.380
76.6800,0.426
76.7200,0.398
76.7600,0.363
76.8000,0.392
76.8400,0.328
76.8800,0.337
76.9200,0.332
76.9600,0.331
77.0000,0.336
77.0400,0.396
77.0800,0.408
77.1200,0.350
77.1600,0.349
77.2000,0.353
77.2400,0.346
77.2800,0.337
77.3200,0.372
77.3600,0.364
77.4000,0.365
77.4400,0.317
77.4800,0.347
77.5200,0.370
77.5600,0.369
77.6000,0.372
77.6400,0.338
77.6800,0.367
77.7200,0.370
77.7600,0.314
77.8000,0.337
77.8400,0.337
77.8800,0.339
77.9200,0.363
77.9600,0.348
78.0000,0.378
78.0400,0.355
78.0800,0.345
78.1200,0.325
78.1600,0.342
78.2000,0.291
78.2400,0.327
78.2800,0.334
78.3200,0.335
78.3600,0.288
78.4000,0.349
78.4400,0.307
78.4800,0.343
78.5200,0.339
78.5600,0.322
78.6000,0.311
78.6400,0.331
78.6800,0.306
78.7200,0.307
78.7600,0.322
78.8000,0.328
78.8400,0.338
78.8800,0.355
78.9200,0.327
78.9600,0.321
79.0000,0.324
79.0400,0.345
79.0800,0.341
79.1200,0.343
79.1600,0.321
79.2000,0.331
79.2400,0.366
79.2800,0.354
79.3200,0.338
79.3600,0.329
79.4000,0.337
79.4400,0.296
79.4800,0.322
79.5200,0.334
79.5600,0.308
79.6000,0.300
79.6400,0.286
79.6800,0.332
79.7200,0.298
79.7600,0.308
79.8000,0.306
79.8400,0.322
79.8800,0.301
79.9200,0.307
79.9600,0.276
80.0000,0.302
