theta,intensity
5.0000,5.943
5.0400,6.027
5.0800,5.758
5.1200,5.709
5.1600,5.658
5.2000,5.506
5.2400,5.373
5.2800,5.380
5.3200,5.354
5.3600,5.344
5.4000,5.150
5.4400,5.060
5.4800,5.060
5.5200,4.867
5.5600,4.791
5.6000,4.750
5.6400,4.664
5.6800,4.585
5.7200,4.475
5.7600,4.518
5.8000,4.468
5.8400,4.434
5.8800,4.339
5.9200,4.347
5.9600,4.364
6.0000,4.271
6.0400,4.387
6.0800,4.224
6.1200,4.179
6.1600,4.172
6.2000,4.245
6.2400,4.209
6.2800,4.224
6.3200,4.095
6.3600,4.282
6.4000,4.200
6.4400,4.167
6.4800,4.130
6.5200,4.244
6.5600,4.151
6.6000,4.162
6.6400,4.128
6.6800,4.054
6.7200,4.107
6.7600,4.155
6.8000,4.015
6.8400,4.087
6.8800,4.120
6.9200,4.072
6.9600,4.015
7.0000,4.098
7.0400,4.220
7.0800,4.046
7.1200,4.133
7.1600,4.054
7.2000,4.139
7.2400,4.065
7.2800,3.956
7.3200,3.985
7.3600,4.000
7.4000,3.992
7.4400,4.017
7.4800,3.998
7.5200,4.050
7.5600,3.924
7.6000,4.021
7.6400,4.064
7.6800,3.956
7.7200,4.016
7.7600,4.047
7.8000,4.001
7.8400,3.968
7.8800,4.001
7.9200,4.003
7.9600,3.942
8.0000,4.031
8.0400,3.852
8.0800,3.870
8.1200,3.916
8.1600,3.889
8.2000,3.904
8.2400,3.933
8.2800,3.966
8.3200,3.950
8.3600,3.890
8.4000,3.943
8.4400,3.831
8.4800,3.977
8.5200,3.927
8.5600,3.874
8.6000,3.882
8.6400,3.884
8.6800,3.911
8.7200,3.934
8.7600,3.876
8.8000,3.722
8.8400,3.780
8.8800,3.972
8.9200,3.864
8.9600,3.782
9.0000,3.832
9.0400,3.832
9.0800,3.777
9.1200,3.778
9.1600,3.737
9.2000,3.798
9.2400,3.872
9.2800,3.742
9.3200,3.799
9.3600,3.792
9.4000,3.734
9.4400,3.724
9.4800,3.736
9.5200,3.756
9.5600,3.858
9.6000,3.717
9.6400,3.793
9.6800,3.723
9.7200,3.654
9.7600,3.611
9.8000,3.771
9.8400,3.721
9.8800,3.699
9.9200,3.734
9.9600,3.648
10.0000,3.590
10.0400,3.794
10.0800,3.643
10.1200,3.739
10.1600,3.562
10.2000,3.605
10.2400,3.588
10.2800,3.747
10.3200,3.638
10.3600,3.681
10.4000,3.632
10.4400,3.600
10.4800,3.746
10.5200,3.499
10.5600,3.662
10.6000,3.676
10.6400,3.583
10.6800,3.615
10.7200,3.630
10.7600,3.518
10.8000,3.613
10.8400,3.639
10.8800,3.647
10.9200,3.585
10.9600,3.597
11.0000,3.641
11.0400,3.599
11.0800,3.728
11.1200,3.615
11.1600,3.507
11.2000,3.517
11.2400,3.576
11.2800,3.562
11.3200,3.515
11.3600,3.506
11.4000,3.592
11.4400,3.571
11.4800,3.510
11.5200,3.581
11.5600,3.625
11.6000,3.610
11.6400,3.581
11.6800,3.516
11.7200,3.580
11.7600,3.498
11.8000,3.564
11.8400,3.512
11.8800,3.553
11.9200,3.574
11.9600,3.439
12.0000,3.418
12.0400,3.455
12.0800,3.551
12.1200,3.395
12.1600,3.522
12.2000,3.492
12.2400,3.443
12.2800,3.425
12.3200,3.469
12.3600,3.401
12.4000,3.302
12.4400,3.434
12.4800,3.392
12.5200,3.369
12.5600,3.469
12.6000,3.408
12.6400,3.413
12.6800,3.334
12.7200,3.329
12.7600,3.465
12.8000,3.374
12.8400,3.496
12.8800,3.388
12.9200,3.433
12.9600,3.416
13.0000,3.422
13.0400,3.247
13.0800,3.372
13.1200,3.338
13.1600,3.302
13.2000,3.467
13.2400,3.406
13.2800,3.399
13.3200,3.344
13.3600,3.415
13.4000,3.332
13.4400,3.349
13.4800,3.319
13.5200,3.312
13.5600,3.353
13.6000,3.435
13.6400,3.280
13.6800,3.299
13.7200,3.337
13.7600,3.343
13.8000,3.366
13.8400,3.375
13.8800,3.298
13.9200,3.315
13.9600,3.341
14.0000,3.299
14.0400,3.362
14.0800,3.289
14.1200,3.333
14.1600,3.343
14.2000,3.317
14.2400,3.242
14.2800,3.224
14.3200,3.310
14.3600,3.329
14.4000,3.269
14.4400,3.132
14.4800,3.231
14.5200,3.185
14.5600,3.261
14.6000,3.296
14.6400,3.241
14.6800,3.246
14.7200,3.189
14.7600,3.193
14.8000,3.147
14.8400,3.209
14.8800,3.293
14.9200,3.243
14.9600,3.162
15.0000,3.166
15.0400,3.252
15.0800,3.150
15.1200,3.268
15.1600,3.192
15.2000,3.172
15.2400,3.096
15.2800,3.159
15.3200,3.174
15.3600,3.206
15.4000,3.114
15.4400,3.189
15.4800,3.063
15.5200,3.100
15.5600,3.119
15.6000,3.251
15.6400,3.124
15.6800,3.150
15.7200,3.105
15.7600,3.160
15.8000,3.216
15.8400,3.117
15.8800,3.140
15.9200,3.179
15.9600,3.042
16.0000,3.124
16.0400,3.014
16.0800,3.101
16.1200,3.120
16.1600,3.012
16.2000,3.059
16.2400,3.119
16.2800,3.065
16.3200,3.096
16.3600,3.073
16.4000,3.113
16.4400,2.988
16.4800,3.056
16.5200,3.001
16.5600,3.062
16.6000,3.083
16.6400,3.067
16.6800,3.056
16.7200,3.067
16.7600,2.987
16.8000,3.027
16.8400,3.033
16.8800,3.013
16.9200,3.052
16.9600,3.008
17.0000,3.030
17.0400,2.826
17.0800,2.895
17.1200,3.041
17.1600,2.941
17.2000,2.966
17.2400,2.965
17.2800,3.065
17.3200,3.036
17.3600,2.933
17.4000,2.995
17.4400,3.005
17.4800,3.048
17.5200,3.065
17.5600,2.999
17.6000,2.966
17.6400,3.012
17.6800,2.957
17.7200,2.947
17.7600,2.949
17.8000,2.878
17.8400,2.899
17.8800,2.865
17.9200,2.945
17.9600,2.872
18.0000,2.836
18.0400,2.866
18.0800,2.845
18.1200,2.918
18.1600,2.895
18.2000,2.859
18.2400,3.080
18.2800,2.935
18.3200,2.828
18.3600,2.856
18.4000,2.940
18.4400,2.878
18.4800,2.886
18.5200,2.926
18.5600,2.866
18.6000,2.900
18.6400,2.822
18.6800,2.761
18.7200,2.872
18.7600,2.807
18.8000,2.826
18.8400,2.806
18.8800,2.941
18.9200,2.820
18.9600,2.804
19.0000,2.775
19.0400,2.792
19.0800,2.822
19.1200,2.786
19.1600,2.870
19.2000,2.911
19.2400,2.807
19.2800,2.850
19.3200,2.825
19.3600,2.852
19.4000,2.756
19.4400,2.735
19.4800,2.803
19.5200,2.768
19.5600,2.742
19.6000,2.779
19.6400,2.758
19.6800,2.700
19.7200,2.721
19.7600,2.735
19.8000,2.755
19.8400,2.744
19.8800,2.750
19.9200,2.771
19.9600,2.767
20.0000,2.753
20.0400,2.673
20.0800,2.668
20.1200,2.736
20.1600,2.651
20.2000,2.682
20.2400,2.757
20.2800,2.734
20.3200,2.696
20.3600,2.649
20.4000,2.648
20.4400,2.693
20.4800,2.673
20.5200,2.662
20.5600,2.749
20.6000,2.640
20.6400,2.553
20.6800,2.644
20.7200,2.702
20.7600,2.669
20.8000,2.681
20.8400,2.698
20.8800,2.671
20.9200,2.539
20.9600,2.651
21.0000,2.684
21.0400,2.673
21.0800,2.691
21.1200,2.625
21.1600,2.611
21.2000,2.642
21.2400,2.769
21.2800,2.698
21.3200,2.748
21.3600,2.839
21.4000,2.996
21.4400,3.551
21.4800,3.734
21.5200,3.668
21.5600,3.291
21.6000,2.965
21.6400,2.825
21.6800,2.710
21.7200,2.799
21.7600,2.609
21.8000,2.517
21.8400,2.594
21.8800,2.662
21.9200,2.567
21.9600,2.584
22.0000,2.477
22.0400,2.564
22.0800,2.602
22.1200,2.579
22.1600,2.507
22.2000,2.604
22.2400,2.465
22.2800,2.602
22.3200,2.547
22.3600,2.543
22.4000,2.555
22.4400,2.572
22.4800,2.456
22.5200,2.576
22.5600,2.417
22.6000,2.497
22.6400,2.395
22.6800,2.466
22.7200,2.452
22.7600,2.314
22.8000,2.392
22.8400,2.541
22.8800,2.417
22.9200,2.416
22.9600,2.507
23.0000,2.497
23.0400,2.461
23.0800,2.423
23.1200,2.501
23.1600,2.449
23.2000,2.460
23.2400,2.460
23.2800,2.426
23.3200,2.419
23.3600,2.384
23.4000,2.408
23.4400,2.472
23.4800,2.431
23.5200,2.436
23.5600,2.326
23.6000,2.344
23.6400,2.464
23.6800,2.360
23.7200,2.312
23.7600,2.395
23.8000,2.425
23.8400,2.375
23.8800,2.414
23.9200,2.405
23.9600,2.326
24.0000,2.350
24.0400,2.407
24.0800,2.412
24.1200,2.414
24.1600,2.343
24.2000,2.416
24.2400,2.392
24.2800,2.368
24.3200,2.282
24.3600,2.345
24.4000,2.310
24.4400,2.383
24.4800,2.366
24.5200,2.289
24.5600,2.349
24.6000,2.334
24.6400,2.366
24.6800,2.260
24.7200,2.242
24.7600,2.292
24.8000,2.368
24.8400,2.338
24.8800,2.291
24.9200,2.266
24.9600,2.227
25.0000,2.315
25.0400,2.315
25.0800,2.288
25.1200,2.292
25.1600,2.281
25.2000,2.275
25.2400,2.269
25.2800,2.251
25.3200,2.267
25.3600,2.268
25.4000,2.272
25.4400,2.270
25.4800,2.245
25.5200,2.246
25.5600,2.273
25.6000,2.270
25.6400,2.251
25.6800,2.155
25.7200,2.158
25.7600,2.129
25.8000,2.192
25.8400,2.240
25.8800,2.163
25.9200,2.209
25.9600,2.169
26.0000,2.226
26.0400,2.282
26.0800,2.139
26.1200,2.259
26.1600,2.141
26.2000,2.178
26.2400,2.163
26.2800,2.134
26.3200,2.149
26.3600,2.228
26.4000,2.108
26.4400,2.205
26.4800,2.154
26.5200,2.190
26.5600,2.174
26.6000,2.126
26.6400,2.126
26.6800,2.172
26.7200,2.050
26.7600,2.167
26.8000,2.121
26.8400,2.121
26.8800,2.123
26.9200,2.142
26.9600,2.070
27.0000,2.108
27.0400,2.153
27.0800,2.081
27.1200,2.062
27.1600,2.106
27.2000,2.137
27.2400,2.117
27.2800,2.108
27.3200,2.083
27.3600,2.101
27.4000,2.062
27.4400,2.092
27.4800,2.128
27.5200,2.122
27.5600,2.006
27.6000,2.075
27.6400,2.032
27.6800,1.986
27.7200,2.110
27.7600,2.074
27.8000,2.037
27.8400,2.069
27.8800,2.050
27.9200,2.055
27.9600,2.069
28.0000,2.007
28.0400,2.050
28.0800,2.027
28.1200,1.996
28.1600,2.080
28.2000,2.044
28.2400,1.988
28.2800,2.081
28.3200,1.964
28.3600,2.021
28.4000,2.028
28.4400,2.018
28.4800,2.066
28.5200,2.024
28.5600,2.003
28.6000,2.018
28.6400,2.026
28.6800,1.993
28.7200,2.028
28.7600,2.031
28.8000,1.988
28.8400,2.003
28.8800,1.955
28.9200,1.957
28.9600,1.973
29.0000,1.927
29.0400,2.014
29.0800,2.035
29.1200,1.896
29.1600,1.908
29.2000,2.064
29.2400,2.045
29.2800,2.084
29.3200,2.035
29.3600,1.979
29.4000,2.004
29.4400,2.013
29.4800,2.000
29.5200,1.978
29.5600,2.002
29.6000,2.012
29.6400,2.063
29.6800,2.038
29.7200,2.017
29.7600,1.987
29.8000,1.975
29.8400,2.080
29.8800,1.995
29.9200,2.071
29.9600,2.034
30.0000,2.007
30.0400,2.056
30.0800,2.137
30.1200,2.092
30.1600,2.106
30.2000,2.239
30.2400,2.360
30.2800,2.460
30.3200,2.463
30.3600,2.604
30.4000,3.006
30.4400,3.598
30.4800,4.718
30.5200,7.518
30.5600,10.887
30.6000,10.427
30.6400,8.582
30.6800,6.605
30.7200,4.448
30.7600,3.525
30.8000,2.943
30.8400,2.692
30.8800,2.483
30.9200,2.290
30.9600,2.272
31.0000,2.174
31.0400,2.162
31.0800,2.111
31.1200,2.137
31.1600,2.078
31.2000,2.081
31.2400,2.053
31.2800,2.065
31.3200,2.102
31.3600,2.003
31.4000,2.105
31.4400,2.130
31.4800,2.105
31.5200,2.087
31.5600,2.126
31.6000,2.086
31.6400,2.070
31.6800,2.101
31.7200,2.129
31.7600,2.176
31.8000,2.112
31.8400,2.138
31.8800,2.070
31.9200,2.035
31.9600,2.053
32.0000,2.009
32.0400,2.051
32.0800,2.039
32.1200,2.033
32.1600,1.950
32.2000,1.999
32.2400,1.968
32.2800,1.988
32.3200,1.990
32.3600,2.050
32.4000,1.987
32.4400,2.005
32.4800,1.948
32.5200,1.903
32.5600,1.974
32.6000,1.884
32.6400,1.979
32.6800,2.018
32.7200,2.055
32.7600,2.148
32.8000,2.537
32.8400,4.159
32.8800,9.720
32.9200,11.009
32.9600,8.357
33.0000,7.440
33.0400,5.912
33.0800,3.552
33.1200,2.233
33.1600,2.162
33.2000,2.018
33.2400,1.996
33.2800,1.945
33.3200,1.964
33.3600,1.914
33.4000,1.858
33.4400,1.814
33.4800,1.799
33.5200,1.821
33.5600,1.840
33.6000,1.804
33.6400,1.875
33.6800,1.806
33.7200,1.776
33.7600,1.814
33.8000,1.851
33.8400,1.879
33.8800,1.897
33.9200,1.889
33.9600,1.867
34.0000,1.815
34.0400,1.924
34.0800,1.854
34.1200,1.849
34.1600,1.793
34.2000,1.824
34.2400,1.917
34.2800,1.842
34.3200,1.842
34.3600,1.888
34.4000,1.880
34.4400,1.858
34.4800,1.905
34.5200,1.845
34.5600,1.815
34.6000,1.921
34.6400,1.857
34.6800,1.796
34.7200,1.794
34.7600,1.772
34.8000,1.754
34.8400,1.772
34.8800,1.795
34.9200,1.706
34.9600,1.817
35.0000,1.738
35.0400,1.832
35.0800,1.781
35.1200,1.821
35.1600,1.845
35.2000,1.837
35.2400,1.916
35.2800,2.039
35.3200,2.176
35.3600,2.497
35.4000,3.180
35.4400,4.044
35.4800,3.879
35.5200,3.391
35.5600,3.038
35.6000,2.464
35.6400,2.146
35.6800,2.002
35.7200,1.935
35.7600,1.893
35.8000,1.828
35.8400,1.844
35.8800,1.805
35.9200,1.867
35.9600,1.883
36.0000,1.766
36.0400,1.896
36.0800,1.860
36.1200,1.812
36.1600,1.913
36.2000,1.952
36.2400,2.656
36.2800,3.626
36.3200,3.187
36.3600,2.680
36.4000,2.559
36.4400,2.097
36.4800,1.767
36.5200,1.708
36.5600,1.670
36.6000,1.637
36.6400,1.647
36.6800,1.630
36.7200,1.586
36.7600,1.553
36.8000,1.586
36.8400,1.604
36.8800,1.494
36.9200,1.593
36.9600,1.530
37.0000,1.524
37.0400,1.457
37.0800,1.482
37.1200,1.469
37.1600,1.454
37.2000,1.486
37.2400,1.439
37.2800,1.499
37.3200,1.467
37.3600,1.474
37.4000,1.487
37.4400,1.448
37.4800,1.515
37.5200,1.481
37.5600,1.486
37.6000,1.582
37.6400,1.626
37.6800,1.781
37.7200,1.665
37.7600,1.590
37.8000,1.621
37.8400,1.490
37.8800,1.493
37.9200,1.376
37.9600,1.349
38.0000,1.379
38.0400,1.394
38.0800,1.460
38.1200,1.443
38.1600,1.364
38.2000,1.384
38.2400,1.368
38.2800,1.353
38.3200,1.332
38.3600,1.317
38.4000,1.361
38.4400,1.385
38.4800,1.294
38.5200,1.250
38.5600,1.298
38.6000,1.366
38.6400,1.378
38.6800,1.355
38.7200,1.286
38.7600,1.333
38.8000,1.308
38.8400,1.371
38.8800,1.370
38.9200,1.410
38.9600,1.392
39.0000,1.483
39.0400,1.984
39.0800,3.025
39.1200,3.347
39.1600,2.620
39.2000,2.387
39.2400,1.997
39.2800,1.539
39.3200,1.399
39.3600,1.310
39.4000,1.318
39.4400,1.321
39.4800,1.333
39.5200,1.265
39.5600,1.276
39.6000,1.224
39.6400,1.303
39.6800,1.312
39.7200,1.255
39.7600,1.290
39.8000,1.357
39.8400,1.329
39.8800,1.279
39.9200,1.263
39.9600,1.202
40.0000,1.266
40.0400,1.191
40.0800,1.226
40.1200,1.227
40.1600,1.224
40.2000,1.266
40.2400,1.193
40.2800,1.237
40.3200,1.249
40.3600,1.252
40.4000,1.234
40.4400,1.247
40.4800,1.220
40.5200,1.179
40.5600,1.221
40.6000,1.151
40.6400,1.240
40.6800,1.183
40.7200,1.209
40.7600,1.176
40.8000,1.202
40.8400,1.196
40.8800,1.195
40.9200,1.209
40.9600,1.184
41.0000,1.173
41.0400,1.226
41.0800,1.170
41.1200,1.080
41.1600,1.179
41.2000,1.142
41.2400,1.190
41.2800,1.153
41.3200,1.097
41.3600,1.148
41.4000,1.139
41.4400,1.099
41.4800,1.130
41.5200,1.152
41.5600,1.228
41.6000,1.230
41.6400,1.150
41.6800,1.201
41.7200,1.190
41.7600,1.278
41.8000,1.406
41.8400,1.389
41.8800,1.331
41.9200,1.311
41.9600,1.269
42.0000,1.233
42.0400,1.184
42.0800,1.229
42.1200,1.137
42.1600,1.108
42.2000,1.101
42.2400,1.134
42.2800,1.098
42.3200,1.130
42.3600,1.102
42.4000,1.096
42.4400,1.069
42.4800,1.105
42.5200,1.123
42.5600,1.104
42.6000,1.096
42.6400,1.079
42.6800,1.068
42.7200,1.086
42.7600,1.030
42.8000,1.030
42.8400,1.026
42.8800,1.034
42.9200,1.076
42.9600,1.021
43.0000,1.078
43.0400,1.050
43.0800,1.100
43.1200,1.021
43.1600,1.112
43.2000,1.068
43.2400,1.078
43.2800,1.045
43.3200,1.060
43.3600,1.038
43.4000,1.063
43.4400,1.053
43.4800,1.056
43.5200,1.077
43.5600,1.025
43.6000,0.994
43.6400,1.048
43.6800,1.050
43.7200,1.090
43.7600,1.064
43.8000,1.090
43.8400,1.130
43.8800,1.098
43.9200,1.096
43.9600,1.068
44.0000,1.041
44.0400,1.088
44.0800,1.014
44.1200,1.011
44.1600,0.970
44.2000,0.983
44.2400,1.031
44.2800,1.007
44.3200,1.059
44.3600,1.020
44.4000,1.024
44.4400,0.937
44.4800,0.966
44.5200,1.003
44.5600,1.029
44.6000,1.027
44.6400,0.991
44.6800,0.966
44.7200,1.033
44.7600,1.042
44.8000,1.035
44.8400,0.982
44.8800,1.022
44.9200,0.995
44.9600,0.993
45.0000,0.977
45.0400,1.017
45.0800,0.968
45.1200,1.015
45.1600,1.006
45.2000,1.001
45.2400,1.014
45.2800,1.002
45.3200,1.038
45.3600,1.032
45.4000,0.990
45.4400,1.015
45.4800,1.035
45.5200,1.059
45.5600,1.147
45.6000,1.229
45.6400,1.397
45.6800,1.437
45.7200,1.394
45.7600,1.281
45.8000,1.221
45.8400,1.195
45.8800,1.082
45.9200,1.030
45.9600,0.980
46.0000,0.949
46.0400,0.995
46.0800,0.950
46.1200,0.959
46.1600,0.964
46.2000,0.976
46.2400,0.919
46.2800,0.928
46.3200,0.948
46.3600,0.946
46.4000,0.911
46.4400,0.922
46.4800,0.965
46.5200,0.956
46.5600,0.945
46.6000,0.909
46.6400,0.955
46.6800,0.978
46.7200,0.912
46.7600,0.963
46.8000,0.957
46.8400,0.959
46.8800,0.905
46.9200,0.911
46.9600,0.936
47.0000,0.969
47.0400,0.949
47.0800,0.915
47.1200,0.925
47.1600,0.924
47.2000,0.966
47.2400,0.971
47.2800,0.913
47.3200,0.908
47.3600,0.866
47.4000,0.898
47.4400,0.953
47.4800,0.931
47.5200,0.930
47.5600,0.928
47.6000,0.901
47.6400,0.913
47.6800,0.935
47.7200,0.904
47.7600,0.852
47.8000,0.917
47.8400,0.940
47.8800,0.870
47.9200,0.875
47.9600,0.834
48.0000,0.887
48.0400,0.899
48.0800,0.913
48.1200,0.910
48.1600,0.850
48.2000,0.858
48.2400,0.855
48.2800,0.849
48.3200,0.861
48.3600,0.860
48.4000,0.856
48.4400,0.904
48.4800,0.900
48.5200,0.891
48.5600,0.819
48.6000,0.888
48.6400,0.880
48.6800,0.854
48.7200,0.889
48.7600,0.902
48.8000,0.819
48.8400,0.895
48.8800,0.836
48.9200,0.828
48.9600,0.904
49.0000,0.870
49.0400,0.847
49.0800,0.900
49.1200,0.918
49.1600,0.911
49.2000,0.861
49.2400,0.925
49.2800,0.964
49.3200,0.946
49.3600,0.919
49.4000,0.909
49.4400,0.935
49.4800,0.881
49.5200,0.842
49.5600,0.839
49.6000,0.834
49.6400,0.885
49.6800,0.877
49.7200,0.788
49.7600,0.840
49.8000,0.773
49.8400,0.805
49.8800,0.806
49.9200,0.788
49.9600,0.791
50.0000,0.821
50.0400,0.844
50.0800,0.923
50.1200,0.851
50.1600,0.817
50.2000,0.800
50.2400,0.857
50.2800,0.782
50.3200,0.810
50.3600,0.772
50.4000,0.838
50.4400,0.852
50.4800,0.850
50.5200,0.856
50.5600,0.848
50.6000,0.855
50.6400,0.903
50.6800,0.939
50.7200,0.887
50.7600,0.944
50.8000,1.013
50.8400,1.047
50.8800,1.269
50.9200,1.501
50.9600,2.041
51.0000,2.566
51.0400,2.367
51.0800,2.079
51.1200,1.987
51.1600,1.931
51.2000,1.567
51.2400,1.194
51.2800,1.044
51.3200,0.992
51.3600,0.886
51.4000,0.921
51.4400,0.935
51.4800,0.826
51.5200,0.835
51.5600,0.858
51.6000,0.830
51.6400,0.821
51.6800,0.830
51.7200,0.782
51.7600,0.777
51.8000,0.762
51.8400,0.803
51.8800,0.714
51.9200,0.779
51.9600,0.820
52.0000,0.747
52.0400,0.772
52.0800,0.832
52.1200,0.759
52.1600,0.755
52.2000,0.716
52.2400,0.737
52.2800,0.793
52.3200,0.784
52.3600,0.772
52.4000,0.761
52.4400,0.789
52.4800,0.794
52.5200,0.805
52.5600,0.792
52.6000,0.764
52.6400,0.853
52.6800,0.845
52.7200,0.862
52.7600,0.865
52.8000,0.836
52.8400,0.759
52.8800,0.791
52.9200,0.778
52.9600,0.773
53.0000,0.762
53.0400,0.767
53.0800,0.776
53.1200,0.731
53.1600,0.724
53.2000,0.742
53.2400,0.739
53.2800,0.731
53.3200,0.766
53.3600,0.741
53.4000,0.763
53.4400,0.721
53.4800,0.698
53.5200,0.765
53.5600,0.760
53.6000,0.739
53.6400,0.720
53.6800,0.734
53.7200,0.685
53.7600,0.726
53.8000,0.706
53.8400,0.731
53.8800,0.767
53.9200,0.735
53.9600,0.704
54.0000,0.716
54.0400,0.708
54.0800,0.754
54.1200,0.774
54.1600,0.745
54.2000,0.728
54.2400,0.797
54.2800,0.729
54.3200,0.824
54.3600,1.121
54.4000,1.622
54.4400,1.382
54.4800,0.993
54.5200,1.038
54.5600,1.197
54.6000,1.013
54.6400,0.820
54.6800,0.730
54.7200,0.771
54.7600,0.733
54.8000,0.738
54.8400,0.686
54.8800,0.738
54.9200,0.711
54.9600,0.744
55.0000,0.693
55.0400,0.744
55.0800,0.641
55.1200,0.730
55.1600,0.695
55.2000,0.693
55.2400,0.699
55.2800,0.703
55.3200,0.737
55.3600,0.676
55.4000,0.717
55.4400,0.718
55.4800,0.710
55.5200,0.731
55.5600,0.720
55.6000,0.717
55.6400,0.764
55.6800,0.768
55.7200,0.691
55.7600,0.753
55.8000,0.761
55.8400,0.768
55.8800,0.748
55.9200,0.824
55.9600,0.954
56.0000,0.931
56.0400,0.841
56.0800,0.875
56.1200,0.833
56.1600,0.824
56.2000,0.766
56.2400,0.817
56.2800,0.771
56.3200,0.762
56.3600,0.766
56.4000,0.741
56.4400,0.883
56.4800,1.175
56.5200,1.090
56.5600,0.916
56.6000,0.872
56.6400,0.897
56.6800,0.915
56.7200,0.797
56.7600,0.746
56.8000,0.695
56.8400,0.730
56.8800,0.719
56.9200,0.730
56.9600,0.752
57.0000,0.726
57.0400,0.709
57.0800,0.707
57.1200,0.695
57.1600,0.668
57.2000,0.650
57.2400,0.650
57.2800,0.703
57.3200,0.717
57.3600,0.701
57.4000,0.764
57.4400,0.675
57.4800,0.681
57.5200,0.688
57.5600,0.699
57.6000,0.695
57.6400,0.698
57.6800,0.733
57.7200,0.708
57.7600,0.630
57.8000,0.686
57.8400,0.686
57.8800,0.680
57.9200,0.684
57.9600,0.668
58.0000,0.644
58.0400,0.643
58.0800,0.627
58.1200,0.650
58.1600,0.627
58.2000,0.649
58.2400,0.676
58.2800,0.665
58.3200,0.646
58.3600,0.668
58.4000,0.637
58.4400,0.640
58.4800,0.654
58.5200,0.696
58.5600,0.610
58.6000,0.623
58.6400,0.664
58.6800,0.669
58.7200,0.604
58.7600,0.601
58.8000,0.622
58.8400,0.667
58.8800,0.616
58.9200,0.644
58.9600,0.654
59.0000,0.698
59.0400,0.711
59.0800,0.744
59.1200,0.812
59.1600,0.768
59.2000,0.697
59.2400,0.761
59.2800,0.709
59.3200,0.723
59.3600,0.671
59.4000,0.654
59.4400,0.669
59.4800,0.673
59.5200,0.673
59.5600,0.660
59.6000,0.651
59.6400,0.637
59.6800,0.639
59.7200,0.660
59.7600,0.626
59.8000,0.612
59.8400,0.606
59.8800,0.621
59.9200,0.665
59.9600,0.635
60.0000,0.648
60.0400,0.617
60.0800,0.686
60.1200,0.614
60.1600,0.612
60.2000,0.596
60.2400,0.614
60.2800,0.634
60.3200,0.661
60.3600,0.709
60.4000,0.769
60.4400,0.714
60.4800,0.744
60.5200,0.863
60.5600,1.035
60.6000,1.324
60.6400,1.591
60.6800,1.489
60.7200,1.259
60.7600,1.150
60.8000,1.257
60.8400,1.246
60.8800,0.972
60.9200,0.867
60.9600,0.828
61.0000,0.703
61.0400,0.708
61.0800,0.693
61.1200,0.673
61.1600,0.656
61.2000,0.620
61.2400,0.675
61.2800,0.634
61.3200,0.611
61.3600,0.623
61.4000,0.666
61.4400,0.598
61.4800,0.646
61.5200,0.620
61.5600,0.579
61.6000,0.659
61.6400,0.693
61.6800,0.631
61.7200,0.613
61.7600,0.633
61.8000,0.594
61.8400,0.616
61.8800,0.623
61.9200,0.669
61.9600,0.606
62.0000,0.609
62.0400,0.677
62.0800,0.655
62.1200,0.750
62.1600,0.804
62.2000,0.820
62.2400,0.715
62.2800,0.683
62.3200,0.763
62.3600,0.735
62.4000,0.706
62.4400,0.693
62.4800,0.643
62.5200,0.616
62.5600,0.612
62.6000,0.615
62.6400,0.564
62.6800,0.604
62.7200,0.600
62.7600,0.627
62.8000,0.620
62.8400,0.607
62.8800,0.614
62.9200,0.605
62.9600,0.568
63.0000,0.623
63.0400,0.634
63.0800,0.665
63.1200,0.780
63.1600,0.998
63.2000,0.908
63.2400,0.715
63.2800,0.705
63.3200,0.843
63.3600,0.794
63.4000,0.693
63.4400,0.619
63.4800,0.659
63.5200,0.646
63.5600,0.672
63.6000,0.729
63.6400,0.786
63.6800,0.762
63.7200,0.700
63.7600,0.686
63.8000,0.708
63.8400,0.716
63.8800,0.673
63.9200,0.642
63.9600,0.663
64.0000,0.637
64.0400,0.585
64.0800,0.617
64.1200,0.582
64.1600,0.557
64.2000,0.563
64.2400,0.562
64.2800,0.607
64.3200,0.617
64.3600,0.598
64.4000,0.588
64.4400,0.653
64.4800,0.599
64.5200,0.613
64.5600,0.586
64.6000,0.606
64.6400,0.615
64.6800,0.607
64.7200,0.556
64.7600,0.612
64.8000,0.562
64.8400,0.617
64.8800,0.609
64.9200,0.614
64.9600,0.654
65.0000,0.676
65.0400,0.639
65.0800,0.667
65.1200,0.683
65.1600,0.689
65.2000,0.663
65.2400,0.674
65.2800,0.644
65.3200,0.687
65.3600,0.639
65.4000,0.699
65.4400,0.642
65.4800,0.646
65.5200,0.680
65.5600,0.658
65.6000,0.682
65.6400,0.666
65.6800,0.701
65.7200,0.702
65.7600,0.716
65.8000,0.716
65.8400,0.731
65.8800,0.700
65.9200,0.708
65.9600,0.712
66.0000,0.708
66.0400,0.733
66.0800,0.774
66.1200,0.745
66.1600,0.765
66.2000,0.778
66.2400,0.750
66.2800,0.812
66.3200,0.771
66.3600,0.783
66.4000,0.800
66.4400,0.826
66.4800,0.870
66.5200,0.862
66.5600,0.861
66.6000,0.966
66.6400,0.902
66.6800,0.912
66.7200,0.909
66.7600,0.970
66.8000,0.983
66.8400,1.048
66.8800,1.004
66.9200,1.297
66.9600,1.608
67.0000,1.460
67.0400,1.173
67.0800,1.187
67.1200,1.262
67.1600,1.370
67.2000,1.264
67.2400,1.123
67.2800,1.122
67.3200,1.175
67.3600,1.182
67.4000,1.203
67.4400,1.207
67.4800,1.174
67.5200,1.261
67.5600,1.313
67.6000,1.259
67.6400,1.316
67.6800,1.331
67.7200,1.359
67.7600,1.459
67.8000,1.426
67.8400,1.491
67.8800,1.549
67.9200,1.573
67.9600,1.636
68.0000,1.645
68.0400,1.792
68.0800,1.764
68.1200,1.783
68.1600,1.815
68.2000,1.914
68.2400,1.934
68.2800,1.891
68.3200,2.015
68.3600,2.136
68.4000,2.277
68.4400,2.348
68.4800,2.481
68.5200,2.450
68.5600,2.690
68.6000,2.909
68.6400,3.078
68.6800,3.688
68.7200,4.761
68.7600,6.068
68.8000,7.077
68.8400,7.268
68.8800,7.490
68.9200,8.553
68.9600,11.697
69.0000,19.418
69.0400,45.364
69.0800,219.715
69.1200,500.717
69.1600,354.491
69.2000,92.549
69.2400,48.244
69.2800,133.080
69.3200,257.747
69.3600,172.447
69.4000,45.917
69.4400,16.491
69.4800,10.233
69.5200,7.773
69.5600,6.251
69.6000,5.280
69.6400,4.602
69.6800,4.105
69.7200,3.812
69.7600,3.281
69.8000,3.088
69.8400,2.907
69.8800,2.806
69.9200,2.630
69.9600,2.531
70.0000,2.389
70.0400,2.281
70.0800,2.237
70.1200,2.266
70.1600,2.032
70.2000,1.948
70.2400,1.958
70.2800,1.884
70.3200,1.822
70.3600,1.750
70.4000,1.684
70.4400,1.638
70.4800,1.602
70.5200,1.499
70.5600,1.438
70.6000,1.443
70.6400,1.447
70.6800,1.340
70.7200,1.304
70.7600,1.255
70.8000,1.297
70.8400,1.205
70.8800,1.258
70.9200,1.184
70.9600,1.150
71.0000,1.097
71.0400,1.141
71.0800,1.065
71.1200,1.043
71.1600,1.030
71.2000,1.047
71.2400,0.923
71.2800,0.944
71.3200,0.956
71.3600,0.867
71.4000,0.913
71.4400,0.932
71.4800,0.940
71.5200,0.864
71.5600,0.812
71.6000,0.830
71.6400,0.804
71.6800,0.791
71.7200,0.806
71.7600,0.778
71.8000,0.755
71.8400,0.712
71.8800,0.794
71.9200,0.743
71.9600,0.734
72.0000,0.696
72.0400,0.671
72.0800,0.691
72.1200,0.669
72.1600,0.643
72.2000,0.632
72.2400,0.638
72.2800,0.613
72.3200,0.608
72.3600,0.610
72.4000,0.615
72.4400,0.614
72.4800,0.601
72.5200,0.561
72.5600,0.545
72.6000,0.580
72.6400,0.563
72.6800,0.558
72.7200,0.558
72.7600,0.548
72.8000,0.580
72.8400,0.542
72.8800,0.558
72.9200,0.544
72.9600,0.474
73.0000,0.493
73.0400,0.472
73.0800,0.509
73.1200,0.487
73.1600,0.476
73.2000,0.498
73.2400,0.478
73.2800,0.518
73.3200,0.489
73.3600,0.462
73.4000,0.483
73.4400,0.436
73.4800,0.487
73.5200,0.516
73.5600,0.476
73.6000,0.495
73.6400,0.494
73.6800,0.502
73.7200,0.485
73.7600,0.500
73.8000,0.491
73.8400,0.468
73.8800,0.446
73.9200,0.492
73.9600,0.482
74.0000,0.444
74.0400,0.446
74.0800,0.434
74.1200,0.382
74.1600,0.427
74.2000,0.400
74.2400,0.437
74.2800,0.415
74.3200,0.442
74.3600,0.418
74.4000,0.443
74.4400,0.405
74.4800,0.419
74.5200,0.387
74.5600,0.403
74.6000,0.383
74.6400,0.436
74.6800,0.435
74.7200,0.402
74.7600,0.391
74.8000,0.409
74.8400,0.405
74.8800,0.404
74.9200,0.437
74.9600,0.450
75.0000,0.447
75.0400,0.481
75.0800,0.430
75.1200,0.428
75.1600,0.442
75.2000,0.456
75.2400,0.461
75.2800,0.421
75.3200,0.420
75.3600,0.411
75.4000,0.362
75.4400,0.375
75.4800,0.370
75.5200,0.356
75.5600,0.369
75.6000,0.373
75.6400,0.391
75.6800,0.373
75.7200,0.364
75.7600,0.364
75.8000,0.358
75.8400,0.386
75.8800,0.386
75.9200,0.354
75.9600,0.334
76.0000,0.367
76.0400,0.342
76.0800,0.329
76.1200,0.350
76.1600,0.383
76.2000,0.384
76.2400,0.358
76.2800,0.393
76.3200,0.394
76.3600,0.438
76.4000,0.447
76.4400,0.423
76.4800,0.428
76.5200,0.390
76.5600,0.390
76.6000,0.388
76.6400,0.401
76.6800,0.394
76.7200,0.366
76.7600,0.383
76.8000,0.360
76.8400,0.373
76.8800,0.337
76.9200,0.369
76.9600,0.374
77.0000,0.351
77.0400,0.347
77.0800,0.364
77.1200,0.365
77.1600,0.342
77.2000,0.386
77.2400,0.348
77.2800,0.314
77.3200,0.337
77.3600,0.329
77.4000,0.322
77.4400,0.324
77.4800,0.327
77.5200,0.340
77.5600,0.334
77.6000,0.336
77.6400,0.346
77.6800,0.359
77.7200,0.347
77.7600,0.358
77.8000,0.353
77.8400,0.364
77.8800,0.303
77.9200,0.324
77.9600,0.346
78.0000,0.354
78.0400,0.373
78.0800,0.344
78.1200,0.339
78.1600,0.328
78.2000,0.317
78.2400,0.286
78.2800,0.335
78.3200,0.312
78.3600,0.333
78.4000,0.319
78.4400,0.301
78.4800,0.305
78.5200,0.308
78.5600,0.303
78.6000,0.306
78.6400,0.327
78.6800,0.303
78.7200,0.267
78.7600,0.309
78.8000,0.286
78.8400,0.316
78.8800,0.313
78.9200,0.317
78.9600,0.315
79.0000,0.340
79.0400,0.321
79.0800,0.344
79.1200,0.363
79.1600,0.339
79.2000,0.329
79.2400,0.333
79.2800,0.315
79.3200,0.323
79.3600,0.312
79.4000,0.305
79.4400,0.316
79.4800,0.341
79.5200,0.333
79.5600,0.311
79.6000,0.299
79.6400,0.293
79.6800,0.309
79.7200,0.250
79.7600,0.284
79.8000,0.285
79.8400,0.297
79.8800,0.273
79.9200,0.311
79.9600,0.275
80.0000,0.305
