theta,intensity
5.0000,5.311
5.0400,5.268
5.0800,5.212
5.1200,5.121
5.1600,5.098
5.2000,5.078
5.2400,4.980
5.2800,4.929
5.3200,4.791
5.3600,4.759
5.4000,4.780
5.4400,4.701
5.4800,4.551
5.5200,4.496
5.5600,4.478
5.6000,4.373
5.6400,4.411
5.6800,4.460
5.7200,4.400
5.7600,4.385
5.8000,4.348
5.8400,4.379
5.8800,4.328
5.9200,4.264
5.9600,4.284
6.0000,4.286
6.0400,4.246
6.0800,4.204
6.1200,4.283
6.1600,4.378
6.2000,4.287
6.2400,4.209
6.2800,4.179
6.3200,4.259
6.3600,4.225
6.4000,4.137
6.4400,4.173
6.4800,4.013
6.5200,4.177
6.5600,4.113
6.6000,4.251
6.6400,4.081
6.6800,4.194
6.7200,4.184
6.7600,4.141
6.8000,4.150
6.8400,4.071
6.8800,4.064
6.9200,4.077
6.9600,4.153
7.0000,4.092
7.0400,4.165
7.0800,4.104
7.1200,4.072
7.1600,4.118
7.2000,3.935
7.2400,4.065
7.2800,4.146
7.3200,4.068
7.3600,4.052
7.4000,4.000
7.4400,4.003
7.4800,4.061
7.5200,4.021
7.5600,4.060
7.6000,3.947
7.6400,3.939
7.6800,4.024
7.7200,3.964
7.7600,3.907
7.8000,3.928
7.8400,3.945
7.8800,3.979
7.9200,3.928
7.9600,4.039
8.0000,3.962
8.0400,3.858
8.0800,3.922
8.1200,4.032
8.1600,3.866
8.2000,3.895
8.2400,3.903
8.2800,3.846
8.3200,4.018
8.3600,3.831
8.4000,3.904
8.4400,3.827
8.4800,3.806
8.5200,3.815
8.5600,3.853
8.6000,3.988
8.6400,3.846
8.6800,3.891
8.7200,3.888
8.7600,3.883
8.8000,3.871
8.8400,4.017
8.8800,3.805
8.9200,3.835
8.9600,3.733
9.0000,3.757
9.0400,3.810
9.0800,3.746
9.1200,3.677
9.1600,3.776
9.2000,3.775
9.2400,3.909
9.2800,3.831
9.3200,3.626
9.3600,3.844
9.4000,3.792
9.4400,3.774
9.4800,3.788
9.5200,3.702
9.5600,3.686
9.6000,3.744
9.6400,3.646
9.6800,3.666
9.7200,3.713
9.7600,3.780
9.8000,3.737
9.8400,3.738
9.8800,3.699
9.9200,3.697
9.9600,3.716
10.0000,3.739
10.0400,3.694
10.0800,3.679
10.1200,3.774
10.1600,3.769
10.2000,3.609
10.2400,3.685
10.2800,3.660
10.3200,3.621
10.3600,3.625
10.4000,3.650
10.4400,3.637
10.4800,3.686
10.5200,3.677
10.5600,3.654
10.6000,3.685
10.6400,3.639
10.6800,3.666
10.7200,3.588
10.7600,3.595
10.8000,3.706
10.8400,3.632
10.8800,3.604
10.9200,3.622
10.9600,3.581
11.0000,3.629
11.0400,3.596
11.0800,3.539
11.1200,3.596
11.1600,3.495
11.2000,3.556
11.2400,3.528
11.2800,3.520
11.3200,3.561
11.3600,3.503
11.4000,3.453
11.4400,3.493
11.4800,3.538
11.5200,3.529
11.5600,3.517
11.6000,3.515
11.6400,3.490
11.6800,3.574
11.7200,3.519
11.7600,3.586
11.8000,3.484
11.8400,3.488
11.8800,3.575
11.9200,3.530
11.9600,3.509
12.0000,3.513
12.0400,3.387
12.0800,3.448
12.1200,3.466
12.1600,3.341
12.2000,3.486
12.2400,3.431
12.2800,3.463
12.3200,3.526
12.3600,3.422
12.4000,3.448
12.4400,3.323
12.4800,3.399
12.5200,3.457
12.5600,3.424
12.6000,3.489
12.6400,3.430
12.6800,3.307
12.7200,3.428
12.7600,3.372
12.8000,3.439
12.8400,3.429
12.8800,3.378
12.9200,3.413
12.9600,3.431
13.0000,3.352
13.0400,3.391
13.0800,3.321
13.1200,3.358
13.1600,3.383
13.2000,3.292
13.2400,3.337
13.2800,3.425
13.3200,3.288
13.3600,3.353
13.4000,3.379
13.4400,3.370
13.4800,3.284
13.5200,3.318
13.5600,3.378
13.6000,3.321
13.6400,3.287
13.6800,3.282
13.7200,3.318
13.7600,3.267
13.8000,3.275
13.8400,3.265
13.8800,3.247
13.9200,3.339
13.9600,3.339
14.0000,3.344
14.0400,3.332
14.0800,3.266
14.1200,3.293
14.1600,3.286
14.2000,3.296
14.2400,3.332
14.2800,3.226
14.3200,3.304
14.3600,3.232
14.4000,3.298
14.4400,3.332
14.4800,3.229
14.5200,3.252
14.5600,3.244
14.6000,3.191
14.6400,3.251
14.6800,3.132
14.7200,3.265
14.7600,3.320
14.8000,3.117
14.8400,3.191
14.8800,3.146
14.9200,3.160
14.9600,3.248
15.0000,3.106
15.0400,3.218
15.0800,3.171
15.1200,3.244
15.1600,3.228
15.2000,3.211
15.2400,3.156
15.2800,3.159
15.3200,3.087
15.3600,3.176
15.4000,3.196
15.4400,3.078
15.4800,3.169
15.5200,3.143
15.5600,3.042
15.6000,3.062
15.6400,3.106
15.6800,3.027
15.7200,3.122
15.7600,3.076
15.8000,3.113
15.8400,3.124
15.8800,3.117
15.9200,3.150
15.9600,3.173
16.0000,3.108
16.0400,3.142
16.0800,3.154
16.1200,2.959
16.1600,3.040
16.2000,3.075
16.2400,3.038
16.2800,3.228
16.3200,3.083
16.3600,3.058
16.4000,3.034
16.4400,3.024
16.4800,3.026
16.5200,3.069
16.5600,3.084
16.6000,3.030
16.6400,2.953
16.6800,3.082
16.7200,3.006
16.7600,3.083
16.8000,2.932
16.8400,3.008
16.8800,2.951
16.9200,2.986
16.9600,2.962
17.0000,2.987
17.0400,3.051
17.0800,3.015
17.1200,3.004
17.1600,3.075
17.2000,2.928
17.2400,3.009
17.2800,2.966
17.3200,3.011
17.3600,3.038
17.4000,2.983
17.4400,2.937
17.4800,2.908
17.5200,2.862
17.5600,2.950
17.6000,2.814
17.6400,2.961
17.6800,2.859
17.7200,2.921
17.7600,2.992
17.8000,2.915
17.8400,3.029
17.8800,2.915
17.9200,3.034
17.9600,2.963
18.0000,2.928
18.0400,2.852
18.0800,2.941
18.1200,2.880
18.1600,2.922
18.2000,2.806
18.2400,2.915
18.2800,2.861
18.3200,2.781
18.3600,2.884
18.4000,2.869
18.4400,2.858
18.4800,2.820
18.5200,2.837
18.5600,2.835
18.6000,2.912
18.6400,2.848
18.6800,2.803
18.7200,2.791
18.7600,2.777
18.8000,2.854
18.8400,2.879
18.8800,2.792
18.9200,2.736
18.9600,2.840
19.0000,2.743
19.0400,2.822
19.0800,2.790
19.1200,2.792
19.1600,2.821
19.2000,2.782
19.2400,2.802
19.2800,2.808
19.3200,2.800
19.3600,2.806
19.4000,2.751
19.4400,2.683
19.4800,2.696
19.5200,2.778
19.5600,2.774
19.6000,2.681
19.6400,2.750
19.6800,2.757
19.7200,2.814
19.7600,2.749
19.8000,2.820
19.8400,2.691
19.8800,2.764
19.9200,2.653
19.9600,2.869
20.0000,2.633
20.0400,2.594
20.0800,2.655
20.1200,2.697
20.1600,2.713
20.2000,2.754
20.2400,2.775
20.2800,2.690
20.3200,2.730
20.3600,2.694
20.4000,2.722
20.4400,2.599
20.4800,2.562
20.5200,2.672
20.5600,2.681
20.6000,2.622
20.6400,2.615
20.6800,2.687
20.7200,2.682
20.7600,2.563
20.8000,2.630
20.8400,2.687
20.8800,2.732
20.9200,2.651
20.9600,2.647
21.0000,2.543
21.0400,2.674
21.0800,2.578
21.1200,2.640
21.1600,2.638
21.2000,2.589
21.2400,2.609
21.2800,2.592
21.3200,2.580
21.3600,2.569
21.4000,2.587
21.4400,2.543
21.4800,2.549
21.5200,2.527
21.5600,2.679
21.6000,2.603
21.6400,2.483
21.6800,2.575
21.7200,2.536
21.7600,2.581
21.8000,2.531
21.8400,2.588
21.8800,2.665
21.9200,2.572
21.9600,2.497
22.0000,2.539
22.0400,2.548
22.0800,2.514
22.1200,2.488
22.1600,2.547
22.2000,2.496
22.2400,2.501
22.2800,2.501
22.3200,2.503
22.3600,2.468
22.4000,2.602
22.4400,2.491
22.4800,2.471
22.5200,2.469
22.5600,2.431
22.6000,2.549
22.6400,2.493
22.6800,2.461
22.7200,2.477
22.7600,2.456
22.8000,2.462
22.8400,2.498
22.8800,2.442
22.9200,2.388
22.9600,2.481
23.0000,2.500
23.0400,2.347
23.0800,2.370
23.1200,2.498
23.1600,2.448
23.2000,2.457
23.2400,2.414
23.2800,2.394
23.3200,2.310
23.3600,2.372
23.4000,2.395
23.4400,2.393
23.4800,2.436
23.5200,2.389
23.5600,2.327
23.6000,2.359
23.6400,2.414
23.6800,2.382
23.7200,2.387
23.7600,2.331
23.8000,2.353
23.8400,2.393
23.8800,2.419
23.9200,2.340
23.9600,2.381
24.0000,2.225
24.0400,2.395
24.0800,2.305
24.1200,2.340
24.1600,2.260
24.2000,2.339
24.2400,2.351
24.2800,2.336
24.3200,2.395
24.3600,2.357
24.4000,2.393
24.4400,2.369
24.4800,2.344
24.5200,2.260
24.5600,2.297
24.6000,2.292
24.6400,2.237
24.6800,2.346
24.7200,2.272
24.7600,2.307
24.8000,2.254
24.8400,2.272
24.8800,2.262
24.9200,2.248
24.9600,2.293
25.0000,2.239
25.0400,2.268
25.0800,2.220
25.1200,2.197
25.1600,2.273
25.2000,2.244
25.2400,2.314
25.2800,2.254
25.3200,2.243
25.3600,2.182
25.4000,2.286
25.4400,2.181
25.4800,2.167
25.5200,2.207
25.5600,2.152
25.6000,2.210
25.6400,2.161
25.6800,2.256
25.7200,2.216
25.7600,2.245
25.8000,2.147
25.8400,2.135
25.8800,2.189
25.9200,2.105
25.9600,2.231
26.0000,2.291
26.0400,2.181
26.0800,2.160
26.1200,2.178
26.1600,2.226
26.2000,2.184
26.2400,2.186
26.2800,2.176
26.3200,2.083
26.3600,2.143
26.4000,2.106
26.4400,2.170
26.4800,2.161
26.5200,2.158
26.5600,2.107
26.6000,2.143
26.6400,2.170
26.6800,2.167
26.7200,2.101
26.7600,2.188
26.8000,2.043
26.8400,2.098
26.8800,2.121
26.9200,2.158
26.9600,2.142
27.0000,2.016
27.0400,2.104
27.0800,2.080
27.1200,2.110
27.1600,2.079
27.2000,2.077
27.2400,2.125
27.2800,1.975
27.3200,2.032
27.3600,2.064
27.4000,2.055
27.4400,2.169
27.4800,2.089
27.5200,2.099
27.5600,2.038
27.6000,2.079
27.6400,1.993
27.6800,2.039
27.7200,2.043
27.7600,2.060
27.8000,2.002
27.8400,2.018
27.8800,2.057
27.9200,2.079
27.9600,2.001
28.0000,2.100
28.0400,2.029
28.0800,2.013
28.1200,2.025
28.1600,2.017
28.2000,2.079
28.2400,1.959
28.2800,2.001
28.3200,1.966
28.3600,1.954
28.4000,2.029
28.4400,1.950
28.4800,1.938
28.5200,1.967
28.5600,1.994
28.6000,2.004
28.6400,1.964
28.6800,1.931
28.7200,1.994
28.7600,1.972
28.8000,1.945
28.8400,2.012
28.8800,1.965
28.9200,1.947
28.9600,1.978
29.0000,1.906
29.0400,2.037
29.0800,1.897
29.1200,1.931
29.1600,1.988
29.2000,1.875
29.2400,1.910
29.2800,1.882
29.3200,1.956
29.3600,1.868
29.4000,1.903
29.4400,1.969
29.4800,1.948
29.5200,1.878
29.5600,1.906
29.6000,1.864
29.6400,1.893
29.6800,1.889
29.7200,1.948
29.7600,1.980
29.8000,1.885
29.8400,1.882
29.8800,1.870
29.9200,1.934
29.9600,1.877
30.0000,1.881
30.0400,1.874
30.0800,1.849
30.1200,1.983
30.1600,1.874
30.2000,1.867
30.2400,1.840
30.2800,1.889
30.3200,1.899
30.3600,1.926
30.4000,1.793
30.4400,1.854
30.4800,1.789
30.5200,1.918
30.5600,1.806
30.6000,1.865
30.6400,1.817
30.6800,1.869
30.7200,1.878
30.7600,1.856
30.8000,1.847
30.8400,1.884
30.8800,1.903
30.9200,1.880
30.9600,1.787
31.0000,1.924
31.0400,1.857
31.0800,1.954
31.1200,2.067
31.1600,1.932
31.2000,1.912
31.2400,1.949
31.2800,2.032
31.3200,2.118
31.3600,2.097
31.4000,2.194
31.4400,2.341
31.4800,2.338
31.5200,2.359
31.5600,2.520
31.6000,2.572
31.6400,2.724
31.6800,2.837
31.7200,2.854
31.7600,2.980
31.8000,3.087
31.8400,3.086
31.8800,3.018
31.9200,2.928
31.9600,2.784
32.0000,2.781
32.0400,2.747
32.0800,2.646
32.1200,2.626
32.1600,2.460
32.2000,2.300
32.2400,2.298
32.2800,2.219
32.3200,2.174
32.3600,2.115
32.4000,2.057
32.4400,2.091
32.4800,2.093
32.5200,2.010
32.5600,2.054
32.6000,1.942
32.6400,1.974
32.6800,1.895
32.7200,1.916
32.7600,1.858
32.8000,1.871
32.8400,1.814
32.8800,1.866
32.9200,1.833
32.9600,1.851
33.0000,2.086
33.0400,2.767
33.0800,2.528
33.1200,1.809
33.1600,1.800
33.2000,1.832
33.2400,1.719
33.2800,1.768
33.3200,1.732
33.3600,1.843
33.4000,1.841
33.4400,1.745
33.4800,1.747
33.5200,1.801
33.5600,1.870
33.6000,1.867
33.6400,1.762
33.6800,1.851
33.7200,1.840
33.7600,1.872
33.8000,1.819
33.8400,1.881
33.8800,1.910
33.9200,1.988
33.9600,2.013
34.0000,2.073
34.0400,2.105
34.0800,2.143
34.1200,2.204
34.1600,2.275
34.2000,2.323
34.2400,2.310
34.2800,2.362
34.3200,2.416
34.3600,2.347
34.4000,2.343
34.4400,2.385
34.4800,2.410
34.5200,2.444
34.5600,2.338
34.6000,2.290
34.6400,2.267
34.6800,2.159
34.7200,2.138
34.7600,2.108
34.8000,2.045
34.8400,2.123
34.8800,2.046
34.9200,2.006
34.9600,1.981
35.0000,1.953
35.0400,1.964
35.0800,1.854
35.1200,1.863
35.1600,1.878
35.2000,1.939
35.2400,1.918
35.2800,1.874
35.3200,1.830
35.3600,1.871
35.4000,1.926
35.4400,1.928
35.4800,1.931
35.5200,2.065
35.5600,2.031
35.6000,2.049
35.6400,2.019
35.6800,2.055
35.7200,2.093
35.7600,2.188
35.8000,2.167
35.8400,2.302
35.8800,2.384
35.9200,2.371
35.9600,2.551
36.0000,2.619
36.0400,2.663
36.0800,2.670
36.1200,2.720
36.1600,2.812
36.2000,2.954
36.2400,2.769
36.2800,2.859
36.3200,2.909
36.3600,2.879
36.4000,2.785
36.4400,2.746
36.4800,2.645
36.5200,2.668
36.5600,2.546
36.6000,2.439
36.6400,2.328
36.6800,2.382
36.7200,2.216
36.7600,2.088
36.8000,2.073
36.8400,1.958
36.8800,1.874
36.9200,1.846
36.9600,1.858
37.0000,1.883
37.0400,1.781
37.0800,1.759
37.1200,1.703
37.1600,1.672
37.2000,1.618
37.2400,1.582
37.2800,1.696
37.3200,1.543
37.3600,1.543
37.4000,1.670
37.4400,1.554
37.4800,1.504
37.5200,1.581
37.5600,1.519
37.6000,1.438
37.6400,1.528
37.6800,1.456
37.7200,1.435
37.7600,1.445
37.8000,1.415
37.8400,1.385
37.8800,1.509
37.9200,1.449
37.9600,1.416
38.0000,1.465
38.0400,1.363
38.0800,1.432
38.1200,1.394
38.1600,1.403
38.2000,1.356
38.2400,1.438
38.2800,1.442
38.3200,1.406
38.3600,1.444
38.4000,1.383
38.4400,1.350
38.4800,1.412
38.5200,1.390
38.5600,1.445
38.6000,1.333
38.6400,1.371
38.6800,1.369
38.7200,1.358
38.7600,1.348
38.8000,1.298
38.8400,1.340
38.8800,1.310
38.9200,1.305
38.9600,1.355
39.0000,1.307
39.0400,1.302
39.0800,1.291
39.1200,1.255
39.1600,1.267
39.2000,1.274
39.2400,1.295
39.2800,1.286
39.3200,1.315
39.3600,1.255
39.4000,1.273
39.4400,1.285
39.4800,1.240
39.5200,1.290
39.5600,1.232
39.6000,1.293
39.6400,1.343
39.6800,1.268
39.7200,1.296
39.7600,1.244
39.8000,1.201
39.8400,1.264
39.8800,1.283
39.9200,1.270
39.9600,1.252
40.0000,1.233
40.0400,1.223
40.0800,1.226
40.1200,1.266
40.1600,1.235
40.2000,1.213
40.2400,1.231
40.2800,1.209
40.3200,1.313
40.3600,1.232
40.4000,1.254
40.4400,1.272
40.4800,1.270
40.5200,1.229
40.5600,1.223
40.6000,1.233
40.6400,1.240
40.6800,1.234
40.7200,1.219
40.7600,1.290
40.8000,1.287
40.8400,1.286
40.8800,1.230
40.9200,1.285
40.9600,1.276
41.0000,1.317
41.0400,1.286
41.0800,1.303
41.1200,1.285
41.1600,1.293
41.2000,1.241
41.2400,1.242
41.2800,1.213
41.3200,1.178
41.3600,1.264
41.4000,1.200
41.4400,1.282
41.4800,1.226
41.5200,1.304
41.5600,1.331
41.6000,1.263
41.6400,1.202
41.6800,1.272
41.7200,1.188
41.7600,1.276
41.8000,1.170
41.8400,1.280
41.8800,1.238
41.9200,1.287
41.9600,1.181
42.0000,1.250
42.0400,1.190
42.0800,1.246
42.1200,1.248
42.1600,1.229
42.2000,1.281
42.2400,1.266
42.2800,1.351
42.3200,1.357
42.3600,1.371
42.4000,1.329
42.4400,1.342
42.4800,1.438
42.5200,1.411
42.5600,1.441
42.6000,1.477
42.6400,1.495
42.6800,1.551
42.7200,1.562
42.7600,1.572
42.8000,1.713
42.8400,1.835
42.8800,1.847
42.9200,1.977
42.9600,2.078
43.0000,2.290
43.0400,2.486
43.0800,2.708
43.1200,2.970
43.1600,3.407
43.2000,3.717
43.2400,4.205
43.2800,4.877
43.3200,4.923
43.3600,4.667
43.4000,4.370
43.4400,3.970
43.4800,3.451
43.5200,3.024
43.5600,2.666
43.6000,2.371
43.6400,2.236
43.6800,2.041
43.7200,1.950
43.7600,1.875
43.8000,1.760
43.8400,1.601
43.8800,1.596
43.9200,1.509
43.9600,1.452
44.0000,1.477
44.0400,1.398
44.0800,1.392
44.1200,1.329
44.1600,1.315
44.2000,1.282
44.2400,1.332
44.2800,1.249
44.3200,1.209
44.3600,1.250
44.4000,1.244
44.4400,1.203
44.4800,1.176
44.5200,1.187
44.5600,1.188
44.6000,1.153
44.6400,1.195
44.6800,1.197
44.7200,1.150
44.7600,1.118
44.8000,1.148
44.8400,1.141
44.8800,1.176
44.9200,1.133
44.9600,1.114
45.0000,1.126
45.0400,1.142
45.0800,1.122
45.1200,1.110
45.1600,1.102
45.2000,1.063
45.2400,1.125
45.2800,1.169
45.3200,1.143
45.3600,1.119
45.4000,1.071
45.4400,1.089
45.4800,1.107
45.5200,1.088
45.5600,1.105
45.6000,1.119
45.6400,1.074
45.6800,1.139
45.7200,1.152
45.7600,1.075
45.8000,1.125
45.8400,1.038
45.8800,1.078
45.9200,1.117
45.9600,1.096
46.0000,1.072
46.0400,1.047
46.0800,1.068
46.1200,1.065
46.1600,1.090
46.2000,1.113
46.2400,1.056
46.2800,1.101
46.3200,1.052
46.3600,1.072
46.4000,1.054
46.4400,1.144
46.4800,1.081
46.5200,1.100
46.5600,1.094
46.6000,1.039
46.6400,1.086
46.6800,1.062
46.7200,1.081
46.7600,1.100
46.8000,1.062
46.8400,1.068
46.8800,1.085
46.9200,1.057
46.9600,1.164
47.0000,1.078
47.0400,1.077
47.0800,1.099
47.1200,1.086
47.1600,1.087
47.2000,1.160
47.2400,1.115
47.2800,1.096
47.3200,1.135
47.3600,1.105
47.4000,1.143
47.4400,1.114
47.4800,1.109
47.5200,1.172
47.5600,1.050
47.6000,1.109
47.6400,1.049
47.6800,1.125
47.7200,1.102
47.7600,1.049
47.8000,1.020
47.8400,1.113
47.8800,1.133
47.9200,1.095
47.9600,1.002
48.0000,1.015
48.0400,1.019
48.0800,1.025
48.1200,1.043
48.1600,0.980
48.2000,0.983
48.2400,1.004
48.2800,1.017
48.3200,0.954
48.3600,1.036
48.4000,0.992
48.4400,1.024
48.4800,0.987
48.5200,0.967
48.5600,1.042
48.6000,1.013
48.6400,0.994
48.6800,0.963
48.7200,1.001
48.7600,0.948
48.8000,1.005
48.8400,0.940
48.8800,1.015
48.9200,1.007
48.9600,0.934
49.0000,0.933
49.0400,0.951
49.0800,0.927
49.1200,0.957
49.1600,0.973
49.2000,1.021
49.2400,0.931
49.2800,0.980
49.3200,0.987
49.3600,0.951
49.4000,0.999
49.4400,1.006
49.4800,0.964
49.5200,0.977
49.5600,0.979
49.6000,0.997
49.6400,0.936
49.6800,1.041
49.7200,1.020
49.7600,1.053
49.8000,1.051
49.8400,1.061
49.8800,1.040
49.9200,1.102
49.9600,1.139
50.0000,1.129
50.0400,1.244
50.0800,1.258
50.1200,1.233
50.1600,1.275
50.2000,1.370
50.2400,1.368
50.2800,1.449
50.3200,1.585
50.3600,1.592
50.4000,1.628
50.4400,1.622
50.4800,1.636
50.5200,1.643
50.5600,1.641
50.6000,1.455
50.6400,1.485
50.6800,1.369
50.7200,1.299
50.7600,1.266
50.8000,1.184
50.8400,1.140
50.8800,1.114
50.9200,1.071
50.9600,1.061
51.0000,1.063
51.0400,1.034
51.0800,0.950
51.1200,0.904
51.1600,0.969
51.2000,0.947
51.2400,0.922
51.2800,0.952
51.3200,0.920
51.3600,0.859
51.4000,0.870
51.4400,0.926
51.4800,0.860
51.5200,0.848
51.5600,0.829
51.6000,0.800
51.6400,0.812
51.6800,0.851
51.7200,0.846
51.7600,0.819
51.8000,0.816
51.8400,0.840
51.8800,0.826
51.9200,0.802
51.9600,0.856
52.0000,0.846
52.0400,0.769
52.0800,0.781
52.1200,0.743
52.1600,0.763
52.2000,0.805
52.2400,0.807
52.2800,0.759
52.3200,0.795
52.3600,0.739
52.4000,0.771
52.4400,0.777
52.4800,0.784
52.5200,0.773
52.5600,0.764
52.6000,0.759
52.6400,0.717
52.6800,0.729
52.7200,0.743
52.7600,0.712
52.8000,0.769
52.8400,0.799
52.8800,0.762
52.9200,0.721
52.9600,0.718
53.0000,0.700
53.0400,0.757
53.0800,0.741
53.1200,0.715
53.1600,0.739
53.2000,0.729
53.2400,0.714
53.2800,0.697
53.3200,0.693
53.3600,0.727
53.4000,0.719
53.4400,0.749
53.4800,0.712
53.5200,0.734
53.5600,0.758
53.6000,0.706
53.6400,0.694
53.6800,0.715
53.7200,0.709
53.7600,0.699
53.8000,0.694
53.8400,0.719
53.8800,0.731
53.9200,0.683
53.9600,0.730
54.0000,0.674
54.0400,0.730
54.0800,0.737
54.1200,0.719
54.1600,0.698
54.2000,0.739
54.2400,0.713
54.2800,0.696
54.3200,0.744
54.3600,0.721
54.4000,0.688
54.4400,0.678
54.4800,0.699
54.5200,0.689
54.5600,0.674
54.6000,0.709
54.6400,0.671
54.6800,0.666
54.7200,0.678
54.7600,0.743
54.8000,0.691
54.8400,0.667
54.8800,0.706
54.9200,0.717
54.9600,0.702
55.0000,0.683
55.0400,0.716
55.0800,0.687
55.1200,0.679
55.1600,0.671
55.2000,0.719
55.2400,0.674
55.2800,0.671
55.3200,0.682
55.3600,0.673
55.4000,0.702
55.4400,0.635
55.4800,0.675
55.5200,0.666
55.5600,0.682
55.6000,0.726
55.6400,0.706
55.6800,0.683
55.7200,0.712
55.7600,0.712
55.8000,0.694
55.8400,0.747
55.8800,0.694
55.9200,0.758
55.9600,0.729
56.0000,0.748
56.0400,0.770
56.0800,0.755
56.1200,0.807
56.1600,0.774
56.2000,0.866
56.2400,0.868
56.2800,0.847
56.3200,0.854
56.3600,0.914
56.4000,0.904
56.4400,0.970
56.4800,0.966
56.5200,1.022
56.5600,1.005
56.6000,1.056
56.6400,1.011
56.6800,1.019
56.7200,1.043
56.7600,1.033
56.8000,0.987
56.8400,0.997
56.8800,1.045
56.9200,0.991
56.9600,0.925
57.0000,0.936
57.0400,0.938
57.0800,0.860
57.1200,0.819
57.1600,0.831
57.2000,0.803
57.2400,0.825
57.2800,0.777
57.3200,0.775
57.3600,0.758
57.4000,0.720
57.4400,0.718
57.4800,0.724
57.5200,0.751
57.5600,0.754
57.6000,0.724
57.6400,0.711
57.6800,0.648
57.7200,0.677
57.7600,0.650
57.8000,0.687
57.8400,0.663
57.8800,0.643
57.9200,0.666
57.9600,0.656
58.0000,0.676
58.0400,0.645
58.0800,0.665
58.1200,0.637
58.1600,0.661
58.2000,0.699
58.2400,0.606
58.2800,0.666
58.3200,0.667
58.3600,0.635
58.4000,0.650
58.4400,0.617
58.4800,0.656
58.5200,0.624
58.5600,0.676
58.6000,0.648
58.6400,0.667
58.6800,0.634
58.7200,0.604
58.7600,0.601
58.8000,0.618
58.8400,0.624
58.8800,0.599
58.9200,0.633
58.9600,0.594
59.0000,0.602
59.0400,0.619
59.0800,0.638
59.1200,0.585
59.1600,0.623
59.2000,0.604
59.2400,0.621
59.2800,0.577
59.3200,0.608
59.3600,0.592
59.4000,0.609
59.4400,0.642
59.4800,0.583
59.5200,0.611
59.5600,0.583
59.6000,0.602
59.6400,0.610
59.6800,0.619
59.7200,0.630
59.7600,0.584
59.8000,0.618
59.8400,0.607
59.8800,0.597
59.9200,0.564
59.9600,0.569
60.0000,0.603
60.0400,0.587
60.0800,0.601
60.1200,0.620
60.1600,0.633
60.2000,0.612
60.2400,0.602
60.2800,0.638
60.3200,0.598
60.3600,0.559
60.4000,0.590
60.4400,0.623
60.4800,0.599
60.5200,0.584
60.5600,0.609
60.6000,0.574
60.6400,0.607
60.6800,0.583
60.7200,0.571
60.7600,0.595
60.8000,0.593
60.8400,0.599
60.8800,0.620
60.9200,0.569
60.9600,0.617
61.0000,0.589
61.0400,0.629
61.0800,0.599
61.1200,0.601
61.1600,0.607
61.2000,0.608
61.2400,0.560
61.2800,0.587
61.3200,0.573
61.3600,0.595
61.4000,0.593
61.4400,0.602
61.4800,0.598
61.5200,0.599
61.5600,0.574
61.6000,0.641
61.6400,0.698
61.6800,0.668
61.7200,0.638
61.7600,0.663
61.8000,0.639
61.8400,0.653
61.8800,0.631
61.9200,0.656
61.9600,0.648
62.0000,0.656
62.0400,0.634
62.0800,0.640
62.1200,0.644
62.1600,0.655
62.2000,0.637
62.2400,0.649
62.2800,0.669
62.3200,0.630
62.3600,0.656
62.4000,0.661
62.4400,0.690
62.4800,0.684
62.5200,0.707
62.5600,0.711
62.6000,0.697
62.6400,0.676
62.6800,0.717
62.7200,0.700
62.7600,0.738
62.8000,0.757
62.8400,0.713
62.8800,0.752
62.9200,0.745
62.9600,0.719
63.0000,0.704
63.0400,0.692
63.0800,0.758
63.1200,0.686
63.1600,0.627
63.2000,0.676
63.2400,0.705
63.2800,0.701
63.3200,0.666
63.3600,0.655
63.4000,0.666
63.4400,0.669
63.4800,0.657
63.5200,0.673
63.5600,0.677
63.6000,0.643
63.6400,0.646
63.6800,0.645
63.7200,0.633
63.7600,0.654
63.8000,0.667
63.8400,0.654
63.8800,0.606
63.9200,0.614
63.9600,0.601
64.0000,0.667
64.0400,0.643
64.0800,0.626
64.1200,0.613
64.1600,0.615
64.2000,0.634
64.2400,0.599
64.2800,0.589
64.3200,0.601
64.3600,0.614
64.4000,0.607
64.4400,0.576
64.4800,0.592
64.5200,0.628
64.5600,0.637
64.6000,0.606
64.6400,0.619
64.6800,0.606
64.7200,0.597
64.7600,0.636
64.8000,0.661
64.8400,0.578
64.8800,0.599
64.9200,0.648
64.9600,0.616
65.0000,0.629
65.0400,0.603
65.0800,0.635
65.1200,0.676
65.1600,0.642
65.2000,0.604
65.2400,0.673
65.2800,0.617
65.3200,0.639
65.3600,0.658
65.4000,0.651
65.4400,0.666
65.4800,0.677
65.5200,0.646
65.5600,0.686
65.6000,0.690
65.6400,0.697
65.6800,0.689
65.7200,0.727
65.7600,0.754
65.8000,0.733
65.8400,0.713
65.8800,0.747
65.9200,0.767
65.9600,0.731
66.0000,0.734
66.0400,0.790
66.0800,0.762
66.1200,0.746
66.1600,0.791
66.2000,0.791
66.2400,0.813
66.2800,0.838
66.3200,0.894
66.3600,0.822
66.4000,0.890
66.4400,0.856
66.4800,0.886
66.5200,0.907
66.5600,0.881
66.6000,0.939
66.6400,0.974
66.6800,0.950
66.7200,0.972
66.7600,0.984
66.8000,0.996
66.8400,0.998
66.8800,1.038
66.9200,1.021
66.9600,1.056
67.0000,1.075
67.0400,1.086
67.0800,1.081
67.1200,1.181
67.1600,1.153
67.2000,1.131
67.2400,1.153
67.2800,1.215
67.3200,1.240
67.3600,1.272
67.4000,1.249
67.4400,1.352
67.4800,1.384
67.5200,1.417
67.5600,1.377
67.6000,1.493
67.6400,1.518
67.6800,1.501
67.7200,1.541
67.7600,1.703
67.8000,1.775
67.8400,1.740
67.8800,1.721
67.9200,1.779
67.9600,1.780
68.0000,1.908
68.0400,1.927
68.0800,1.979
68.1200,1.917
68.1600,2.095
68.2000,2.115
68.2400,2.130
68.2800,2.097
68.3200,2.261
68.3600,2.248
68.4000,2.437
68.4400,2.636
68.4800,2.631
68.5200,2.738
68.5600,2.926
68.6000,3.122
68.6400,3.385
68.6800,3.810
68.7200,4.723
68.7600,6.043
68.8000,7.237
68.8400,7.928
68.8800,8.009
68.9200,8.983
68.9600,11.460
69.0000,16.746
69.0400,31.246
69.0800,110.954
69.1200,417.923
69.1600,491.040
69.2000,192.363
69.2400,56.400
69.2800,82.208
69.3200,228.144
69.3600,247.641
69.4000,94.681
69.4400,25.683
69.4800,13.523
69.5200,9.455
69.5600,7.494
69.6000,6.039
69.6400,5.149
69.6800,4.607
69.7200,4.076
69.7600,3.765
69.8000,3.451
69.8400,3.256
69.8800,2.975
69.9200,2.890
69.9600,2.723
70.0000,2.680
70.0400,2.515
70.0800,2.430
70.1200,2.349
70.1600,2.312
70.2000,2.155
70.2400,2.044
70.2800,1.982
70.3200,2.012
70.3600,1.881
70.4000,1.829
70.4400,1.740
70.4800,1.710
70.5200,1.686
70.5600,1.623
70.6000,1.605
70.6400,1.569
70.6800,1.522
70.7200,1.437
70.7600,1.441
70.8000,1.391
70.8400,1.366
70.8800,1.263
70.9200,1.317
70.9600,1.232
71.0000,1.162
71.0400,1.178
71.0800,1.112
71.1200,1.188
71.1600,1.077
71.2000,1.076
71.2400,0.999
71.2800,0.994
71.3200,0.996
71.3600,1.021
71.4000,0.975
71.4400,0.978
71.4800,0.925
71.5200,0.929
71.5600,0.883
71.6000,0.905
71.6400,0.864
71.6800,0.832
71.7200,0.824
71.7600,0.820
71.8000,0.809
71.8400,0.814
71.8800,0.791
71.9200,0.776
71.9600,0.749
72.0000,0.737
72.0400,0.770
72.0800,0.716
72.1200,0.714
72.1600,0.742
72.2000,0.684
72.2400,0.646
72.2800,0.672
72.3200,0.670
72.3600,0.728
72.4000,0.653
72.4400,0.707
72.4800,0.611
72.5200,0.625
72.5600,0.616
72.6000,0.616
72.6400,0.614
72.6800,0.584
72.7200,0.577
72.7600,0.589
72.8000,0.594
72.8400,0.595
72.8800,0.556
72.9200,0.611
72.9600,0.586
73.0000,0.597
73.0400,0.541
73.0800,0.571
73.1200,0.565
73.1600,0.557
73.2000,0.603
73.2400,0.585
73.2800,0.541
73.3200,0.567
73.3600,0.593
73.4000,0.544
73.4400,0.570
73.4800,0.552
73.5200,0.546
73.5600,0.540
73.6000,0.498
73.6400,0.585
73.6800,0.612
73.7200,0.600
73.7600,0.561
73.8000,0.622
73.8400,0.667
73.8800,0.702
73.9200,0.670
73.9600,0.746
74.0000,0.751
74.0400,0.819
74.0800,0.803
74.1200,0.803
74.1600,0.805
74.2000,0.749
74.2400,0.808
74.2800,0.694
74.3200,0.710
74.3600,0.702
74.4000,0.665
74.4400,0.593
74.4800,0.606
74.5200,0.590
74.5600,0.566
74.6000,0.545
74.6400,0.523
74.6800,0.524
74.7200,0.479
74.7600,0.487
74.8000,0.469
74.8400,0.474
74.8800,0.490
74.9200,0.455
74.9600,0.422
75.0000,0.439
75.0400,0.437
75.0800,0.442
75.1200,0.431
75.1600,0.428
75.2000,0.397
75.2400,0.427
75.2800,0.396
75.3200,0.428
75.3600,0.406
75.4000,0.403
75.4400,0.410
75.4800,0.400
75.5200,0.414
75.5600,0.409
75.6000,0.364
75.6400,0.397
75.6800,0.402
75.7200,0.415
75.7600,0.401
75.8000,0.366
75.8400,0.362
75.8800,0.392
75.9200,0.367
75.9600,0.338
76.0000,0.361
76.0400,0.388
76.0800,0.370
76.1200,0.389
76.1600,0.387
76.2000,0.372
76.2400,0.353
76.2800,0.386
76.3200,0.367
76.3600,0.363
76.4000,0.374
76.4400,0.342
76.4800,0.364
76.5200,0.362
76.5600,0.376
76.6000,0.369
76.6400,0.393
76.6800,0.391
76.7200,0.347
76.7600,0.399
76.8000,0.380
76.8400,0.362
76.8800,0.375
76.9200,0.396
76.9600,0.360
77.0000,0.367
77.0400,0.374
77.0800,0.359
77.1200,0.368
77.1600,0.350
77.2000,0.350
77.2400,0.309
77.2800,0.357
77.3200,0.340
77.3600,0.345
77.4000,0.325
77.4400,0.357
77.4800,0.334
77.5200,0.341
77.5600,0.319
77.6000,0.322
77.6400,0.313
77.6800,0.307
77.7200,0.327
77.7600,0.329
77.8000,0.346
77.8400,0.324
77.8800,0.316
77.9200,0.328
77.9600,0.333
78.0000,0.348
78.0400,0.324
78.0800,0.318
78.1200,0.327
78.1600,0.332
78.2000,0.318
78.2400,0.345
78.2800,0.327
78.3200,0.321
78.3600,0.332
78.4000,0.338
78.4400,0.267
78.4800,0.311
78.5200,0.318
78.5600,0.299
78.6000,0.278
78.6400,0.321
78.6800,0.309
78.7200,0.318
78.7600,0.299
78.8000,0.292
78.8400,0.293
78.8800,0.261
78.9200,0.326
78.9600,0.293
79.0000,0.314
79.0400,0.280
79.0800,0.326
79.1200,0.306
79.1600,0.321
79.2000,0.306
79.2400,0.337
79.2800,0.291
79.3200,0.298
79.3600,0.318
79.4000,0.313
79.4400,0.321
79.4800,0.304
79.5200,0.297
79.5600,0.295
79.6000,0.283
79.6400,0.288
79.6800,0.300
79.7200,0.297
79.7600,0.311
79.8000,0.300
79.8400,0.286
79.8800,0.323
79.9200,0.310
79.9600,0.309
80.0000,0.288
