theta,intensity
5.0000,6.861
5.0400,6.805
5.0800,6.626
5.1200,6.639
5.1600,6.206
5.2000,6.154
5.2400,6.134
5.2800,5.919
5.3200,5.813
5.3600,5.702
5.4000,5.483
5.4400,5.549
5.4800,5.504
5.5200,5.280
5.5600,5.134
5.6000,5.080
5.6400,5.032
5.6800,4.828
5.7200,4.727
5.7600,4.620
5.8000,4.719
5.8400,4.540
5.8800,4.550
5.9200,4.474
5.9600,4.450
6.0000,4.284
6.0400,4.304
6.0800,4.421
6.1200,4.416
6.1600,4.300
6.2000,4.269
6.2400,4.350
6.2800,4.395
6.3200,4.387
6.3600,4.346
6.4000,4.316
6.4400,4.220
6.4800,4.169
6.5200,4.300
6.5600,4.287
6.6000,4.258
6.6400,4.208
6.6800,4.194
6.7200,4.227
6.7600,4.178
6.8000,4.140
6.8400,4.288
6.8800,4.235
6.9200,4.327
6.9600,4.222
7.0000,4.252
7.0400,4.184
7.0800,4.169
7.1200,4.051
7.1600,4.228
7.2000,4.133
7.2400,4.135
7.2800,4.166
7.3200,4.091
7.3600,4.083
7.4000,4.141
7.4400,4.117
7.4800,4.044
7.5200,4.037
7.5600,4.139
7.6000,4.090
7.6400,4.093
7.6800,4.091
7.7200,4.101
7.7600,4.062
7.8000,3.987
7.8400,3.904
7.8800,4.044
7.9200,4.033
7.9600,3.882
8.0000,3.940
8.0400,4.011
8.0800,3.937
8.1200,3.932
8.1600,3.961
8.2000,3.994
8.2400,3.940
8.2800,4.026
8.3200,3.856
8.3600,3.887
8.4000,4.014
8.4400,3.852
8.4800,3.904
8.5200,3.902
8.5600,3.915
8.6000,3.850
8.6400,3.852
8.6800,3.876
8.7200,3.959
8.7600,3.929
8.8000,3.901
8.8400,3.875
8.8800,3.909
8.9200,3.856
8.9600,4.002
9.0000,3.850
9.0400,3.687
9.0800,3.767
9.1200,3.811
9.1600,3.879
9.2000,3.832
9.2400,3.755
9.2800,3.807
9.3200,3.777
9.3600,3.816
9.4000,3.609
9.4400,3.800
9.4800,3.728
9.5200,3.771
9.5600,3.735
9.6000,3.869
9.6400,3.764
9.6800,3.847
9.7200,3.820
9.7600,3.786
9.8000,3.738
9.8400,3.704
9.8800,3.774
9.9200,3.779
9.9600,3.812
10.0000,3.706
10.0400,3.740
10.0800,3.805
10.1200,3.797
10.1600,3.695
10.2000,3.789
10.2400,3.740
10.2800,3.669
10.3200,3.698
10.3600,3.619
10.4000,3.688
10.4400,3.672
10.4800,3.729
10.5200,3.707
10.5600,3.726
10.6000,3.782
10.6400,3.676
10.6800,3.621
10.7200,3.710
10.7600,3.594
10.8000,3.690
10.8400,3.761
10.8800,3.652
10.9200,3.647
10.9600,3.673
11.0000,3.546
11.0400,3.703
11.0800,3.632
11.1200,3.571
11.1600,3.542
11.2000,3.697
11.2400,3.574
11.2800,3.637
11.3200,3.697
11.3600,3.480
11.4000,3.544
11.4400,3.565
11.4800,3.472
11.5200,3.538
11.5600,3.543
11.6000,3.616
11.6400,3.561
11.6800,3.565
11.7200,3.489
11.7600,3.520
11.8000,3.455
11.8400,3.521
11.8800,3.567
11.9200,3.503
11.9600,3.581
12.0000,3.526
12.0400,3.464
12.0800,3.475
12.1200,3.582
12.1600,3.492
12.2000,3.465
12.2400,3.472
12.2800,3.423
12.3200,3.534
12.3600,3.411
12.4000,3.540
12.4400,3.531
12.4800,3.464
12.5200,3.500
12.5600,3.467
12.6000,3.492
12.6400,3.416
12.6800,3.486
12.7200,3.416
12.7600,3.485
12.8000,3.408
12.8400,3.437
12.8800,3.482
12.9200,3.466
12.9600,3.397
13.0000,3.415
13.0400,3.440
13.0800,3.418
13.1200,3.369
13.1600,3.503
13.2000,3.362
13.2400,3.456
13.2800,3.401
13.3200,3.246
13.3600,3.473
13.4000,3.425
13.4400,3.400
13.4800,3.461
13.5200,3.398
13.5600,3.355
13.6000,3.315
13.6400,3.395
13.6800,3.385
13.7200,3.386
13.7600,3.525
13.8000,3.427
13.8400,3.388
13.8800,3.373
13.9200,3.370
13.9600,3.360
14.0000,3.365
14.0400,3.442
14.0800,3.336
14.1200,3.262
14.1600,3.331
14.2000,3.246
14.2400,3.249
14.2800,3.262
14.3200,3.216
14.3600,3.299
14.4000,3.205
14.4400,3.276
14.4800,3.311
14.5200,3.222
14.5600,3.294
14.6000,3.259
14.6400,3.294
14.6800,3.240
14.7200,3.312
14.7600,3.311
14.8000,3.238
14.8400,3.256
14.8800,3.316
14.9200,3.235
14.9600,3.292
15.0000,3.169
15.0400,3.106
15.0800,3.128
15.1200,3.208
15.1600,3.168
15.2000,3.322
15.2400,3.167
15.2800,3.232
15.3200,3.130
15.3600,3.213
15.4000,3.136
15.4400,3.126
15.4800,3.224
15.5200,3.096
15.5600,3.246
15.6000,3.187
15.6400,3.137
15.6800,3.199
15.7200,3.152
15.7600,3.180
15.8000,3.139
15.8400,3.152
15.8800,3.157
15.9200,3.092
15.9600,3.142
16.0000,3.099
16.0400,3.190
16.0800,3.093
16.1200,2.991
16.1600,3.096
16.2000,3.161
16.2400,3.146
16.2800,3.022
16.3200,3.154
16.3600,3.143
16.4000,3.068
16.4400,3.185
16.4800,3.037
16.5200,2.990
16.5600,3.007
16.6000,3.030
16.6400,3.107
16.6800,3.109
16.7200,3.057
16.7600,3.046
16.8000,3.089
16.8400,2.927
16.8800,2.999
16.9200,3.038
16.9600,3.071
17.0000,2.943
17.0400,3.067
17.0800,2.985
17.1200,2.995
17.1600,2.998
17.2000,2.922
17.2400,2.931
17.2800,2.953
17.3200,3.003
17.3600,2.960
17.4000,2.965
17.4400,2.933
17.4800,2.994
17.5200,3.098
17.5600,3.017
17.6000,2.970
17.6400,3.002
17.6800,2.947
17.7200,2.988
17.7600,2.866
17.8000,2.902
17.8400,3.010
17.8800,2.936
17.9200,3.028
17.9600,2.928
18.0000,3.052
18.0400,2.840
18.0800,2.925
18.1200,2.976
18.1600,2.812
18.2000,2.947
18.2400,2.917
18.2800,2.795
18.3200,2.964
18.3600,2.851
18.4000,2.877
18.4400,2.899
18.4800,2.894
18.5200,2.967
18.5600,2.817
18.6000,2.870
18.6400,2.929
18.6800,2.860
18.7200,2.832
18.7600,2.713
18.8000,2.851
18.8400,2.856
18.8800,2.784
18.9200,2.705
18.9600,2.816
19.0000,2.884
19.0400,2.790
19.0800,2.809
19.1200,2.850
19.1600,2.819
19.2000,2.899
19.2400,2.804
19.2800,2.831
19.3200,2.765
19.3600,2.763
19.4000,2.734
19.4400,2.818
19.4800,2.838
19.5200,2.841
19.5600,2.804
19.6000,2.774
19.6400,2.840
19.6800,2.775
19.7200,2.718
19.7600,2.794
19.8000,2.766
19.8400,2.660
19.8800,2.829
19.9200,2.666
19.9600,2.758
20.0000,2.691
20.0400,2.661
20.0800,2.826
20.1200,2.766
20.1600,2.729
20.2000,2.667
20.2400,2.785
20.2800,2.690
20.3200,2.741
20.3600,2.678
20.4000,2.681
20.4400,2.731
20.4800,2.732
20.5200,2.666
20.5600,2.657
20.6000,2.756
20.6400,2.548
20.6800,2.673
20.7200,2.650
20.7600,2.663
20.8000,2.758
20.8400,2.672
20.8800,2.659
20.9200,2.634
20.9600,2.629
21.0000,2.654
21.0400,2.675
21.0800,2.506
21.1200,2.643
21.1600,2.621
21.2000,2.696
21.2400,2.617
21.2800,2.712
21.3200,2.657
21.3600,2.682
21.4000,2.536
21.4400,2.689
21.4800,2.682
21.5200,2.660
21.5600,2.632
21.6000,2.591
21.6400,2.593
21.6800,2.555
21.7200,2.615
21.7600,2.554
21.8000,2.594
21.8400,2.551
21.8800,2.596
21.9200,2.571
21.9600,2.555
22.0000,2.556
22.0400,2.550
22.0800,2.638
22.1200,2.511
22.1600,2.511
22.2000,2.483
22.2400,2.516
22.2800,2.512
22.3200,2.514
22.3600,2.498
22.4000,2.456
22.4400,2.520
22.4800,2.553
22.5200,2.542
22.5600,2.504
22.6000,2.560
22.6400,2.569
22.6800,2.481
22.7200,2.443
22.7600,2.449
22.8000,2.522
22.8400,2.483
22.8800,2.399
22.9200,2.435
22.9600,2.519
23.0000,2.430
23.0400,2.449
23.0800,2.465
23.1200,2.477
23.1600,2.485
23.2000,2.403
23.2400,2.403
23.2800,2.471
23.3200,2.463
23.3600,2.469
23.4000,2.418
23.4400,2.446
23.4800,2.398
23.5200,2.438
23.5600,2.540
23.6000,2.440
23.6400,2.552
23.6800,2.489
23.7200,2.607
23.7600,2.551
23.8000,2.616
23.8400,2.698
23.8800,2.713
23.9200,2.709
23.9600,2.691
24.0000,2.675
24.0400,2.649
24.0800,2.596
24.1200,2.498
24.1600,2.519
24.2000,2.519
24.2400,2.415
24.2800,2.475
24.3200,2.452
24.3600,2.382
24.4000,2.420
24.4400,2.340
24.4800,2.375
24.5200,2.348
24.5600,2.331
24.6000,2.265
24.6400,2.306
24.6800,2.357
24.7200,2.213
24.7600,2.354
24.8000,2.264
24.8400,2.351
24.8800,2.296
24.9200,2.268
24.9600,2.282
25.0000,2.268
25.0400,2.221
25.0800,2.271
25.1200,2.384
25.1600,2.346
25.2000,2.260
25.2400,2.350
25.2800,2.270
25.3200,2.258
25.3600,2.255
25.4000,2.257
25.4400,2.266
25.4800,2.231
25.5200,2.262
25.5600,2.290
25.6000,2.224
25.6400,2.255
25.6800,2.211
25.7200,2.267
25.7600,2.191
25.8000,2.198
25.8400,2.200
25.8800,2.186
25.9200,2.175
25.9600,2.145
26.0000,2.217
26.0400,2.260
26.0800,2.184
26.1200,2.143
26.1600,2.179
26.2000,2.189
26.2400,2.135
26.2800,2.247
26.3200,2.247
26.3600,2.234
26.4000,2.119
26.4400,2.147
26.4800,2.183
26.5200,2.065
26.5600,2.086
26.6000,2.156
26.6400,2.233
26.6800,2.202
26.7200,2.139
26.7600,2.112
26.8000,2.186
26.8400,2.140
26.8800,2.144
26.9200,2.103
26.9600,2.089
27.0000,2.104
27.0400,2.107
27.0800,2.149
27.1200,2.124
27.1600,2.102
27.2000,2.142
27.2400,2.143
27.2800,2.088
27.3200,2.173
27.3600,2.089
27.4000,2.033
27.4400,2.032
27.4800,2.039
27.5200,2.073
27.5600,2.040
27.6000,2.043
27.6400,2.021
27.6800,2.104
27.7200,2.079
27.7600,2.132
27.8000,2.031
27.8400,2.095
27.8800,2.001
27.9200,2.058
27.9600,2.028
28.0000,2.013
28.0400,1.978
28.0800,1.935
28.1200,2.003
28.1600,2.023
28.2000,2.053
28.2400,1.996
28.2800,2.062
28.3200,2.030
28.3600,1.960
28.4000,1.989
28.4400,1.973
28.4800,1.988
28.5200,1.999
28.5600,1.959
28.6000,1.994
28.6400,2.003
28.6800,1.910
28.7200,1.889
28.7600,1.922
28.8000,1.982
28.8400,1.942
28.8800,1.957
28.9200,1.903
28.9600,1.926
29.0000,1.933
29.0400,1.892
29.0800,1.893
29.1200,1.919
29.1600,1.908
29.2000,1.945
29.2400,1.948
29.2800,1.893
29.3200,1.888
29.3600,1.933
29.4000,1.983
29.4400,1.966
29.4800,1.946
29.5200,1.905
29.5600,1.931
29.6000,1.945
29.6400,1.973
29.6800,1.875
29.7200,1.924
29.7600,1.832
29.8000,1.890
29.8400,1.931
29.8800,1.904
29.9200,1.924
29.9600,1.874
30.0000,1.864
30.0400,1.881
30.0800,1.863
30.1200,1.938
30.1600,1.784
30.2000,1.901
30.2400,1.944
30.2800,1.906
30.3200,1.960
30.3600,1.814
30.4000,1.914
30.4400,1.880
30.4800,1.878
30.5200,1.924
30.5600,1.949
30.6000,1.920
30.6400,1.922
30.6800,1.848
30.7200,1.883
30.7600,1.876
30.8000,1.939
30.8400,1.903
30.8800,1.864
30.9200,1.918
30.9600,1.881
31.0000,1.907
31.0400,1.974
31.0800,1.986
31.1200,1.929
31.1600,1.964
31.2000,1.908
31.2400,2.067
31.2800,2.049
31.3200,2.051
31.3600,2.062
31.4000,2.023
31.4400,2.153
31.4800,2.155
31.5200,2.165
31.5600,2.269
31.6000,2.308
31.6400,2.323
31.6800,2.362
31.7200,2.458
31.7600,2.376
31.8000,2.438
31.8400,2.447
31.8800,2.406
31.9200,2.391
31.9600,2.351
32.0000,2.314
32.0400,2.263
32.0800,2.228
32.1200,2.236
32.1600,2.179
32.2000,2.174
32.2400,2.170
32.2800,2.101
32.3200,2.137
32.3600,2.066
32.4000,2.010
32.4400,2.050
32.4800,1.963
32.5200,1.926
32.5600,1.891
32.6000,1.878
32.6400,1.939
32.6800,1.809
32.7200,1.889
32.7600,1.859
32.8000,1.887
32.8400,1.839
32.8800,1.838
32.9200,1.819
32.9600,1.987
33.0000,2.073
33.0400,1.928
33.0800,1.876
33.1200,1.809
33.1600,1.784
33.2000,1.737
33.2400,1.826
33.2800,1.795
33.3200,1.795
33.3600,1.791
33.4000,1.756
33.4400,1.804
33.4800,1.745
33.5200,1.762
33.5600,1.859
33.6000,1.848
33.6400,1.818
33.6800,1.892
33.7200,1.827
33.7600,1.877
33.8000,1.866
33.8400,1.887
33.8800,1.932
33.9200,1.960
33.9600,1.979
34.0000,2.090
34.0400,2.080
34.0800,2.094
34.1200,2.011
34.1600,2.123
34.2000,2.104
34.2400,2.171
34.2800,2.107
34.3200,2.040
34.3600,2.121
34.4000,2.148
34.4400,2.088
34.4800,2.104
34.5200,2.072
34.5600,2.004
34.6000,2.043
34.6400,2.022
34.6800,2.048
34.7200,1.930
34.7600,1.973
34.8000,1.906
34.8400,1.938
34.8800,1.870
34.9200,1.907
34.9600,1.893
35.0000,1.877
35.0400,1.837
35.0800,1.846
35.1200,1.885
35.1600,1.828
35.2000,1.792
35.2400,1.829
35.2800,1.817
35.3200,1.820
35.3600,1.785
35.4000,1.835
35.4400,1.894
35.4800,1.902
35.5200,1.853
35.5600,1.861
35.6000,1.908
35.6400,1.882
35.6800,1.908
35.7200,1.988
35.7600,2.018
35.8000,2.047
35.8400,2.044
35.8800,2.090
35.9200,2.122
35.9600,2.114
36.0000,2.248
36.0400,2.305
36.0800,2.286
36.1200,2.341
36.1600,2.312
36.2000,2.271
36.2400,2.381
36.2800,2.302
36.3200,2.348
36.3600,2.270
36.4000,2.223
36.4400,2.188
36.4800,2.212
36.5200,2.197
36.5600,2.146
36.6000,2.124
36.6400,2.057
36.6800,2.016
36.7200,2.046
36.7600,1.987
36.8000,1.989
36.8400,1.923
36.8800,1.839
36.9200,1.863
36.9600,1.679
37.0000,1.738
37.0400,1.765
37.0800,1.671
37.1200,1.646
37.1600,1.657
37.2000,1.644
37.2400,1.547
37.2800,1.666
37.3200,1.596
37.3600,1.575
37.4000,1.452
37.4400,1.539
37.4800,1.536
37.5200,1.533
37.5600,1.477
37.6000,1.479
37.6400,1.411
37.6800,1.448
37.7200,1.489
37.7600,1.482
37.8000,1.423
37.8400,1.445
37.8800,1.475
37.9200,1.415
37.9600,1.379
38.0000,1.424
38.0400,1.447
38.0800,1.370
38.1200,1.385
38.1600,1.401
38.2000,1.344
38.2400,1.357
38.2800,1.393
38.3200,1.371
38.3600,1.390
38.4000,1.353
38.4400,1.325
38.4800,1.343
38.5200,1.421
38.5600,1.385
38.6000,1.358
38.6400,1.345
38.6800,1.332
38.7200,1.347
38.7600,1.403
38.8000,1.350
38.8400,1.300
38.8800,1.392
38.9200,1.360
38.9600,1.320
39.0000,1.379
39.0400,1.355
39.0800,1.300
39.1200,1.283
39.1600,1.385
39.2000,1.328
39.2400,1.339
39.2800,1.288
39.3200,1.380
39.3600,1.329
39.4000,1.261
39.4400,1.295
39.4800,1.375
39.5200,1.317
39.5600,1.336
39.6000,1.308
39.6400,1.270
39.6800,1.295
39.7200,1.342
39.7600,1.345
39.8000,1.317
39.8400,1.314
39.8800,1.310
39.9200,1.281
39.9600,1.289
40.0000,1.329
40.0400,1.314
40.0800,1.326
40.1200,1.319
40.1600,1.326
40.2000,1.272
40.2400,1.281
40.2800,1.293
40.3200,1.314
40.3600,1.313
40.4000,1.302
40.4400,1.376
40.4800,1.387
40.5200,1.383
40.5600,1.267
40.6000,1.377
40.6400,1.387
40.6800,1.425
40.7200,1.360
40.7600,1.407
40.8000,1.423
40.8400,1.456
40.8800,1.469
40.9200,1.501
40.9600,1.497
41.0000,1.505
41.0400,1.551
41.0800,1.646
41.1200,1.639
41.1600,1.696
41.2000,1.791
41.2400,1.825
41.2800,1.768
41.3200,1.851
41.3600,1.840
41.4000,1.852
41.4400,2.001
41.4800,2.088
41.5200,2.160
41.5600,2.193
41.6000,2.308
41.6400,2.427
41.6800,2.560
41.7200,2.625
41.7600,2.880
41.8000,3.117
41.8400,3.408
41.8800,3.625
41.9200,3.862
41.9600,4.007
42.0000,4.183
42.0400,4.167
42.0800,4.157
42.1200,3.986
42.1600,3.816
42.2000,3.478
42.2400,3.374
42.2800,3.019
42.3200,2.763
42.3600,2.585
42.4000,2.271
42.4400,2.182
42.4800,2.069
42.5200,1.895
42.5600,1.832
42.6000,1.729
42.6400,1.668
42.6800,1.593
42.7200,1.583
42.7600,1.488
42.8000,1.487
42.8400,1.380
42.8800,1.386
42.9200,1.383
42.9600,1.354
43.0000,1.341
43.0400,1.337
43.0800,1.288
43.1200,1.313
43.1600,1.253
43.2000,1.166
43.2400,1.222
43.2800,1.309
43.3200,1.249
43.3600,1.248
43.4000,1.185
43.4400,1.178
43.4800,1.198
43.5200,1.188
43.5600,1.223
43.6000,1.147
43.6400,1.168
43.6800,1.169
43.7200,1.144
43.7600,1.124
43.8000,1.154
43.8400,1.085
43.8800,1.164
43.9200,1.160
43.9600,1.179
44.0000,1.136
44.0400,1.090
44.0800,1.147
44.1200,1.173
44.1600,1.176
44.2000,1.134
44.2400,1.162
44.2800,1.128
44.3200,1.126
44.3600,1.118
44.4000,1.112
44.4400,1.037
44.4800,1.057
44.5200,1.057
44.5600,1.061
44.6000,1.090
44.6400,1.024
44.6800,1.020
44.7200,1.095
44.7600,1.074
44.8000,1.062
44.8400,0.999
44.8800,1.069
44.9200,1.061
44.9600,1.065
45.0000,1.015
45.0400,0.987
45.0800,0.991
45.1200,1.042
45.1600,1.057
45.2000,1.015
45.2400,1.023
45.2800,1.050
45.3200,1.016
45.3600,0.992
45.4000,1.060
45.4400,1.032
45.4800,0.998
45.5200,1.026
45.5600,0.997
45.6000,1.016
45.6400,1.001
45.6800,0.996
45.7200,0.985
45.7600,0.958
45.8000,1.007
45.8400,0.990
45.8800,0.976
45.9200,1.011
45.9600,1.016
46.0000,1.010
46.0400,0.984
46.0800,1.037
46.1200,1.042
46.1600,1.029
46.2000,0.952
46.2400,1.039
46.2800,0.960
46.3200,1.053
46.3600,1.012
46.4000,1.087
46.4400,1.038
46.4800,1.026
46.5200,1.070
46.5600,1.041
46.6000,1.052
46.6400,1.077
46.6800,1.017
46.7200,0.990
46.7600,1.015
46.8000,1.086
46.8400,1.036
46.8800,1.092
46.9200,1.030
46.9600,1.007
47.0000,1.004
47.0400,1.034
47.0800,1.050
47.1200,1.082
47.1600,1.008
47.2000,1.008
47.2400,0.995
47.2800,1.007
47.3200,0.962
47.3600,1.002
47.4000,1.029
47.4400,1.049
47.4800,1.007
47.5200,0.970
47.5600,0.993
47.6000,0.983
47.6400,0.992
47.6800,0.978
47.7200,0.978
47.7600,0.942
47.8000,0.956
47.8400,0.978
47.8800,0.973
47.9200,0.904
47.9600,1.012
48.0000,0.948
48.0400,0.981
48.0800,0.971
48.1200,0.978
48.1600,0.948
48.2000,0.930
48.2400,0.983
48.2800,0.925
48.3200,0.901
48.3600,0.911
48.4000,0.931
48.4400,0.938
48.4800,0.930
48.5200,0.936
48.5600,0.911
48.6000,0.976
48.6400,0.926
48.6800,0.941
48.7200,0.952
48.7600,0.942
48.8000,0.979
48.8400,0.922
48.8800,0.953
48.9200,0.967
48.9600,0.966
49.0000,0.930
49.0400,0.891
49.0800,0.950
49.1200,0.884
49.1600,0.911
49.2000,0.990
49.2400,0.909
49.2800,0.953
49.3200,0.893
49.3600,0.927
49.4000,0.874
49.4400,0.887
49.4800,0.869
49.5200,0.898
49.5600,0.916
49.6000,0.875
49.6400,0.810
49.6800,0.813
49.7200,0.827
49.7600,0.861
49.8000,0.854
49.8400,0.822
49.8800,0.833
49.9200,0.823
49.9600,0.855
50.0000,0.855
50.0400,0.808
50.0800,0.792
50.1200,0.843
50.1600,0.799
50.2000,0.828
50.2400,0.769
50.2800,0.779
50.3200,0.835
50.3600,0.811
50.4000,0.812
50.4400,0.940
50.4800,0.792
50.5200,0.805
50.5600,0.784
50.6000,0.773
50.6400,0.822
50.6800,0.811
50.7200,0.783
50.7600,0.794
50.8000,0.781
50.8400,0.804
50.8800,0.770
50.9200,0.816
50.9600,0.802
51.0000,0.793
51.0400,0.777
51.0800,0.750
51.1200,0.778
51.1600,0.828
51.2000,0.815
51.2400,0.791
51.2800,0.749
51.3200,0.779
51.3600,0.776
51.4000,0.779
51.4400,0.783
51.4800,0.820
51.5200,0.786
51.5600,0.744
51.6000,0.756
51.6400,0.792
51.6800,0.819
51.7200,0.783
51.7600,0.761
51.8000,0.742
51.8400,0.772
51.8800,0.755
51.9200,0.701
51.9600,0.767
52.0000,0.699
52.0400,0.768
52.0800,0.726
52.1200,0.774
52.1600,0.734
52.2000,0.763
52.2400,0.675
52.2800,0.748
52.3200,0.758
52.3600,0.745
52.4000,0.756
52.4400,0.734
52.4800,0.727
52.5200,0.712
52.5600,0.786
52.6000,0.737
52.6400,0.750
52.6800,0.712
52.7200,0.712
52.7600,0.705
52.8000,0.683
52.8400,0.681
52.8800,0.724
52.9200,0.766
52.9600,0.722
53.0000,0.679
53.0400,0.719
53.0800,0.742
53.1200,0.661
53.1600,0.681
53.2000,0.726
53.2400,0.695
53.2800,0.699
53.3200,0.762
53.3600,0.697
53.4000,0.770
53.4400,0.700
53.4800,0.704
53.5200,0.714
53.5600,0.739
53.6000,0.699
53.6400,0.717
53.6800,0.707
53.7200,0.732
53.7600,0.717
53.8000,0.694
53.8400,0.710
53.8800,0.723
53.9200,0.734
53.9600,0.679
54.0000,0.733
54.0400,0.661
54.0800,0.703
54.1200,0.717
54.1600,0.689
54.2000,0.765
54.2400,0.674
54.2800,0.724
54.3200,0.712
54.3600,0.684
54.4000,0.723
54.4400,0.728
54.4800,0.663
54.5200,0.681
54.5600,0.661
54.6000,0.721
54.6400,0.737
54.6800,0.689
54.7200,0.738
54.7600,0.745
54.8000,0.673
54.8400,0.731
54.8800,0.716
54.9200,0.698
54.9600,0.730
55.0000,0.698
55.0400,0.711
55.0800,0.742
55.1200,0.670
55.1600,0.638
55.2000,0.672
55.2400,0.667
55.2800,0.720
55.3200,0.699
55.3600,0.718
55.4000,0.709
55.4400,0.724
55.4800,0.668
55.5200,0.725
55.5600,0.674
55.6000,0.730
55.6400,0.738
55.6800,0.752
55.7200,0.718
55.7600,0.757
55.8000,0.727
55.8400,0.742
55.8800,0.726
55.9200,0.701
55.9600,0.734
56.0000,0.761
56.0400,0.785
56.0800,0.790
56.1200,0.794
56.1600,0.758
56.2000,0.782
56.2400,0.828
56.2800,0.844
56.3200,0.817
56.3600,0.757
56.4000,0.783
56.4400,0.807
56.4800,0.820
56.5200,0.833
56.5600,0.845
56.6000,0.831
56.6400,0.884
56.6800,0.846
56.7200,0.815
56.7600,0.859
56.8000,0.844
56.8400,0.824
56.8800,0.846
56.9200,0.848
56.9600,0.809
57.0000,0.792
57.0400,0.835
57.0800,0.806
57.1200,0.795
57.1600,0.785
57.2000,0.744
57.2400,0.779
57.2800,0.754
57.3200,0.767
57.3600,0.739
57.4000,0.770
57.4400,0.743
57.4800,0.669
57.5200,0.720
57.5600,0.723
57.6000,0.694
57.6400,0.669
57.6800,0.626
57.7200,0.690
57.7600,0.649
57.8000,0.662
57.8400,0.686
57.8800,0.674
57.9200,0.648
57.9600,0.687
58.0000,0.650
58.0400,0.675
58.0800,0.613
58.1200,0.680
58.1600,0.664
58.2000,0.679
58.2400,0.684
58.2800,0.662
58.3200,0.642
58.3600,0.603
58.4000,0.657
58.4400,0.642
58.4800,0.660
58.5200,0.634
58.5600,0.652
58.6000,0.620
58.6400,0.655
58.6800,0.669
58.7200,0.654
58.7600,0.630
58.8000,0.620
58.8400,0.613
58.8800,0.628
58.9200,0.609
58.9600,0.624
59.0000,0.598
59.0400,0.657
59.0800,0.618
59.1200,0.606
59.1600,0.640
59.2000,0.631
59.2400,0.618
59.2800,0.595
59.3200,0.643
59.3600,0.685
59.4000,0.645
59.4400,0.604
59.4800,0.602
59.5200,0.610
59.5600,0.607
59.6000,0.621
59.6400,0.614
59.6800,0.599
59.7200,0.585
59.7600,0.586
59.8000,0.591
59.8400,0.650
59.8800,0.632
59.9200,0.613
59.9600,0.624
60.0000,0.652
60.0400,0.639
60.0800,0.611
60.1200,0.670
60.1600,0.654
60.2000,0.657
60.2400,0.633
60.2800,0.629
60.3200,0.599
60.3600,0.674
60.4000,0.605
60.4400,0.661
60.4800,0.637
60.5200,0.667
60.5600,0.733
60.6000,0.682
60.6400,0.632
60.6800,0.632
60.7200,0.682
60.7600,0.733
60.8000,0.670
60.8400,0.711
60.8800,0.718
60.9200,0.742
60.9600,0.737
61.0000,0.710
61.0400,0.709
61.0800,0.745
61.1200,0.752
61.1600,0.684
61.2000,0.760
61.2400,0.751
61.2800,0.723
61.3200,0.693
61.3600,0.696
61.4000,0.697
61.4400,0.652
61.4800,0.633
61.5200,0.637
61.5600,0.671
61.6000,0.630
61.6400,0.724
61.6800,0.736
61.7200,0.692
61.7600,0.670
61.8000,0.629
61.8400,0.624
61.8800,0.630
61.9200,0.635
61.9600,0.628
62.0000,0.599
62.0400,0.654
62.0800,0.603
62.1200,0.589
62.1600,0.656
62.2000,0.636
62.2400,0.639
62.2800,0.642
62.3200,0.656
62.3600,0.680
62.4000,0.651
62.4400,0.670
62.4800,0.664
62.5200,0.636
62.5600,0.681
62.6000,0.636
62.6400,0.685
62.6800,0.688
62.7200,0.674
62.7600,0.663
62.8000,0.674
62.8400,0.637
62.8800,0.664
62.9200,0.705
62.9600,0.645
63.0000,0.682
63.0400,0.659
63.0800,0.667
63.1200,0.600
63.1600,0.633
63.2000,0.601
63.2400,0.644
63.2800,0.652
63.3200,0.615
63.3600,0.638
63.4000,0.661
63.4400,0.657
63.4800,0.614
63.5200,0.650
63.5600,0.668
63.6000,0.663
63.6400,0.653
63.6800,0.646
63.7200,0.603
63.7600,0.647
63.8000,0.582
63.8400,0.633
63.8800,0.596
63.9200,0.655
63.9600,0.597
64.0000,0.608
64.0400,0.576
64.0800,0.568
64.1200,0.612
64.1600,0.629
64.2000,0.618
64.2400,0.587
64.2800,0.613
64.3200,0.627
64.3600,0.646
64.4000,0.625
64.4400,0.611
64.4800,0.649
64.5200,0.627
64.5600,0.592
64.6000,0.640
64.6400,0.574
64.6800,0.639
64.7200,0.606
64.7600,0.600
64.8000,0.643
64.8400,0.663
64.8800,0.628
64.9200,0.636
64.9600,0.664
65.0000,0.618
65.0400,0.640
65.0800,0.623
65.1200,0.677
65.1600,0.710
65.2000,0.612
65.2400,0.672
65.2800,0.665
65.3200,0.691
65.3600,0.710
65.4000,0.697
65.4400,0.697
65.4800,0.678
65.5200,0.721
65.5600,0.660
65.6000,0.696
65.6400,0.691
65.6800,0.743
65.7200,0.720
65.7600,0.718
65.8000,0.731
65.8400,0.756
65.8800,0.753
65.9200,0.738
65.9600,0.728
66.0000,0.808
66.0400,0.787
66.0800,0.759
66.1200,0.804
66.1600,0.872
66.2000,0.819
66.2400,0.788
66.2800,0.820
66.3200,0.824
66.3600,0.844
66.4000,0.885
66.4400,0.930
66.4800,0.938
66.5200,0.931
66.5600,0.945
66.6000,0.951
66.6400,0.903
66.6800,0.938
66.7200,1.007
66.7600,0.959
66.8000,1.028
66.8400,0.982
66.8800,1.009
66.9200,1.053
66.9600,1.080
67.0000,1.138
67.0400,1.140
67.0800,1.123
67.1200,1.161
67.1600,1.184
67.2000,1.226
67.2400,1.218
67.2800,1.260
67.3200,1.277
67.3600,1.348
67.4000,1.333
67.4400,1.345
67.4800,1.408
67.5200,1.433
67.5600,1.381
67.6000,1.473
67.6400,1.503
67.6800,1.551
67.7200,1.616
67.7600,1.583
67.8000,1.668
67.8400,1.677
67.8800,1.803
67.9200,1.751
67.9600,1.825
68.0000,1.892
68.0400,1.932
68.0800,2.057
68.1200,1.977
68.1600,2.089
68.2000,2.122
68.2400,2.145
68.2800,2.269
68.3200,2.388
68.3600,2.506
68.4000,2.539
68.4400,2.583
68.4800,2.840
68.5200,2.976
68.5600,3.153
68.6000,3.306
68.6400,3.834
68.6800,4.680
68.7200,6.113
68.7600,7.526
68.8000,8.129
68.8400,8.375
68.8800,8.621
68.9200,10.738
68.9600,14.878
69.0000,27.071
69.0400,82.838
69.0800,392.449
69.1200,591.240
69.1600,284.389
69.2000,72.090
69.2400,70.128
69.2800,220.011
69.3200,298.890
69.3600,139.734
69.4000,35.199
69.4400,15.714
69.4800,10.515
69.5200,8.127
69.5600,6.766
69.6000,5.706
69.6400,4.908
69.6800,4.551
69.7200,4.060
69.7600,3.739
69.8000,3.415
69.8400,3.281
69.8800,3.013
69.9200,2.936
69.9600,2.775
70.0000,2.641
70.0400,2.614
70.0800,2.454
70.1200,2.378
70.1600,2.372
70.2000,2.250
70.2400,2.129
70.2800,2.034
70.3200,2.012
70.3600,1.943
70.4000,1.816
70.4400,1.882
70.4800,1.809
70.5200,1.745
70.5600,1.675
70.6000,1.659
70.6400,1.570
70.6800,1.561
70.7200,1.483
70.7600,1.463
70.8000,1.449
70.8400,1.402
70.8800,1.295
70.9200,1.289
70.9600,1.297
71.0000,1.207
71.0400,1.259
71.0800,1.166
71.1200,1.134
71.1600,1.170
71.2000,1.160
71.2400,1.124
71.2800,1.099
71.3200,1.056
71.3600,1.021
71.4000,1.023
71.4400,0.991
71.4800,1.013
71.5200,0.973
71.5600,0.918
71.6000,0.914
71.6400,0.872
71.6800,0.881
71.7200,0.871
71.7600,0.873
71.8000,0.833
71.8400,0.819
71.8800,0.830
71.9200,0.760
71.9600,0.774
72.0000,0.813
72.0400,0.771
72.0800,0.754
72.1200,0.724
72.1600,0.713
72.2000,0.717
72.2400,0.680
72.2800,0.696
72.3200,0.637
72.3600,0.694
72.4000,0.627
72.4400,0.674
72.4800,0.626
72.5200,0.632
72.5600,0.646
72.6000,0.625
72.6400,0.690
72.6800,0.661
72.7200,0.631
72.7600,0.576
72.8000,0.605
72.8400,0.599
72.8800,0.579
72.9200,0.620
72.9600,0.609
73.0000,0.619
73.0400,0.597
73.0800,0.571
73.1200,0.565
73.1600,0.539
73.2000,0.494
73.2400,0.570
73.2800,0.544
73.3200,0.574
73.3600,0.546
73.4000,0.488
73.4400,0.512
73.4800,0.499
73.5200,0.518
73.5600,0.496
73.6000,0.504
73.6400,0.519
73.6800,0.517
73.7200,0.480
73.7600,0.527
73.8000,0.484
73.8400,0.440
73.8800,0.461
73.9200,0.460
73.9600,0.496
74.0000,0.461
74.0400,0.492
74.0800,0.467
74.1200,0.437
74.1600,0.474
74.2000,0.438
74.2400,0.458
74.2800,0.441
74.3200,0.413
74.3600,0.411
74.4000,0.402
74.4400,0.430
74.4800,0.407
74.5200,0.413
74.5600,0.434
74.6000,0.419
74.6400,0.407
74.6800,0.428
74.7200,0.391
74.7600,0.416
74.8000,0.414
74.8400,0.418
74.8800,0.402
74.9200,0.429
74.9600,0.436
75.0000,0.402
75.0400,0.424
75.0800,0.427
75.1200,0.424
75.1600,0.397
75.2000,0.418
75.2400,0.395
75.2800,0.367
75.3200,0.407
75.3600,0.426
75.4000,0.381
75.4400,0.366
75.4800,0.402
75.5200,0.404
75.5600,0.407
75.6000,0.387
75.6400,0.389
75.6800,0.389
75.7200,0.352
75.7600,0.364
75.8000,0.399
75.8400,0.388
75.8800,0.373
75.9200,0.416
75.9600,0.401
76.0000,0.390
76.0400,0.415
76.0800,0.392
76.1200,0.424
76.1600,0.437
76.2000,0.408
76.2400,0.409
76.2800,0.419
76.3200,0.431
76.3600,0.435
76.4000,0.450
76.4400,0.438
76.4800,0.449
76.5200,0.440
76.5600,0.479
76.6000,0.456
76.6400,0.468
76.6800,0.470
76.7200,0.476
76.7600,0.494
76.8000,0.499
76.8400,0.499
76.8800,0.512
76.9200,0.480
76.9600,0.455
77.0000,0.489
77.0400,0.472
77.0800,0.463
77.1200,0.475
77.1600,0.464
77.2000,0.451
77.2400,0.456
77.2800,0.476
77.3200,0.481
77.3600,0.443
77.4000,0.478
77.4400,0.465
77.4800,0.445
77.5200,0.426
77.5600,0.459
77.6000,0.413
77.6400,0.421
77.6800,0.401
77.7200,0.392
77.7600,0.401
77.8000,0.395
77.8400,0.371
77.8800,0.403
77.9200,0.373
77.9600,0.361
78.0000,0.394
78.0400,0.364
78.0800,0.344
78.1200,0.345
78.1600,0.366
78.2000,0.372
78.2400,0.369
78.2800,0.378
78.3200,0.342
78.3600,0.343
78.4000,0.328
78.4400,0.349
78.4800,0.351
78.5200,0.324
78.5600,0.300
78.6000,0.331
78.6400,0.335
78.6800,0.322
78.7200,0.318
78.7600,0.338
78.8000,0.331
78.8400,0.343
78.8800,0.327
78.9200,0.353
78.9600,0.360
79.0000,0.353
79.0400,0.343
79.0800,0.341
79.1200,0.339
79.1600,0.326
79.2000,0.315
79.2400,0.329
79.2800,0.315
79.3200,0.352
79.3600,0.317
79.4000,0.352
79.4400,0.339
79.4800,0.317
79.5200,0.322
79.5600,0.341
79.6000,0.340
79.6400,0.315
79.6800,0.343
79.7200,0.346
79.7600,0.334
79.8000,0.285
79.8400,0.297
79.8800,0.329
79.9200,0.280
79.9600,0.308
80.0000,0.280
