theta,intensity
5.0000,6.464
5.0400,6.472
5.0800,6.618
5.1200,6.406
5.1600,6.439
5.2000,6.347
5.2400,6.281
5.2800,6.166
5.3200,6.104
5.3600,6.111
5.4000,5.863
5.4400,5.788
5.4800,5.785
5.5200,5.675
5.5600,5.594
5.6000,5.407
5.6400,5.383
5.6800,5.283
5.7200,5.027
5.7600,5.063
5.8000,4.928
5.8400,4.917
5.8800,4.803
5.9200,4.731
5.9600,4.706
6.0000,4.703
6.0400,4.623
6.0800,4.437
6.1200,4.460
6.1600,4.505
6.2000,4.380
6.2400,4.393
6.2800,4.359
6.3200,4.360
6.3600,4.273
6.4000,4.251
6.4400,4.296
6.4800,4.292
6.5200,4.284
6.5600,4.179
6.6000,4.205
6.6400,4.268
6.6800,4.235
6.7200,4.167
6.7600,4.195
6.8000,4.129
6.8400,4.097
6.8800,4.149
6.9200,4.148
6.9600,4.124
7.0000,4.055
7.0400,4.007
7.0800,4.187
7.1200,4.041
7.1600,4.043
7.2000,4.001
7.2400,4.020
7.2800,4.035
7.3200,3.947
7.3600,3.937
7.4000,3.947
7.4400,3.809
7.4800,3.972
7.5200,3.990
7.5600,3.944
7.6000,3.957
7.6400,3.998
7.6800,3.938
7.7200,3.920
7.7600,3.934
7.8000,3.963
7.8400,3.935
7.8800,3.922
7.9200,3.901
7.9600,3.907
8.0000,3.899
8.0400,3.906
8.0800,3.938
8.1200,3.981
8.1600,3.886
8.2000,3.922
8.2400,3.889
8.2800,3.853
8.3200,3.896
8.3600,4.082
8.4000,3.953
8.4400,3.909
8.4800,4.000
8.5200,3.874
8.5600,3.892
8.6000,3.887
8.6400,3.938
8.6800,3.897
8.7200,3.726
8.7600,3.744
8.8000,3.829
8.8400,3.775
8.8800,3.758
8.9200,3.749
8.9600,3.717
9.0000,3.707
9.0400,3.827
9.0800,3.788
9.1200,3.728
9.1600,3.831
9.2000,3.828
9.2400,3.820
9.2800,3.731
9.3200,3.814
9.3600,3.798
9.4000,3.665
9.4400,3.733
9.4800,3.798
9.5200,3.687
9.5600,3.791
9.6000,3.689
9.6400,3.655
9.6800,3.688
9.7200,3.608
9.7600,3.670
9.8000,3.642
9.8400,3.708
9.8800,3.739
9.9200,3.653
9.9600,3.599
10.0000,3.571
10.0400,3.672
10.0800,3.684
10.1200,3.630
10.1600,3.671
10.2000,3.742
10.2400,3.646
10.2800,3.772
10.3200,3.696
10.3600,3.686
10.4000,3.683
10.4400,3.499
10.4800,3.643
10.5200,3.751
10.5600,3.690
10.6000,3.651
10.6400,3.648
10.6800,3.633
10.7200,3.516
10.7600,3.585
10.8000,3.683
10.8400,3.648
10.8800,3.512
10.9200,3.512
10.9600,3.527
11.0000,3.656
11.0400,3.559
11.0800,3.651
11.1200,3.710
11.1600,3.609
11.2000,3.584
11.2400,3.579
11.2800,3.543
11.3200,3.519
11.3600,3.541
11.4000,3.565
11.4400,3.697
11.4800,3.582
11.5200,3.542
11.5600,3.577
11.6000,3.523
11.6400,3.558
11.6800,3.561
11.7200,3.561
11.7600,3.562
11.8000,3.463
11.8400,3.436
11.8800,3.395
11.9200,3.437
11.9600,3.483
12.0000,3.529
12.0400,3.479
12.0800,3.394
12.1200,3.537
12.1600,3.443
12.2000,3.461
12.2400,3.425
12.2800,3.416
12.3200,3.377
12.3600,3.382
12.4000,3.526
12.4400,3.533
12.4800,3.431
12.5200,3.459
12.5600,3.435
12.6000,3.388
12.6400,3.519
12.6800,3.475
12.7200,3.398
12.7600,3.524
12.8000,3.402
12.8400,3.361
12.8800,3.386
12.9200,3.387
12.9600,3.456
13.0000,3.424
13.0400,3.371
13.0800,3.410
13.1200,3.257
13.1600,3.340
13.2000,3.362
13.2400,3.373
13.2800,3.413
13.3200,3.324
13.3600,3.384
13.4000,3.332
13.4400,3.365
13.4800,3.322
13.5200,3.411
13.5600,3.337
13.6000,3.378
13.6400,3.337
13.6800,3.247
13.7200,3.178
13.7600,3.228
13.8000,3.194
13.8400,3.224
13.8800,3.254
13.9200,3.298
13.9600,3.304
14.0000,3.314
14.0400,3.279
14.0800,3.233
14.1200,3.261
14.1600,3.234
14.2000,3.204
14.2400,3.302
14.2800,3.268
14.3200,3.364
14.3600,3.251
14.4000,3.200
14.4400,3.231
14.4800,3.165
14.5200,3.201
14.5600,3.177
14.6000,3.246
14.6400,3.219
14.6800,3.299
14.7200,3.224
14.7600,3.216
14.8000,3.227
14.8400,3.255
14.8800,3.168
14.9200,3.107
14.9600,3.267
15.0000,3.232
15.0400,3.176
15.0800,3.168
15.1200,3.245
15.1600,3.243
15.2000,3.146
15.2400,3.079
15.2800,3.142
15.3200,3.098
15.3600,3.142
15.4000,3.116
15.4400,3.165
15.4800,3.036
15.5200,3.114
15.5600,3.213
15.6000,3.174
15.6400,3.121
15.6800,3.093
15.7200,3.253
15.7600,3.195
15.8000,3.085
15.8400,3.068
15.8800,3.104
15.9200,3.146
15.9600,3.086
16.0000,3.122
16.0400,3.032
16.0800,3.104
16.1200,3.081
16.1600,3.148
16.2000,3.127
16.2400,3.084
16.2800,3.082
16.3200,3.148
16.3600,3.072
16.4000,2.979
16.4400,3.119
16.4800,3.002
16.5200,3.020
16.5600,3.014
16.6000,2.984
16.6400,3.045
16.6800,3.011
16.7200,3.067
16.7600,3.035
16.8000,2.996
16.8400,2.995
16.8800,2.916
16.9200,2.952
16.9600,3.018
17.0000,2.913
17.0400,3.016
17.0800,2.895
17.1200,2.925
17.1600,2.998
17.2000,3.031
17.2400,2.991
17.2800,3.067
17.3200,2.929
17.3600,2.935
17.4000,2.868
17.4400,2.988
17.4800,2.889
17.5200,2.932
17.5600,2.909
17.6000,2.882
17.6400,2.936
17.6800,2.863
17.7200,2.918
17.7600,2.840
17.8000,2.885
17.8400,2.876
17.8800,2.788
17.9200,2.924
17.9600,2.946
18.0000,2.892
18.0400,2.935
18.0800,2.786
18.1200,2.859
18.1600,2.860
18.2000,2.858
18.2400,2.797
18.2800,2.938
18.3200,2.903
18.3600,2.859
18.4000,2.846
18.4400,2.850
18.4800,2.768
18.5200,2.806
18.5600,2.746
18.6000,2.763
18.6400,2.849
18.6800,2.848
18.7200,2.776
18.7600,2.809
18.8000,2.908
18.8400,2.876
18.8800,2.857
18.9200,2.826
18.9600,2.813
19.0000,2.695
19.0400,2.781
19.0800,2.749
19.1200,2.872
19.1600,2.810
19.2000,2.855
19.2400,2.744
19.2800,2.817
19.3200,2.676
19.3600,2.827
19.4000,2.809
19.4400,2.769
19.4800,2.808
19.5200,2.760
19.5600,2.686
19.6000,2.731
19.6400,2.765
19.6800,2.733
19.7200,2.729
19.7600,2.704
19.8000,2.712
19.8400,2.700
19.8800,2.671
19.9200,2.673
19.9600,2.671
20.0000,2.746
20.0400,2.611
20.0800,2.695
20.1200,2.674
20.1600,2.675
20.2000,2.757
20.2400,2.775
20.2800,2.675
20.3200,2.713
20.3600,2.704
20.4000,2.649
20.4400,2.576
20.4800,2.594
20.5200,2.605
20.5600,2.691
20.6000,2.645
20.6400,2.605
20.6800,2.610
20.7200,2.584
20.7600,2.566
20.8000,2.692
20.8400,2.542
20.8800,2.592
20.9200,2.635
20.9600,2.665
21.0000,2.565
21.0400,2.626
21.0800,2.622
21.1200,2.579
21.1600,2.554
21.2000,2.640
21.2400,2.553
21.2800,2.558
21.3200,2.542
21.3600,2.577
21.4000,2.554
21.4400,2.587
21.4800,2.537
21.5200,2.568
21.5600,2.567
21.6000,2.589
21.6400,2.573
21.6800,2.542
21.7200,2.530
21.7600,2.495
21.8000,2.527
21.8400,2.588
21.8800,2.493
21.9200,2.593
21.9600,2.520
22.0000,2.503
22.0400,2.575
22.0800,2.554
22.1200,2.563
22.1600,2.428
22.2000,2.504
22.2400,2.414
22.2800,2.429
22.3200,2.488
22.3600,2.443
22.4000,2.464
22.4400,2.466
22.4800,2.552
22.5200,2.436
22.5600,2.447
22.6000,2.462
22.6400,2.459
22.6800,2.508
22.7200,2.485
22.7600,2.374
22.8000,2.439
22.8400,2.440
22.8800,2.438
22.9200,2.397
22.9600,2.476
23.0000,2.324
23.0400,2.375
23.0800,2.425
23.1200,2.366
23.1600,2.413
23.2000,2.427
23.2400,2.410
23.2800,2.454
23.3200,2.511
23.3600,2.412
23.4000,2.389
23.4400,2.453
23.4800,2.435
23.5200,2.430
23.5600,2.296
23.6000,2.453
23.6400,2.385
23.6800,2.439
23.7200,2.452
23.7600,2.390
23.8000,2.313
23.8400,2.334
23.8800,2.319
23.9200,2.295
23.9600,2.351
24.0000,2.289
24.0400,2.302
24.0800,2.290
24.1200,2.327
24.1600,2.338
24.2000,2.278
24.2400,2.374
24.2800,2.339
24.3200,2.297
24.3600,2.292
24.4000,2.309
24.4400,2.275
24.4800,2.326
24.5200,2.282
24.5600,2.302
24.6000,2.288
24.6400,2.337
24.6800,2.312
24.7200,2.195
24.7600,2.289
24.8000,2.252
24.8400,2.225
24.8800,2.231
24.9200,2.275
24.9600,2.218
25.0000,2.235
25.0400,2.296
25.0800,2.206
25.1200,2.179
25.1600,2.244
25.2000,2.308
25.2400,2.229
25.2800,2.236
25.3200,2.237
25.3600,2.260
25.4000,2.234
25.4400,2.203
25.4800,2.214
25.5200,2.155
25.5600,2.149
25.6000,2.190
25.6400,2.200
25.6800,2.139
25.7200,2.154
25.7600,2.162
25.8000,2.147
25.8400,2.126
25.8800,2.148
25.9200,2.084
25.9600,2.126
26.0000,2.094
26.0400,2.137
26.0800,2.189
26.1200,2.111
26.1600,2.178
26.2000,2.139
26.2400,2.143
26.2800,2.108
26.3200,2.128
26.3600,2.136
26.4000,2.188
26.4400,2.088
26.4800,2.108
26.5200,2.187
26.5600,2.114
26.6000,2.051
26.6400,2.060
26.6800,2.022
26.7200,2.144
26.7600,2.129
26.8000,2.108
26.8400,2.002
26.8800,2.038
26.9200,2.055
26.9600,2.068
27.0000,2.045
27.0400,2.060
27.0800,2.068
27.1200,2.111
27.1600,2.110
27.2000,2.059
27.2400,2.028
27.2800,2.005
27.3200,2.096
27.3600,2.004
27.4000,2.079
27.4400,1.997
27.4800,2.025
27.5200,2.003
27.5600,2.003
27.6000,2.020
27.6400,2.003
27.6800,1.976
27.7200,1.951
27.7600,1.923
27.8000,1.990
27.8400,1.989
27.8800,2.040
27.9200,1.941
27.9600,1.911
28.0000,2.018
28.0400,1.942
28.0800,2.083
28.1200,1.939
28.1600,1.964
28.2000,2.001
28.2400,1.997
28.2800,2.003
28.3200,2.000
28.3600,1.910
28.4000,1.985
28.4400,1.869
28.4800,1.913
28.5200,1.939
28.5600,1.858
28.6000,1.985
28.6400,1.988
28.6800,1.856
28.7200,1.929
28.7600,1.893
28.8000,2.008
28.8400,1.867
28.8800,1.931
28.9200,1.887
28.9600,1.923
29.0000,1.860
29.0400,1.928
29.0800,1.889
29.1200,1.852
29.1600,1.902
29.2000,1.918
29.2400,1.896
29.2800,1.876
29.3200,1.834
29.3600,1.827
29.4000,1.900
29.4400,1.900
29.4800,1.822
29.5200,1.839
29.5600,1.874
29.6000,1.835
29.6400,1.839
29.6800,1.879
29.7200,1.919
29.7600,1.831
29.8000,1.894
29.8400,1.804
29.8800,1.857
29.9200,1.820
29.9600,1.863
30.0000,1.830
30.0400,1.817
30.0800,1.838
30.1200,1.813
30.1600,1.797
30.2000,1.830
30.2400,1.851
30.2800,1.843
30.3200,1.797
30.3600,1.762
30.4000,1.837
30.4400,1.817
30.4800,1.762
30.5200,1.810
30.5600,1.750
30.6000,1.779
30.6400,1.711
30.6800,1.695
30.7200,1.748
30.7600,1.770
30.8000,1.807
30.8400,1.782
30.8800,1.782
30.9200,1.812
30.9600,1.770
31.0000,1.756
31.0400,1.795
31.0800,1.782
31.1200,1.745
31.1600,1.703
31.2000,1.737
31.2400,1.752
31.2800,1.795
31.3200,1.670
31.3600,1.757
31.4000,1.695
31.4400,1.785
31.4800,1.748
31.5200,1.775
31.5600,1.728
31.6000,1.739
31.6400,1.698
31.6800,1.753
31.7200,1.622
31.7600,1.729
31.8000,1.684
31.8400,1.750
31.8800,1.650
31.9200,1.631
31.9600,1.684
32.0000,1.692
32.0400,1.655
32.0800,1.743
32.1200,1.679
32.1600,1.726
32.2000,1.653
32.2400,1.644
32.2800,1.690
32.3200,1.682
32.3600,1.671
32.4000,1.655
32.4400,1.642
32.4800,1.592
32.5200,1.635
32.5600,1.674
32.6000,1.676
32.6400,1.687
32.6800,1.615
32.7200,1.609
32.7600,1.596
32.8000,1.619
32.8400,1.562
32.8800,1.605
32.9200,1.687
32.9600,1.631
33.0000,1.876
33.0400,1.932
33.0800,1.660
33.1200,1.648
33.1600,1.653
33.2000,1.623
33.2400,1.590
33.2800,1.629
33.3200,1.583
33.3600,1.634
33.4000,1.566
33.4400,1.594
33.4800,1.637
33.5200,1.578
33.5600,1.522
33.6000,1.654
33.6400,1.624
33.6800,1.598
33.7200,1.633
33.7600,1.586
33.8000,1.516
33.8400,1.529
33.8800,1.492
33.9200,1.499
33.9600,1.482
34.0000,1.567
34.0400,1.582
34.0800,1.536
34.1200,1.539
34.1600,1.547
34.2000,1.542
34.2400,1.482
34.2800,1.495
34.3200,1.548
34.3600,1.470
34.4000,1.423
34.4400,1.542
34.4800,1.487
34.5200,1.450
34.5600,1.490
34.6000,1.452
34.6400,1.466
34.6800,1.473
34.7200,1.501
34.7600,1.454
34.8000,1.487
34.8400,1.463
34.8800,1.463
34.9200,1.521
34.9600,1.409
35.0000,1.455
35.0400,1.479
35.0800,1.498
35.1200,1.459
35.1600,1.484
35.2000,1.443
35.2400,1.491
35.2800,1.406
35.3200,1.370
35.3600,1.401
35.4000,1.470
35.4400,1.323
35.4800,1.510
35.5200,1.487
35.5600,1.456
35.6000,1.497
35.6400,1.411
35.6800,1.503
35.7200,1.463
35.7600,1.459
35.8000,1.444
35.8400,1.453
35.8800,1.424
35.9200,1.408
35.9600,1.367
36.0000,1.410
36.0400,1.369
36.0800,1.346
36.1200,1.367
36.1600,1.389
36.2000,1.414
36.2400,1.370
36.2800,1.405
36.3200,1.401
36.3600,1.347
36.4000,1.435
36.4400,1.354
36.4800,1.360
36.5200,1.340
36.5600,1.428
36.6000,1.346
36.6400,1.420
36.6800,1.369
36.7200,1.423
36.7600,1.429
36.8000,1.400
36.8400,1.360
36.8800,1.360
36.9200,1.397
36.9600,1.353
37.0000,1.331
37.0400,1.368
37.0800,1.350
37.1200,1.353
37.1600,1.323
37.2000,1.312
37.2400,1.359
37.2800,1.362
37.3200,1.349
37.3600,1.300
37.4000,1.282
37.4400,1.291
37.4800,1.331
37.5200,1.277
37.5600,1.350
37.6000,1.344
37.6400,1.339
37.6800,1.323
37.7200,1.321
37.7600,1.348
37.8000,1.286
37.8400,1.312
37.8800,1.303
37.9200,1.268
37.9600,1.284
38.0000,1.270
38.0400,1.242
38.0800,1.332
38.1200,1.307
38.1600,1.289
38.2000,1.327
38.2400,1.219
38.2800,1.293
38.3200,1.222
38.3600,1.296
38.4000,1.296
38.4400,1.279
38.4800,1.343
38.5200,1.257
38.5600,1.335
38.6000,1.319
38.6400,1.269
38.6800,1.265
38.7200,1.293
38.7600,1.202
38.8000,1.279
38.8400,1.268
38.8800,1.261
38.9200,1.217
38.9600,1.254
39.0000,1.250
39.0400,1.232
39.0800,1.245
39.1200,1.250
39.1600,1.251
39.2000,1.253
39.2400,1.303
39.2800,1.257
39.3200,1.295
39.3600,1.303
39.4000,1.259
39.4400,1.280
39.4800,1.206
39.5200,1.223
39.5600,1.271
39.6000,1.305
39.6400,1.298
39.6800,1.344
39.7200,1.352
39.7600,1.330
39.8000,1.370
39.8400,1.434
39.8800,1.550
39.9200,1.647
39.9600,1.676
40.0000,1.896
40.0400,1.867
40.0800,1.937
40.1200,2.033
40.1600,1.913
40.2000,1.817
40.2400,1.747
40.2800,1.602
40.3200,1.571
40.3600,1.396
40.4000,1.358
40.4400,1.386
40.4800,1.318
40.5200,1.321
40.5600,1.321
40.6000,1.230
40.6400,1.182
40.6800,1.147
40.7200,1.191
40.7600,1.196
40.8000,1.187
40.8400,1.211
40.8800,1.184
40.9200,1.135
40.9600,1.173
41.0000,1.167
41.0400,1.168
41.0800,1.120
41.1200,1.158
41.1600,1.078
41.2000,1.088
41.2400,1.118
41.2800,1.203
41.3200,1.125
41.3600,1.166
41.4000,1.139
41.4400,1.095
41.4800,1.126
41.5200,1.093
41.5600,1.102
41.6000,1.117
41.6400,1.155
41.6800,1.120
41.7200,1.086
41.7600,1.155
41.8000,1.084
41.8400,1.085
41.8800,1.094
41.9200,1.096
41.9600,1.065
42.0000,1.033
42.0400,1.076
42.0800,1.024
42.1200,1.090
42.1600,1.057
42.2000,1.065
42.2400,1.098
42.2800,1.051
42.3200,1.092
42.3600,1.075
42.4000,1.103
42.4400,1.090
42.4800,1.147
42.5200,1.074
42.5600,1.024
42.6000,1.042
42.6400,1.056
42.6800,1.048
42.7200,1.073
42.7600,1.046
42.8000,1.012
42.8400,1.030
42.8800,1.076
42.9200,1.056
42.9600,1.055
43.0000,1.031
43.0400,1.004
43.0800,1.034
43.1200,1.080
43.1600,1.041
43.2000,0.981
43.2400,1.027
43.2800,1.040
43.3200,1.005
43.3600,1.018
43.4000,0.942
43.4400,1.032
43.4800,1.035
43.5200,0.988
43.5600,1.054
43.6000,1.008
43.6400,1.016
43.6800,1.035
43.7200,1.045
43.7600,1.005
43.8000,1.011
43.8400,0.981
43.8800,1.036
43.9200,1.002
43.9600,0.973
44.0000,0.979
44.0400,1.010
44.0800,1.011
44.1200,0.964
44.1600,1.070
44.2000,0.989
44.2400,0.970
44.2800,0.966
44.3200,1.006
44.3600,1.026
44.4000,0.967
44.4400,0.969
44.4800,0.951
44.5200,0.988
44.5600,0.962
44.6000,0.970
44.6400,0.967
44.6800,0.986
44.7200,0.969
44.7600,0.942
44.8000,0.989
44.8400,0.929
44.8800,0.952
44.9200,0.959
44.9600,1.008
45.0000,0.984
45.0400,0.936
45.0800,0.903
45.1200,0.897
45.1600,0.927
45.2000,0.984
45.2400,0.937
45.2800,0.946
45.3200,0.938
45.3600,0.941
45.4000,0.967
45.4400,0.932
45.4800,0.939
45.5200,0.935
45.5600,0.915
45.6000,0.924
45.6400,0.959
45.6800,0.968
45.7200,0.961
45.7600,0.882
45.8000,0.931
45.8400,0.960
45.8800,0.966
45.9200,0.885
45.9600,0.925
46.0000,0.882
46.0400,0.926
46.0800,0.946
46.1200,0.940
46.1600,0.949
46.2000,0.956
46.2400,0.975
46.2800,0.949
46.3200,0.967
46.3600,0.981
46.4000,0.998
46.4400,1.012
46.4800,1.033
46.5200,1.076
46.5600,1.171
46.6000,1.106
46.6400,1.155
46.6800,1.167
46.7200,1.120
46.7600,1.020
46.8000,1.068
46.8400,1.056
46.8800,0.997
46.9200,0.960
46.9600,0.973
47.0000,0.969
47.0400,0.923
47.0800,0.922
47.1200,0.945
47.1600,0.956
47.2000,0.881
47.2400,0.896
47.2800,0.916
47.3200,0.865
47.3600,0.883
47.4000,0.877
47.4400,0.908
47.4800,0.841
47.5200,0.866
47.5600,0.884
47.6000,0.844
47.6400,0.874
47.6800,0.838
47.7200,0.796
47.7600,0.847
47.8000,0.882
47.8400,0.851
47.8800,0.912
47.9200,0.856
47.9600,0.864
48.0000,0.829
48.0400,0.846
48.0800,0.821
48.1200,0.812
48.1600,0.893
48.2000,0.817
48.2400,0.877
48.2800,0.851
48.3200,0.839
48.3600,0.862
48.4000,0.831
48.4400,0.887
48.4800,0.837
48.5200,0.846
48.5600,0.818
48.6000,0.780
48.6400,0.829
48.6800,0.780
48.7200,0.818
48.7600,0.794
48.8000,0.793
48.8400,0.800
48.8800,0.803
48.9200,0.772
48.9600,0.771
49.0000,0.806
49.0400,0.859
49.0800,0.803
49.1200,0.817
49.1600,0.808
49.2000,0.818
49.2400,0.814
49.2800,0.825
49.3200,0.824
49.3600,0.787
49.4000,0.804
49.4400,0.800
49.4800,0.808
49.5200,0.790
49.5600,0.822
49.6000,0.776
49.6400,0.831
49.6800,0.751
49.7200,0.749
49.7600,0.751
49.8000,0.751
49.8400,0.796
49.8800,0.787
49.9200,0.783
49.9600,0.740
50.0000,0.812
50.0400,0.800
50.0800,0.745
50.1200,0.741
50.1600,0.785
50.2000,0.756
50.2400,0.783
50.2800,0.777
50.3200,0.732
50.3600,0.810
50.4000,0.745
50.4400,0.768
50.4800,0.762
50.5200,0.761
50.5600,0.738
50.6000,0.745
50.6400,0.732
50.6800,0.763
50.7200,0.762
50.7600,0.724
50.8000,0.739
50.8400,0.708
50.8800,0.754
50.9200,0.779
50.9600,0.752
51.0000,0.731
51.0400,0.699
51.0800,0.727
51.1200,0.774
51.1600,0.793
51.2000,0.725
51.2400,0.739
51.2800,0.755
51.3200,0.806
51.3600,0.709
51.4000,0.790
51.4400,0.741
51.4800,0.778
51.5200,0.733
51.5600,0.748
51.6000,0.708
51.6400,0.729
51.6800,0.764
51.7200,0.724
51.7600,0.700
51.8000,0.740
51.8400,0.725
51.8800,0.723
51.9200,0.725
51.9600,0.729
52.0000,0.733
52.0400,0.690
52.0800,0.692
52.1200,0.668
52.1600,0.739
52.2000,0.733
52.2400,0.676
52.2800,0.713
52.3200,0.721
52.3600,0.729
52.4000,0.694
52.4400,0.726
52.4800,0.714
52.5200,0.713
52.5600,0.740
52.6000,0.734
52.6400,0.709
52.6800,0.686
52.7200,0.707
52.7600,0.692
52.8000,0.702
52.8400,0.678
52.8800,0.717
52.9200,0.689
52.9600,0.675
53.0000,0.700
53.0400,0.687
53.0800,0.694
53.1200,0.699
53.1600,0.696
53.2000,0.668
53.2400,0.686
53.2800,0.731
53.3200,0.685
53.3600,0.674
53.4000,0.714
53.4400,0.721
53.4800,0.665
53.5200,0.688
53.5600,0.712
53.6000,0.701
53.6400,0.675
53.6800,0.664
53.7200,0.654
53.7600,0.716
53.8000,0.699
53.8400,0.699
53.8800,0.654
53.9200,0.676
53.9600,0.655
54.0000,0.675
54.0400,0.684
54.0800,0.689
54.1200,0.670
54.1600,0.710
54.2000,0.683
54.2400,0.645
54.2800,0.670
54.3200,0.711
54.3600,0.662
54.4000,0.646
54.4400,0.671
54.4800,0.678
54.5200,0.663
54.5600,0.647
54.6000,0.683
54.6400,0.639
54.6800,0.650
54.7200,0.657
54.7600,0.655
54.8000,0.659
54.8400,0.702
54.8800,0.616
54.9200,0.644
54.9600,0.649
55.0000,0.594
55.0400,0.670
55.0800,0.660
55.1200,0.633
55.1600,0.637
55.2000,0.650
55.2400,0.640
55.2800,0.673
55.3200,0.637
55.3600,0.681
55.4000,0.641
55.4400,0.618
55.4800,0.611
55.5200,0.620
55.5600,0.616
55.6000,0.622
55.6400,0.606
55.6800,0.645
55.7200,0.650
55.7600,0.630
55.8000,0.665
55.8400,0.632
55.8800,0.619
55.9200,0.631
55.9600,0.658
56.0000,0.644
56.0400,0.606
56.0800,0.639
56.1200,0.649
56.1600,0.631
56.2000,0.637
56.2400,0.606
56.2800,0.646
56.3200,0.651
56.3600,0.663
56.4000,0.656
56.4400,0.626
56.4800,0.606
56.5200,0.622
56.5600,0.636
56.6000,0.669
56.6400,0.560
56.6800,0.593
56.7200,0.613
56.7600,0.591
56.8000,0.600
56.8400,0.592
56.8800,0.630
56.9200,0.612
56.9600,0.626
57.0000,0.602
57.0400,0.616
57.0800,0.602
57.1200,0.647
57.1600,0.594
57.2000,0.627
57.2400,0.612
57.2800,0.654
57.3200,0.600
57.3600,0.593
57.4000,0.619
57.4400,0.561
57.4800,0.636
57.5200,0.589
57.5600,0.661
57.6000,0.599
57.6400,0.647
57.6800,0.599
57.7200,0.628
57.7600,0.597
57.8000,0.624
57.8400,0.629
57.8800,0.665
57.9200,0.604
57.9600,0.599
58.0000,0.600
58.0400,0.566
58.0800,0.609
58.1200,0.631
58.1600,0.616
58.2000,0.602
58.2400,0.587
58.2800,0.578
58.3200,0.609
58.3600,0.593
58.4000,0.602
58.4400,0.583
58.4800,0.599
58.5200,0.658
58.5600,0.608
58.6000,0.607
58.6400,0.575
58.6800,0.615
58.7200,0.588
58.7600,0.580
58.8000,0.603
58.8400,0.582
58.8800,0.636
58.9200,0.618
58.9600,0.565
59.0000,0.585
59.0400,0.593
59.0800,0.607
59.1200,0.581
59.1600,0.576
59.2000,0.569
59.2400,0.627
59.2800,0.572
59.3200,0.571
59.3600,0.581
59.4000,0.590
59.4400,0.570
59.4800,0.593
59.5200,0.575
59.5600,0.572
59.6000,0.575
59.6400,0.579
59.6800,0.577
59.7200,0.577
59.7600,0.559
59.8000,0.591
59.8400,0.533
59.8800,0.544
59.9200,0.560
59.9600,0.552
60.0000,0.560
60.0400,0.598
60.0800,0.606
60.1200,0.559
60.1600,0.554
60.2000,0.557
60.2400,0.571
60.2800,0.558
60.3200,0.520
60.3600,0.533
60.4000,0.581
60.4400,0.544
60.4800,0.588
60.5200,0.547
60.5600,0.563
60.6000,0.535
60.6400,0.511
60.6800,0.545
60.7200,0.559
60.7600,0.578
60.8000,0.565
60.8400,0.560
60.8800,0.510
60.9200,0.538
60.9600,0.571
61.0000,0.554
61.0400,0.525
61.0800,0.566
61.1200,0.523
61.1600,0.570
61.2000,0.571
61.2400,0.553
61.2800,0.555
61.3200,0.561
61.3600,0.569
61.4000,0.514
61.4400,0.482
61.4800,0.558
61.5200,0.538
61.5600,0.514
61.6000,0.569
61.6400,0.655
61.6800,0.680
61.7200,0.579
61.7600,0.546
61.8000,0.534
61.8400,0.563
61.8800,0.526
61.9200,0.559
61.9600,0.563
62.0000,0.583
62.0400,0.484
62.0800,0.503
62.1200,0.531
62.1600,0.532
62.2000,0.524
62.2400,0.526
62.2800,0.514
62.3200,0.554
62.3600,0.534
62.4000,0.538
62.4400,0.566
62.4800,0.562
62.5200,0.539
62.5600,0.551
62.6000,0.511
62.6400,0.523
62.6800,0.525
62.7200,0.520
62.7600,0.542
62.8000,0.550
62.8400,0.528
62.8800,0.495
62.9200,0.502
62.9600,0.507
63.0000,0.501
63.0400,0.524
63.0800,0.515
63.1200,0.555
63.1600,0.539
63.2000,0.590
63.2400,0.524
63.2800,0.561
63.3200,0.513
63.3600,0.508
63.4000,0.515
63.4400,0.533
63.4800,0.595
63.5200,0.554
63.5600,0.499
63.6000,0.584
63.6400,0.552
63.6800,0.537
63.7200,0.575
63.7600,0.480
63.8000,0.571
63.8400,0.555
63.8800,0.569
63.9200,0.546
63.9600,0.542
64.0000,0.555
64.0400,0.562
64.0800,0.547
64.1200,0.589
64.1600,0.593
64.2000,0.573
64.2400,0.570
64.2800,0.601
64.3200,0.592
64.3600,0.576
64.4000,0.577
64.4400,0.569
64.4800,0.602
64.5200,0.573
64.5600,0.613
64.6000,0.571
64.6400,0.574
64.6800,0.597
64.7200,0.558
64.7600,0.618
64.8000,0.608
64.8400,0.597
64.8800,0.595
64.9200,0.634
64.9600,0.646
65.0000,0.637
65.0400,0.647
65.0800,0.640
65.1200,0.637
65.1600,0.632
65.2000,0.640
65.2400,0.642
65.2800,0.626
65.3200,0.671
65.3600,0.638
65.4000,0.645
65.4400,0.633
65.4800,0.683
65.5200,0.647
65.5600,0.704
65.6000,0.691
65.6400,0.700
65.6800,0.704
65.7200,0.704
65.7600,0.733
65.8000,0.760
65.8400,0.741
65.8800,0.714
65.9200,0.753
65.9600,0.774
66.0000,0.767
66.0400,0.771
66.0800,0.768
66.1200,0.745
66.1600,0.799
66.2000,0.816
66.2400,0.833
66.2800,0.791
66.3200,0.842
66.3600,0.898
66.4000,0.881
66.4400,0.831
66.4800,0.850
66.5200,0.873
66.5600,0.927
66.6000,0.890
66.6400,0.903
66.6800,0.919
66.7200,0.887
66.7600,0.970
66.8000,0.987
66.8400,0.964
66.8800,1.042
66.9200,1.073
66.9600,1.084
67.0000,1.027
67.0400,1.074
67.0800,1.094
67.1200,1.170
67.1600,1.169
67.2000,1.149
67.2400,1.185
67.2800,1.231
67.3200,1.236
67.3600,1.237
67.4000,1.324
67.4400,1.308
67.4800,1.358
67.5200,1.362
67.5600,1.341
67.6000,1.417
67.6400,1.481
67.6800,1.565
67.7200,1.545
67.7600,1.610
67.8000,1.579
67.8400,1.662
67.8800,1.671
67.9200,1.835
67.9600,1.757
68.0000,1.853
68.0400,1.944
68.0800,2.001
68.1200,2.075
68.1600,2.118
68.2000,2.091
68.2400,2.228
68.2800,2.293
68.3200,2.397
68.3600,2.424
68.4000,2.540
68.4400,2.615
68.4800,2.811
68.5200,2.897
68.5600,3.092
68.6000,3.353
68.6400,3.624
68.6800,4.089
68.7200,5.086
68.7600,6.638
68.8000,8.087
68.8400,8.638
68.8800,8.579
68.9200,9.104
68.9600,11.837
69.0000,17.861
69.0400,34.643
69.0800,137.953
69.1200,513.557
69.1600,552.082
69.2000,185.984
69.2400,56.217
69.2800,98.012
69.3200,275.614
69.3600,274.128
69.4000,91.472
69.4400,25.105
69.4800,13.250
69.5200,9.681
69.5600,7.722
69.6000,6.546
69.6400,5.583
69.6800,4.901
69.7200,4.412
69.7600,3.936
69.8000,3.811
69.8400,3.605
69.8800,3.262
69.9200,3.081
69.9600,2.801
70.0000,2.843
70.0400,2.791
70.0800,2.636
70.1200,2.445
70.1600,2.364
70.2000,2.297
70.2400,2.274
70.2800,2.112
70.3200,2.044
70.3600,1.982
70.4000,2.013
70.4400,1.897
70.4800,1.882
70.5200,1.769
70.5600,1.677
70.6000,1.682
70.6400,1.573
70.6800,1.581
70.7200,1.485
70.7600,1.521
70.8000,1.386
70.8400,1.403
70.8800,1.379
70.9200,1.381
70.9600,1.350
71.0000,1.244
71.0400,1.223
71.0800,1.181
71.1200,1.198
71.1600,1.115
71.2000,1.151
71.2400,1.121
71.2800,1.113
71.3200,1.037
71.3600,0.993
71.4000,1.019
71.4400,1.013
71.4800,0.975
71.5200,0.924
71.5600,0.936
71.6000,0.884
71.6400,0.873
71.6800,0.832
71.7200,0.868
71.7600,0.861
71.8000,0.827
71.8400,0.774
71.8800,0.800
71.9200,0.786
71.9600,0.765
72.0000,0.800
72.0400,0.753
72.0800,0.748
72.1200,0.728
72.1600,0.689
72.2000,0.670
72.2400,0.654
72.2800,0.696
72.3200,0.681
72.3600,0.663
72.4000,0.648
72.4400,0.663
72.4800,0.582
72.5200,0.628
72.5600,0.627
72.6000,0.582
72.6400,0.586
72.6800,0.563
72.7200,0.618
72.7600,0.580
72.8000,0.556
72.8400,0.595
72.8800,0.586
72.9200,0.562
72.9600,0.566
73.0000,0.525
73.0400,0.536
73.0800,0.624
73.1200,0.535
73.1600,0.539
73.2000,0.502
73.2400,0.498
73.2800,0.504
73.3200,0.527
73.3600,0.510
73.4000,0.496
73.4400,0.483
73.4800,0.482
73.5200,0.477
73.5600,0.485
73.6000,0.441
73.6400,0.474
73.6800,0.480
73.7200,0.463
73.7600,0.459
73.8000,0.433
73.8400,0.461
73.8800,0.450
73.9200,0.400
73.9600,0.440
74.0000,0.450
74.0400,0.446
74.0800,0.448
74.1200,0.453
74.1600,0.430
74.2000,0.432
74.2400,0.405
74.2800,0.430
74.3200,0.415
74.3600,0.442
74.4000,0.414
74.4400,0.426
74.4800,0.396
74.5200,0.411
74.5600,0.414
74.6000,0.387
74.6400,0.374
74.6800,0.412
74.7200,0.423
74.7600,0.398
74.8000,0.403
74.8400,0.367
74.8800,0.387
74.9200,0.375
74.9600,0.370
75.0000,0.368
75.0400,0.409
75.0800,0.396
75.1200,0.392
75.1600,0.342
75.2000,0.367
75.2400,0.380
75.2800,0.379
75.3200,0.380
75.3600,0.347
75.4000,0.346
75.4400,0.318
75.4800,0.352
75.5200,0.364
75.5600,0.372
75.6000,0.364
75.6400,0.348
75.6800,0.350
75.7200,0.346
75.7600,0.363
75.8000,0.330
75.8400,0.359
75.8800,0.350
75.9200,0.360
75.9600,0.319
76.0000,0.331
76.0400,0.339
76.0800,0.329
76.1200,0.350
76.1600,0.327
76.2000,0.303
76.2400,0.360
76.2800,0.335
76.3200,0.322
76.3600,0.350
76.4000,0.333
76.4400,0.321
76.4800,0.349
76.5200,0.341
76.5600,0.299
76.6000,0.310
76.6400,0.340
76.6800,0.369
76.7200,0.330
76.7600,0.296
76.8000,0.311
76.8400,0.319
76.8800,0.334
76.9200,0.350
76.9600,0.331
77.0000,0.337
77.0400,0.324
77.0800,0.353
77.1200,0.319
77.1600,0.328
77.2000,0.308
77.2400,0.302
77.2800,0.316
77.3200,0.307
77.3600,0.315
77.4000,0.295
77.4400,0.300
77.4800,0.344
77.5200,0.322
77.5600,0.338
77.6000,0.306
77.6400,0.296
77.6800,0.315
77.7200,0.310
77.7600,0.306
77.8000,0.307
77.8400,0.338
77.8800,0.295
77.9200,0.298
77.9600,0.326
78.0000,0.309
78.0400,0.325
78.0800,0.322
78.1200,0.325
78.1600,0.300
78.2000,0.295
78.2400,0.303
78.2800,0.313
78.3200,0.316
78.3600,0.277
78.4000,0.322
78.4400,0.323
78.4800,0.267
78.5200,0.288
78.5600,0.320
78.6000,0.269
78.6400,0.288
78.6800,0.337
78.7200,0.306
78.7600,0.299
78.8000,0.280
78.8400,0.287
78.8800,0.262
78.9200,0.302
78.9600,0.312
79.0000,0.306
79.0400,0.293
79.0800,0.295
79.1200,0.295
79.1600,0.314
79.2000,0.296
79.2400,0.308
79.2800,0.276
79.3200,0.293
79.3600,0.273
79.4000,0.295
79.4400,0.274
79.4800,0.278
79.5200,0.324
79.5600,0.291
79.6000,0.290
79.6400,0.295
79.6800,0.275
79.7200,0.278
79.7600,0.273
79.8000,0.277
79.8400,0.289
79.8800,0.263
79.9200,0.284
79.9600,0.282
80.0000,0.277
