theta,intensity
5.0000,6.484
5.0400,6.405
5.0800,6.292
5.1200,6.071
5.1600,5.998
5.2000,6.027
5.2400,5.831
5.2800,5.708
5.3200,5.663
5.3600,5.485
5.4000,5.349
5.4400,5.293
5.4800,5.363
5.5200,5.266
5.5600,5.064
5.6000,4.924
5.6400,5.003
5.6800,4.909
5.7200,4.658
5.7600,4.583
5.8000,4.714
5.8400,4.589
5.8800,4.512
5.9200,4.511
5.9600,4.451
6.0000,4.414
6.0400,4.419
6.0800,4.356
6.1200,4.268
6.1600,4.357
6.2000,4.328
6.2400,4.338
6.2800,4.197
6.3200,4.280
6.3600,4.252
6.4000,4.347
6.4400,4.219
6.4800,4.375
6.5200,4.186
6.5600,4.193
6.6000,4.231
6.6400,4.178
6.6800,4.276
6.7200,4.194
6.7600,4.250
6.8000,4.228
6.8400,4.201
6.8800,4.252
6.9200,4.143
6.9600,4.190
7.0000,4.260
7.0400,4.243
7.0800,4.105
7.1200,4.151
7.1600,4.119
7.2000,4.115
7.2400,4.110
7.2800,4.043
7.3200,4.130
7.3600,4.056
7.4000,4.088
7.4400,4.140
7.4800,4.060
7.5200,3.969
7.5600,4.033
7.6000,4.053
7.6400,3.993
7.6800,4.042
7.7200,3.905
7.7600,4.028
7.8000,3.899
7.8400,4.062
7.8800,4.069
7.9200,3.993
7.9600,3.985
8.0000,3.959
8.0400,4.024
8.0800,3.827
8.1200,4.069
8.1600,3.999
8.2000,3.926
8.2400,3.941
8.2800,3.851
8.3200,3.856
8.3600,3.969
8.4000,3.976
8.4400,3.928
8.4800,3.969
8.5200,4.000
8.5600,3.893
8.6000,3.863
8.6400,3.758
8.6800,3.893
8.7200,3.946
8.7600,3.830
8.8000,3.921
8.8400,3.800
8.8800,3.948
8.9200,3.806
8.9600,3.744
9.0000,4.003
9.0400,3.860
9.0800,3.863
9.1200,3.849
9.1600,3.934
9.2000,3.828
9.2400,3.846
9.2800,3.768
9.3200,3.786
9.3600,3.856
9.4000,3.776
9.4400,3.741
9.4800,3.683
9.5200,3.708
9.5600,3.828
9.6000,3.866
9.6400,3.737
9.6800,3.745
9.7200,3.747
9.7600,3.772
9.8000,3.726
9.8400,3.873
9.8800,3.743
9.9200,3.829
9.9600,3.769
10.0000,3.784
10.0400,3.696
10.0800,3.747
10.1200,3.772
10.1600,3.767
10.2000,3.719
10.2400,3.707
10.2800,3.744
10.3200,3.682
10.3600,3.684
10.4000,3.654
10.4400,3.668
10.4800,3.604
10.5200,3.704
10.5600,3.759
10.6000,3.601
10.6400,3.656
10.6800,3.664
10.7200,3.659
10.7600,3.688
10.8000,3.701
10.8400,3.593
10.8800,3.693
10.9200,3.537
10.9600,3.638
11.0000,3.506
11.0400,3.599
11.0800,3.639
11.1200,3.596
11.1600,3.611
11.2000,3.609
11.2400,3.536
11.2800,3.570
11.3200,3.465
11.3600,3.624
11.4000,3.588
11.4400,3.609
11.4800,3.582
11.5200,3.527
11.5600,3.502
11.6000,3.562
11.6400,3.593
11.6800,3.553
11.7200,3.579
11.7600,3.513
11.8000,3.599
11.8400,3.422
11.8800,3.500
11.9200,3.593
11.9600,3.538
12.0000,3.571
12.0400,3.427
12.0800,3.462
12.1200,3.516
12.1600,3.588
12.2000,3.484
12.2400,3.464
12.2800,3.526
12.3200,3.542
12.3600,3.519
12.4000,3.482
12.4400,3.455
12.4800,3.461
12.5200,3.454
12.5600,3.449
12.6000,3.605
12.6400,3.435
12.6800,3.478
12.7200,3.425
12.7600,3.416
12.8000,3.359
12.8400,3.357
12.8800,3.402
12.9200,3.316
12.9600,3.318
13.0000,3.431
13.0400,3.488
13.0800,3.352
13.1200,3.310
13.1600,3.352
13.2000,3.381
13.2400,3.390
13.2800,3.410
13.3200,3.348
13.3600,3.323
13.4000,3.267
13.4400,3.407
13.4800,3.370
13.5200,3.396
13.5600,3.383
13.6000,3.164
13.6400,3.325
13.6800,3.302
13.7200,3.349
13.7600,3.374
13.8000,3.315
13.8400,3.212
13.8800,3.284
13.9200,3.351
13.9600,3.274
14.0000,3.352
14.0400,3.244
14.0800,3.301
14.1200,3.321
14.1600,3.339
14.2000,3.200
14.2400,3.328
14.2800,3.298
14.3200,3.224
14.3600,3.176
14.4000,3.207
14.4400,3.245
14.4800,3.246
14.5200,3.194
14.5600,3.167
14.6000,3.355
14.6400,3.312
14.6800,3.220
14.7200,3.300
14.7600,3.226
14.8000,3.180
14.8400,3.239
14.8800,3.223
14.9200,3.239
14.9600,3.179
15.0000,3.293
15.0400,3.201
15.0800,3.126
15.1200,3.103
15.1600,3.156
15.2000,3.210
15.2400,3.213
15.2800,3.088
15.3200,3.222
15.3600,3.152
15.4000,3.247
15.4400,3.179
15.4800,3.168
15.5200,3.193
15.5600,3.238
15.6000,2.992
15.6400,3.187
15.6800,3.105
15.7200,3.092
15.7600,3.170
15.8000,3.117
15.8400,3.198
15.8800,3.159
15.9200,3.064
15.9600,3.153
16.0000,3.057
16.0400,3.133
16.0800,3.067
16.1200,3.135
16.1600,3.061
16.2000,3.109
16.2400,3.227
16.2800,3.093
16.3200,3.085
16.3600,3.017
16.4000,2.962
16.4400,2.900
16.4800,3.099
16.5200,2.978
16.5600,3.092
16.6000,2.979
16.6400,3.087
16.6800,3.035
16.7200,3.133
16.7600,3.050
16.8000,3.025
16.8400,3.113
16.8800,3.130
16.9200,3.099
16.9600,3.101
17.0000,3.071
17.0400,2.995
17.0800,2.994
17.1200,3.093
17.1600,2.992
17.2000,3.053
17.2400,2.966
17.2800,2.929
17.3200,2.941
17.3600,2.969
17.4000,3.012
17.4400,2.845
17.4800,2.959
17.5200,2.988
17.5600,2.921
17.6000,3.071
17.6400,2.918
17.6800,2.958
17.7200,3.012
17.7600,2.971
17.8000,2.957
17.8400,2.963
17.8800,2.948
17.9200,2.942
17.9600,2.963
18.0000,2.870
18.0400,2.844
18.0800,2.947
18.1200,2.964
18.1600,2.924
18.2000,2.832
18.2400,2.827
18.2800,2.848
18.3200,2.944
18.3600,2.850
18.4000,2.922
18.4400,2.793
18.4800,2.854
18.5200,2.908
18.5600,2.907
18.6000,2.854
18.6400,2.851
18.6800,2.792
18.7200,2.882
18.7600,2.882
18.8000,2.834
18.8400,2.781
18.8800,2.836
18.9200,2.829
18.9600,2.832
19.0000,2.773
19.0400,2.777
19.0800,2.790
19.1200,2.869
19.1600,2.806
19.2000,2.810
19.2400,2.733
19.2800,2.777
19.3200,2.733
19.3600,2.771
19.4000,2.690
19.4400,2.803
19.4800,2.699
19.5200,2.773
19.5600,2.781
19.6000,2.749
19.6400,2.721
19.6800,2.722
19.7200,2.819
19.7600,2.726
19.8000,2.723
19.8400,2.681
19.8800,2.812
19.9200,2.685
19.9600,2.900
20.0000,2.740
20.0400,2.721
20.0800,2.783
20.1200,2.622
20.1600,2.662
20.2000,2.656
20.2400,2.676
20.2800,2.755
20.3200,2.632
20.3600,2.635
20.4000,2.590
20.4400,2.650
20.4800,2.766
20.5200,2.712
20.5600,2.663
20.6000,2.655
20.6400,2.658
20.6800,2.529
20.7200,2.601
20.7600,2.631
20.8000,2.634
20.8400,2.694
20.8800,2.725
20.9200,2.634
20.9600,2.575
21.0000,2.566
21.0400,2.654
21.0800,2.622
21.1200,2.580
21.1600,2.470
21.2000,2.565
21.2400,2.625
21.2800,2.535
21.3200,2.637
21.3600,2.580
21.4000,2.666
21.4400,2.501
21.4800,2.595
21.5200,2.594
21.5600,2.656
21.6000,2.591
21.6400,2.533
21.6800,2.514
21.7200,2.628
21.7600,2.526
21.8000,2.446
21.8400,2.566
21.8800,2.493
21.9200,2.492
21.9600,2.517
22.0000,2.531
22.0400,2.680
22.0800,2.473
22.1200,2.503
22.1600,2.529
22.2000,2.546
22.2400,2.501
22.2800,2.589
22.3200,2.509
22.3600,2.418
22.4000,2.562
22.4400,2.495
22.4800,2.451
22.5200,2.482
22.5600,2.491
22.6000,2.462
22.6400,2.482
22.6800,2.521
22.7200,2.479
22.7600,2.452
22.8000,2.423
22.8400,2.469
22.8800,2.487
22.9200,2.457
22.9600,2.505
23.0000,2.472
23.0400,2.506
23.0800,2.524
23.1200,2.402
23.1600,2.480
23.2000,2.434
23.2400,2.453
23.2800,2.361
23.3200,2.466
23.3600,2.410
23.4000,2.526
23.4400,2.422
23.4800,2.433
23.5200,2.376
23.5600,2.366
23.6000,2.370
23.6400,2.370
23.6800,2.303
23.7200,2.397
23.7600,2.402
23.8000,2.364
23.8400,2.260
23.8800,2.383
23.9200,2.398
23.9600,2.354
24.0000,2.424
24.0400,2.375
24.0800,2.317
24.1200,2.373
24.1600,2.294
24.2000,2.397
24.2400,2.385
24.2800,2.349
24.3200,2.380
24.3600,2.342
24.4000,2.273
24.4400,2.312
24.4800,2.281
24.5200,2.308
24.5600,2.325
24.6000,2.302
24.6400,2.351
24.6800,2.328
24.7200,2.327
24.7600,2.317
24.8000,2.323
24.8400,2.275
24.8800,2.252
24.9200,2.241
24.9600,2.292
25.0000,2.305
25.0400,2.278
25.0800,2.293
25.1200,2.206
25.1600,2.254
25.2000,2.209
25.2400,2.300
25.2800,2.298
25.3200,2.294
25.3600,2.225
25.4000,2.181
25.4400,2.298
25.4800,2.225
25.5200,2.221
25.5600,2.204
25.6000,2.189
25.6400,2.202
25.6800,2.204
25.7200,2.275
25.7600,2.319
25.8000,2.188
25.8400,2.268
25.8800,2.160
25.9200,2.187
25.9600,2.246
26.0000,2.198
26.0400,2.229
26.0800,2.235
26.1200,2.290
26.1600,2.177
26.2000,2.143
26.2400,2.199
26.2800,2.222
26.3200,2.227
26.3600,2.175
26.4000,2.273
26.4400,2.300
26.4800,2.337
26.5200,2.248
26.5600,2.210
26.6000,2.361
26.6400,2.297
26.6800,2.282
26.7200,2.238
26.7600,2.357
26.8000,2.268
26.8400,2.229
26.8800,2.284
26.9200,2.240
26.9600,2.271
27.0000,2.179
27.0400,2.190
27.0800,2.224
27.1200,2.148
27.1600,2.197
27.2000,2.173
27.2400,2.085
27.2800,2.144
27.3200,2.174
27.3600,2.169
27.4000,2.099
27.4400,2.125
27.4800,2.049
27.5200,2.133
27.5600,2.123
27.6000,2.061
27.6400,2.076
27.6800,2.003
27.7200,2.152
27.7600,2.083
27.8000,2.071
27.8400,2.061
27.8800,2.019
27.9200,1.997
27.9600,2.127
28.0000,2.085
28.0400,2.034
28.0800,2.062
28.1200,2.118
28.1600,2.031
28.2000,1.999
28.2400,2.025
28.2800,1.989
28.3200,2.017
28.3600,1.998
28.4000,2.023
28.4400,2.019
28.4800,2.039
28.5200,1.966
28.5600,1.968
28.6000,1.956
28.6400,1.921
28.6800,2.007
28.7200,2.074
28.7600,1.981
28.8000,1.986
28.8400,2.004
28.8800,2.029
28.9200,1.968
28.9600,1.956
29.0000,2.084
29.0400,1.982
29.0800,1.948
29.1200,1.963
29.1600,1.921
29.2000,1.890
29.2400,1.944
29.2800,1.979
29.3200,1.987
29.3600,1.918
29.4000,1.854
29.4400,1.915
29.4800,1.964
29.5200,1.931
29.5600,1.880
29.6000,1.909
29.6400,1.939
29.6800,1.933
29.7200,1.883
29.7600,1.921
29.8000,2.001
29.8400,1.874
29.8800,1.847
29.9200,1.968
29.9600,1.971
30.0000,1.843
30.0400,1.899
30.0800,1.913
30.1200,1.908
30.1600,1.938
30.2000,1.924
30.2400,1.998
30.2800,1.880
30.3200,1.923
30.3600,1.922
30.4000,2.024
30.4400,1.976
30.4800,1.915
30.5200,2.039
30.5600,2.024
30.6000,2.023
30.6400,2.075
30.6800,2.101
30.7200,2.116
30.7600,2.204
30.8000,2.236
30.8400,2.178
30.8800,2.309
30.9200,2.118
30.9600,2.133
31.0000,2.139
31.0400,2.030
31.0800,2.074
31.1200,2.092
31.1600,1.928
31.2000,2.007
31.2400,2.056
31.2800,2.110
31.3200,2.039
31.3600,2.062
31.4000,2.107
31.4400,2.074
31.4800,2.103
31.5200,2.147
31.5600,2.154
31.6000,2.212
31.6400,2.235
31.6800,2.242
31.7200,2.302
31.7600,2.282
31.8000,2.220
31.8400,2.250
31.8800,2.275
31.9200,2.154
31.9600,2.202
32.0000,2.227
32.0400,2.255
32.0800,2.134
32.1200,2.121
32.1600,2.120
32.2000,2.206
32.2400,2.081
32.2800,1.955
32.3200,2.044
32.3600,1.988
32.4000,1.996
32.4400,1.936
32.4800,1.953
32.5200,1.989
32.5600,1.876
32.6000,1.812
32.6400,1.821
32.6800,1.832
32.7200,1.831
32.7600,1.899
32.8000,1.797
32.8400,1.817
32.8800,1.734
32.9200,1.756
32.9600,1.910
33.0000,2.057
33.0400,1.936
33.0800,1.826
33.1200,1.846
33.1600,1.771
33.2000,1.696
33.2400,1.741
33.2800,1.736
33.3200,1.739
33.3600,1.743
33.4000,1.722
33.4400,1.768
33.4800,1.793
33.5200,1.774
33.5600,1.773
33.6000,1.846
33.6400,1.789
33.6800,1.804
33.7200,1.713
33.7600,1.777
33.8000,1.688
33.8400,1.806
33.8800,1.836
33.9200,1.836
33.9600,1.915
34.0000,1.808
34.0400,1.938
34.0800,1.858
34.1200,1.936
34.1600,1.953
34.2000,1.885
34.2400,1.879
34.2800,2.032
34.3200,1.921
34.3600,1.960
34.4000,1.988
34.4400,2.004
34.4800,1.963
34.5200,1.919
34.5600,1.897
34.6000,1.910
34.6400,1.840
34.6800,1.930
34.7200,1.888
34.7600,1.857
34.8000,1.857
34.8400,1.813
34.8800,1.798
34.9200,1.788
34.9600,1.862
35.0000,1.802
35.0400,1.745
35.0800,1.702
35.1200,1.707
35.1600,1.762
35.2000,1.721
35.2400,1.772
35.2800,1.752
35.3200,1.813
35.3600,1.797
35.4000,1.786
35.4400,1.814
35.4800,1.772
35.5200,1.790
35.5600,1.759
35.6000,1.887
35.6400,1.807
35.6800,1.848
35.7200,1.914
35.7600,1.875
35.8000,1.968
35.8400,1.946
35.8800,1.967
35.9200,1.934
35.9600,2.066
36.0000,1.984
36.0400,2.085
36.0800,2.039
36.1200,2.144
36.1600,2.068
36.2000,2.134
36.2400,2.079
36.2800,2.059
36.3200,1.997
36.3600,2.066
36.4000,2.074
36.4400,2.039
36.4800,2.033
36.5200,2.002
36.5600,1.991
36.6000,1.897
36.6400,1.938
36.6800,1.904
36.7200,1.857
36.7600,1.831
36.8000,1.773
36.8400,1.745
36.8800,1.694
36.9200,1.688
36.9600,1.698
37.0000,1.693
37.0400,1.717
37.0800,1.584
37.1200,1.594
37.1600,1.643
37.2000,1.548
37.2400,1.548
37.2800,1.552
37.3200,1.455
37.3600,1.500
37.4000,1.560
37.4400,1.489
37.4800,1.455
37.5200,1.489
37.5600,1.446
37.6000,1.474
37.6400,1.464
37.6800,1.460
37.7200,1.455
37.7600,1.416
37.8000,1.402
37.8400,1.403
37.8800,1.414
37.9200,1.394
37.9600,1.419
38.0000,1.397
38.0400,1.366
38.0800,1.358
38.1200,1.397
38.1600,1.362
38.2000,1.389
38.2400,1.355
38.2800,1.420
38.3200,1.294
38.3600,1.367
38.4000,1.392
38.4400,1.371
38.4800,1.363
38.5200,1.352
38.5600,1.315
38.6000,1.335
38.6400,1.352
38.6800,1.338
38.7200,1.317
38.7600,1.284
38.8000,1.309
38.8400,1.352
38.8800,1.397
38.9200,1.338
38.9600,1.373
39.0000,1.338
39.0400,1.377
39.0800,1.405
39.1200,1.377
39.1600,1.351
39.2000,1.397
39.2400,1.302
39.2800,1.368
39.3200,1.417
39.3600,1.334
39.4000,1.326
39.4400,1.340
39.4800,1.347
39.5200,1.326
39.5600,1.330
39.6000,1.280
39.6400,1.326
39.6800,1.403
39.7200,1.387
39.7600,1.362
39.8000,1.304
39.8400,1.446
39.8800,1.323
39.9200,1.398
39.9600,1.433
40.0000,1.417
40.0400,1.419
40.0800,1.446
40.1200,1.451
40.1600,1.469
40.2000,1.492
40.2400,1.480
40.2800,1.506
40.3200,1.495
40.3600,1.460
40.4000,1.455
40.4400,1.537
40.4800,1.535
40.5200,1.472
40.5600,1.477
40.6000,1.633
40.6400,1.698
40.6800,1.721
40.7200,1.735
40.7600,1.790
40.8000,1.867
40.8400,2.016
40.8800,2.165
40.9200,2.409
40.9600,2.649
41.0000,2.835
41.0400,3.274
41.0800,3.617
41.1200,4.105
41.1600,4.508
41.2000,5.035
41.2400,5.278
41.2800,5.297
41.3200,4.997
41.3600,4.762
41.4000,4.321
41.4400,3.885
41.4800,3.410
41.5200,3.044
41.5600,2.836
41.6000,2.571
41.6400,2.332
41.6800,2.120
41.7200,2.073
41.7600,1.971
41.8000,1.937
41.8400,1.887
41.8800,1.791
41.9200,1.676
41.9600,1.664
42.0000,1.645
42.0400,1.646
42.0800,1.612
42.1200,1.563
42.1600,1.549
42.2000,1.522
42.2400,1.398
42.2800,1.542
42.3200,1.445
42.3600,1.435
42.4000,1.408
42.4400,1.422
42.4800,1.388
42.5200,1.379
42.5600,1.435
42.6000,1.385
42.6400,1.408
42.6800,1.423
42.7200,1.349
42.7600,1.343
42.8000,1.397
42.8400,1.343
42.8800,1.301
42.9200,1.358
42.9600,1.377
43.0000,1.342
43.0400,1.359
43.0800,1.315
43.1200,1.327
43.1600,1.259
43.2000,1.354
43.2400,1.321
43.2800,1.371
43.3200,1.324
43.3600,1.337
43.4000,1.401
43.4400,1.378
43.4800,1.347
43.5200,1.386
43.5600,1.464
43.6000,1.418
43.6400,1.461
43.6800,1.433
43.7200,1.493
43.7600,1.573
43.8000,1.594
43.8400,1.643
43.8800,1.691
43.9200,1.775
43.9600,1.844
44.0000,1.963
44.0400,2.029
44.0800,2.139
44.1200,2.228
44.1600,2.229
44.2000,2.272
44.2400,2.365
44.2800,2.237
44.3200,2.046
44.3600,1.812
44.4000,1.759
44.4400,1.662
44.4800,1.509
44.5200,1.449
44.5600,1.411
44.6000,1.312
44.6400,1.212
44.6800,1.254
44.7200,1.234
44.7600,1.178
44.8000,1.166
44.8400,1.132
44.8800,1.137
44.9200,1.096
44.9600,1.104
45.0000,1.087
45.0400,1.103
45.0800,1.055
45.1200,1.083
45.1600,1.076
45.2000,1.056
45.2400,0.998
45.2800,1.065
45.3200,1.056
45.3600,1.010
45.4000,1.023
45.4400,0.975
45.4800,0.957
45.5200,1.003
45.5600,0.993
45.6000,0.936
45.6400,0.962
45.6800,0.959
45.7200,0.976
45.7600,0.946
45.8000,0.970
45.8400,0.990
45.8800,1.027
45.9200,0.958
45.9600,1.006
46.0000,1.018
46.0400,0.951
46.0800,0.981
46.1200,0.989
46.1600,0.976
46.2000,0.951
46.2400,0.955
46.2800,0.985
46.3200,0.961
46.3600,0.962
46.4000,0.987
46.4400,0.928
46.4800,0.953
46.5200,0.964
46.5600,0.900
46.6000,0.947
46.6400,0.961
46.6800,0.935
46.7200,0.958
46.7600,0.978
46.8000,0.991
46.8400,0.958
46.8800,0.931
46.9200,0.927
46.9600,1.005
47.0000,1.011
47.0400,0.980
47.0800,0.982
47.1200,0.953
47.1600,0.957
47.2000,0.937
47.2400,0.929
47.2800,0.941
47.3200,0.961
47.3600,0.946
47.4000,0.945
47.4400,0.952
47.4800,0.918
47.5200,0.917
47.5600,0.953
47.6000,0.904
47.6400,0.928
47.6800,0.947
47.7200,0.953
47.7600,0.945
47.8000,0.948
47.8400,0.923
47.8800,0.944
47.9200,0.904
47.9600,0.879
48.0000,0.861
48.0400,0.915
48.0800,0.939
48.1200,0.939
48.1600,0.869
48.2000,0.884
48.2400,0.908
48.2800,0.929
48.3200,0.867
48.3600,0.923
48.4000,0.912
48.4400,0.899
48.4800,0.818
48.5200,0.881
48.5600,0.850
48.6000,0.890
48.6400,0.899
48.6800,0.806
48.7200,0.845
48.7600,0.870
48.8000,0.873
48.8400,0.863
48.8800,0.787
48.9200,0.831
48.9600,0.829
49.0000,0.836
49.0400,0.876
49.0800,0.846
49.1200,0.856
49.1600,0.830
49.2000,0.843
49.2400,0.853
49.2800,0.829
49.3200,0.804
49.3600,0.802
49.4000,0.822
49.4400,0.830
49.4800,0.831
49.5200,0.857
49.5600,0.819
49.6000,0.787
49.6400,0.777
49.6800,0.812
49.7200,0.809
49.7600,0.819
49.8000,0.798
49.8400,0.798
49.8800,0.764
49.9200,0.812
49.9600,0.810
50.0000,0.802
50.0400,0.765
50.0800,0.828
50.1200,0.768
50.1600,0.722
50.2000,0.787
50.2400,0.829
50.2800,0.804
50.3200,0.819
50.3600,0.750
50.4000,0.784
50.4400,0.815
50.4800,0.834
50.5200,0.758
50.5600,0.789
50.6000,0.817
50.6400,0.812
50.6800,0.839
50.7200,0.779
50.7600,0.731
50.8000,0.806
50.8400,0.784
50.8800,0.794
50.9200,0.817
50.9600,0.799
51.0000,0.736
51.0400,0.743
51.0800,0.806
51.1200,0.765
51.1600,0.765
51.2000,0.721
51.2400,0.791
51.2800,0.718
51.3200,0.774
51.3600,0.754
51.4000,0.792
51.4400,0.728
51.4800,0.761
51.5200,0.799
51.5600,0.735
51.6000,0.805
51.6400,0.770
51.6800,0.733
51.7200,0.783
51.7600,0.774
51.8000,0.767
51.8400,0.728
51.8800,0.740
51.9200,0.762
51.9600,0.781
52.0000,0.784
52.0400,0.731
52.0800,0.744
52.1200,0.749
52.1600,0.802
52.2000,0.790
52.2400,0.776
52.2800,0.813
52.3200,0.798
52.3600,0.808
52.4000,0.808
52.4400,0.884
52.4800,0.836
52.5200,0.772
52.5600,0.786
52.6000,0.812
52.6400,0.763
52.6800,0.752
52.7200,0.735
52.7600,0.745
52.8000,0.764
52.8400,0.724
52.8800,0.727
52.9200,0.731
52.9600,0.722
53.0000,0.682
53.0400,0.714
53.0800,0.742
53.1200,0.757
53.1600,0.741
53.2000,0.759
53.2400,0.709
53.2800,0.710
53.3200,0.685
53.3600,0.737
53.4000,0.749
53.4400,0.728
53.4800,0.730
53.5200,0.734
53.5600,0.738
53.6000,0.711
53.6400,0.719
53.6800,0.723
53.7200,0.722
53.7600,0.718
53.8000,0.698
53.8400,0.667
53.8800,0.733
53.9200,0.685
53.9600,0.684
54.0000,0.724
54.0400,0.748
54.0800,0.669
54.1200,0.685
54.1600,0.750
54.2000,0.701
54.2400,0.688
54.2800,0.754
54.3200,0.710
54.3600,0.705
54.4000,0.748
54.4400,0.741
54.4800,0.708
54.5200,0.739
54.5600,0.744
54.6000,0.742
54.6400,0.790
54.6800,0.775
54.7200,0.804
54.7600,0.795
54.8000,0.781
54.8400,0.818
54.8800,0.806
54.9200,0.824
54.9600,0.843
55.0000,0.839
55.0400,0.841
55.0800,0.806
55.1200,0.848
55.1600,0.881
55.2000,0.807
55.2400,0.775
55.2800,0.778
55.3200,0.836
55.3600,0.807
55.4000,0.792
55.4400,0.781
55.4800,0.778
55.5200,0.781
55.5600,0.764
55.6000,0.799
55.6400,0.757
55.6800,0.723
55.7200,0.762
55.7600,0.758
55.8000,0.748
55.8400,0.681
55.8800,0.806
55.9200,0.761
55.9600,0.705
56.0000,0.770
56.0400,0.785
56.0800,0.770
56.1200,0.769
56.1600,0.787
56.2000,0.810
56.2400,0.811
56.2800,0.792
56.3200,0.737
56.3600,0.762
56.4000,0.799
56.4400,0.760
56.4800,0.812
56.5200,0.766
56.5600,0.792
56.6000,0.753
56.6400,0.766
56.6800,0.822
56.7200,0.784
56.7600,0.820
56.8000,0.733
56.8400,0.803
56.8800,0.787
56.9200,0.776
56.9600,0.798
57.0000,0.768
57.0400,0.731
57.0800,0.734
57.1200,0.777
57.1600,0.724
57.2000,0.755
57.2400,0.688
57.2800,0.686
57.3200,0.748
57.3600,0.747
57.4000,0.728
57.4400,0.714
57.4800,0.648
57.5200,0.659
57.5600,0.678
57.6000,0.706
57.6400,0.653
57.6800,0.708
57.7200,0.661
57.7600,0.665
57.8000,0.710
57.8400,0.642
57.8800,0.632
57.9200,0.640
57.9600,0.633
58.0000,0.634
58.0400,0.679
58.0800,0.632
58.1200,0.645
58.1600,0.679
58.2000,0.644
58.2400,0.672
58.2800,0.629
58.3200,0.651
58.3600,0.618
58.4000,0.630
58.4400,0.605
58.4800,0.618
58.5200,0.594
58.5600,0.610
58.6000,0.645
58.6400,0.587
58.6800,0.607
58.7200,0.623
58.7600,0.625
58.8000,0.596
58.8400,0.619
58.8800,0.599
58.9200,0.651
58.9600,0.664
59.0000,0.607
59.0400,0.604
59.0800,0.607
59.1200,0.619
59.1600,0.595
59.2000,0.614
59.2400,0.624
59.2800,0.630
59.3200,0.634
59.3600,0.613
59.4000,0.581
59.4400,0.585
59.4800,0.622
59.5200,0.566
59.5600,0.646
59.6000,0.595
59.6400,0.589
59.6800,0.615
59.7200,0.576
59.7600,0.553
59.8000,0.579
59.8400,0.578
59.8800,0.636
59.9200,0.590
59.9600,0.627
60.0000,0.557
60.0400,0.573
60.0800,0.563
60.1200,0.593
60.1600,0.604
60.2000,0.645
60.2400,0.571
60.2800,0.555
60.3200,0.582
60.3600,0.649
60.4000,0.624
60.4400,0.576
60.4800,0.583
60.5200,0.548
60.5600,0.627
60.6000,0.619
60.6400,0.606
60.6800,0.571
60.7200,0.579
60.7600,0.570
60.8000,0.569
60.8400,0.590
60.8800,0.606
60.9200,0.645
60.9600,0.577
61.0000,0.624
61.0400,0.534
61.0800,0.593
61.1200,0.587
61.1600,0.562
61.2000,0.554
61.2400,0.563
61.2800,0.596
61.3200,0.607
61.3600,0.568
61.4000,0.566
61.4400,0.587
61.4800,0.580
61.5200,0.582
61.5600,0.620
61.6000,0.661
61.6400,0.702
61.6800,0.689
61.7200,0.657
61.7600,0.635
61.8000,0.567
61.8400,0.564
61.8800,0.558
61.9200,0.614
61.9600,0.601
62.0000,0.580
62.0400,0.579
62.0800,0.607
62.1200,0.609
62.1600,0.625
62.2000,0.621
62.2400,0.618
62.2800,0.651
62.3200,0.655
62.3600,0.610
62.4000,0.593
62.4400,0.607
62.4800,0.622
62.5200,0.608
62.5600,0.610
62.6000,0.654
62.6400,0.642
62.6800,0.636
62.7200,0.607
62.7600,0.626
62.8000,0.643
62.8400,0.635
62.8800,0.587
62.9200,0.600
62.9600,0.617
63.0000,0.621
63.0400,0.619
63.0800,0.636
63.1200,0.652
63.1600,0.627
63.2000,0.632
63.2400,0.618
63.2800,0.618
63.3200,0.645
63.3600,0.653
63.4000,0.650
63.4400,0.592
63.4800,0.630
63.5200,0.626
63.5600,0.630
63.6000,0.624
63.6400,0.639
63.6800,0.654
63.7200,0.609
63.7600,0.721
63.8000,0.698
63.8400,0.696
63.8800,0.690
63.9200,0.736
63.9600,0.716
64.0000,0.707
64.0400,0.748
64.0800,0.771
64.1200,0.768
64.1600,0.779
64.2000,0.887
64.2400,0.805
64.2800,0.814
64.3200,0.807
64.3600,0.853
64.4000,0.811
64.4400,0.770
64.4800,0.744
64.5200,0.772
64.5600,0.738
64.6000,0.745
64.6400,0.721
64.6800,0.746
64.7200,0.701
64.7600,0.674
64.8000,0.661
64.8400,0.662
64.8800,0.648
64.9200,0.641
64.9600,0.614
65.0000,0.646
65.0400,0.607
65.0800,0.635
65.1200,0.647
65.1600,0.593
65.2000,0.640
65.2400,0.651
65.2800,0.638
65.3200,0.653
65.3600,0.694
65.4000,0.676
65.4400,0.675
65.4800,0.654
65.5200,0.672
65.5600,0.678
65.6000,0.699
65.6400,0.684
65.6800,0.751
65.7200,0.697
65.7600,0.672
65.8000,0.672
65.8400,0.759
65.8800,0.722
65.9200,0.752
65.9600,0.749
66.0000,0.716
66.0400,0.746
66.0800,0.705
66.1200,0.790
66.1600,0.749
66.2000,0.794
66.2400,0.791
66.2800,0.844
66.3200,0.832
66.3600,0.818
66.4000,0.803
66.4400,0.857
66.4800,0.825
66.5200,0.812
66.5600,0.870
66.6000,0.906
66.6400,0.951
66.6800,0.883
66.7200,0.919
66.7600,0.954
66.8000,0.996
66.8400,0.979
66.8800,1.019
66.9200,0.995
66.9600,1.024
67.0000,1.082
67.0400,1.046
67.0800,1.124
67.1200,1.088
67.1600,1.128
67.2000,1.116
67.2400,1.168
67.2800,1.180
67.3200,1.150
67.3600,1.252
67.4000,1.270
67.4400,1.268
67.4800,1.301
67.5200,1.327
67.5600,1.340
67.6000,1.405
67.6400,1.445
67.6800,1.482
67.7200,1.476
67.7600,1.474
67.8000,1.558
67.8400,1.584
67.8800,1.618
67.9200,1.662
67.9600,1.722
68.0000,1.726
68.0400,1.707
68.0800,1.874
68.1200,1.852
68.1600,1.938
68.2000,2.054
68.2400,2.060
68.2800,2.063
68.3200,2.245
68.3600,2.205
68.4000,2.337
68.4400,2.548
68.4800,2.636
68.5200,2.745
68.5600,2.910
68.6000,3.091
68.6400,3.479
68.6800,3.967
68.7200,4.989
68.7600,6.587
68.8000,7.708
68.8400,7.879
68.8800,7.968
68.9200,9.402
68.9600,12.960
69.0000,20.769
69.0400,45.382
69.0800,212.531
69.1200,521.349
69.1600,390.980
69.2000,108.132
69.2400,51.212
69.2800,132.580
69.3200,271.424
69.3600,192.337
69.4000,54.424
69.4400,18.530
69.4800,11.165
69.5200,8.350
69.5600,6.556
69.6000,5.695
69.6400,4.803
69.6800,4.394
69.7200,4.011
69.7600,3.569
69.8000,3.343
69.8400,3.063
69.8800,2.998
69.9200,2.718
69.9600,2.692
70.0000,2.556
70.0400,2.422
70.0800,2.351
70.1200,2.283
70.1600,2.154
70.2000,2.135
70.2400,2.045
70.2800,2.002
70.3200,1.892
70.3600,1.763
70.4000,1.835
70.4400,1.730
70.4800,1.594
70.5200,1.637
70.5600,1.583
70.6000,1.504
70.6400,1.494
70.6800,1.484
70.7200,1.480
70.7600,1.353
70.8000,1.323
70.8400,1.362
70.8800,1.290
70.9200,1.210
70.9600,1.244
71.0000,1.195
71.0400,1.189
71.0800,1.137
71.1200,1.103
71.1600,1.121
71.2000,1.037
71.2400,1.093
71.2800,1.089
71.3200,0.971
71.3600,0.928
71.4000,0.934
71.4400,0.951
71.4800,0.936
71.5200,0.923
71.5600,0.853
71.6000,0.883
71.6400,0.884
71.6800,0.841
71.7200,0.825
71.7600,0.804
71.8000,0.801
71.8400,0.826
71.8800,0.770
71.9200,0.764
71.9600,0.768
72.0000,0.711
72.0400,0.763
72.0800,0.697
72.1200,0.712
72.1600,0.718
72.2000,0.673
72.2400,0.705
72.2800,0.676
72.3200,0.715
72.3600,0.637
72.4000,0.644
72.4400,0.637
72.4800,0.630
72.5200,0.609
72.5600,0.668
72.6000,0.666
72.6400,0.690
72.6800,0.645
72.7200,0.704
72.7600,0.685
72.8000,0.656
72.8400,0.675
72.8800,0.718
72.9200,0.702
72.9600,0.738
73.0000,0.751
73.0400,0.677
73.0800,0.800
73.1200,0.731
73.1600,0.739
73.2000,0.743
73.2400,0.738
73.2800,0.714
73.3200,0.672
73.3600,0.701
73.4000,0.688
73.4400,0.720
73.4800,0.669
73.5200,0.598
73.5600,0.586
73.6000,0.580
73.6400,0.579
73.6800,0.551
73.7200,0.555
73.7600,0.561
73.8000,0.501
73.8400,0.534
73.8800,0.508
73.9200,0.512
73.9600,0.490
74.0000,0.507
74.0400,0.496
74.0800,0.472
74.1200,0.494
74.1600,0.494
74.2000,0.460
74.2400,0.495
74.2800,0.469
74.3200,0.473
74.3600,0.433
74.4000,0.479
74.4400,0.453
74.4800,0.445
74.5200,0.433
74.5600,0.449
74.6000,0.411
74.6400,0.411
74.6800,0.469
74.7200,0.380
74.7600,0.420
74.8000,0.437
74.8400,0.400
74.8800,0.435
74.9200,0.378
74.9600,0.432
75.0000,0.391
75.0400,0.366
75.0800,0.409
75.1200,0.397
75.1600,0.400
75.2000,0.387
75.2400,0.415
75.2800,0.391
75.3200,0.400
75.3600,0.400
75.4000,0.391
75.4400,0.387
75.4800,0.382
75.5200,0.383
75.5600,0.370
75.6000,0.387
75.6400,0.393
75.6800,0.366
75.7200,0.367
75.7600,0.381
75.8000,0.372
75.8400,0.395
75.8800,0.353
75.9200,0.397
75.9600,0.388
76.0000,0.380
76.0400,0.405
76.0800,0.387
76.1200,0.347
76.1600,0.403
76.2000,0.332
76.2400,0.371
76.2800,0.360
76.3200,0.356
76.3600,0.367
76.4000,0.358
76.4400,0.373
76.4800,0.355
76.5200,0.338
76.5600,0.360
76.6000,0.383
76.6400,0.364
76.6800,0.377
76.7200,0.375
76.7600,0.360
76.8000,0.386
76.8400,0.362
76.8800,0.384
76.9200,0.364
76.9600,0.356
77.0000,0.344
77.0400,0.362
77.0800,0.349
77.1200,0.363
77.1600,0.358
77.2000,0.378
77.2400,0.350
77.2800,0.362
77.3200,0.379
77.3600,0.341
77.4000,0.362
77.4400,0.378
77.4800,0.356
77.5200,0.330
77.5600,0.364
77.6000,0.335
77.6400,0.370
77.6800,0.343
77.7200,0.330
77.7600,0.347
77.8000,0.394
77.8400,0.357
77.8800,0.363
77.9200,0.369
77.9600,0.354
78.0000,0.374
78.0400,0.413
78.0800,0.368
78.1200,0.369
78.1600,0.346
78.2000,0.369
78.2400,0.363
78.2800,0.406
78.3200,0.358
78.3600,0.354
78.4000,0.356
78.4400,0.424
78.4800,0.390
78.5200,0.395
78.5600,0.414
78.6000,0.397
78.6400,0.397
78.6800,0.409
78.7200,0.435
78.7600,0.456
78.8000,0.459
78.8400,0.473
78.8800,0.471
78.9200,0.521
78.9600,0.532
79.0000,0.512
79.0400,0.532
79.0800,0.551
79.1200,0.614
79.1600,0.616
79.2000,0.688
79.2400,0.705
79.2800,0.633
79.3200,0.670
79.3600,0.655
79.4000,0.650
79.4400,0.629
79.4800,0.580
79.5200,0.597
79.5600,0.538
79.6000,0.512
79.6400,0.504
79.6800,0.464
79.7200,0.489
79.7600,0.424
79.8000,0.403
79.8400,0.407
79.8800,0.395
79.9200,0.395
79.9600,0.342
80.0000,0.354
