theta,intensity
5.0000,6.054
5.0400,6.095
5.0800,6.090
5.1200,6.144
5.1600,5.914
5.2000,5.855
5.2400,5.732
5.2800,5.853
5.3200,5.704
5.3600,5.647
5.4000,5.526
5.4400,5.561
5.4800,5.499
5.5200,5.380
5.5600,5.231
5.6000,5.111
5.6400,5.166
5.6800,4.910
5.7200,4.947
5.7600,4.883
5.8000,4.783
5.8400,4.739
5.8800,4.680
5.9200,4.637
5.9600,4.624
6.0000,4.491
6.0400,4.536
6.0800,4.494
6.1200,4.370
6.1600,4.325
6.2000,4.384
6.2400,4.369
6.2800,4.308
6.3200,4.300
6.3600,4.220
6.4000,4.266
6.4400,4.218
6.4800,4.176
6.5200,4.191
6.5600,4.141
6.6000,4.235
6.6400,4.174
6.6800,4.161
6.7200,4.114
6.7600,4.135
6.8000,4.091
6.8400,4.098
6.8800,4.177
6.9200,4.078
6.9600,4.132
7.0000,4.076
7.0400,4.060
7.0800,4.135
7.1200,4.172
7.1600,4.102
7.2000,4.120
7.2400,4.013
7.2800,4.063
7.3200,4.067
7.3600,4.027
7.4000,4.028
7.4400,4.091
7.4800,3.937
7.5200,3.983
7.5600,4.070
7.6000,4.125
7.6400,3.918
7.6800,4.025
7.7200,3.967
7.7600,3.955
7.8000,4.008
7.8400,3.912
7.8800,3.964
7.9200,3.879
7.9600,3.973
8.0000,3.897
8.0400,3.914
8.0800,3.861
8.1200,3.885
8.1600,3.887
8.2000,3.968
8.2400,3.977
8.2800,3.875
8.3200,4.008
8.3600,3.735
8.4000,3.869
8.4400,3.816
8.4800,3.815
8.5200,3.827
8.5600,3.868
8.6000,3.882
8.6400,3.920
8.6800,3.897
8.7200,3.852
8.7600,3.762
8.8000,3.805
8.8400,3.773
8.8800,3.792
8.9200,3.842
8.9600,3.872
9.0000,3.849
9.0400,3.793
9.0800,3.787
9.1200,3.812
9.1600,3.865
9.2000,3.744
9.2400,3.789
9.2800,3.793
9.3200,3.863
9.3600,3.806
9.4000,3.806
9.4400,3.829
9.4800,3.745
9.5200,3.687
9.5600,3.749
9.6000,3.784
9.6400,3.737
9.6800,3.702
9.7200,3.741
9.7600,3.696
9.8000,3.714
9.8400,3.692
9.8800,3.753
9.9200,3.696
9.9600,3.741
10.0000,3.601
10.0400,3.659
10.0800,3.627
10.1200,3.587
10.1600,3.761
10.2000,3.552
10.2400,3.638
10.2800,3.629
10.3200,3.562
10.3600,3.497
10.4000,3.656
10.4400,3.588
10.4800,3.603
10.5200,3.533
10.5600,3.661
10.6000,3.533
10.6400,3.658
10.6800,3.575
10.7200,3.439
10.7600,3.534
10.8000,3.749
10.8400,3.669
10.8800,3.494
10.9200,3.637
10.9600,3.748
11.0000,3.604
11.0400,3.620
11.0800,3.615
11.1200,3.577
11.1600,3.568
11.2000,3.547
11.2400,3.628
11.2800,3.542
11.3200,3.522
11.3600,3.596
11.4000,3.587
11.4400,3.440
11.4800,3.527
11.5200,3.583
11.5600,3.470
11.6000,3.561
11.6400,3.524
11.6800,3.451
11.7200,3.526
11.7600,3.536
11.8000,3.513
11.8400,3.552
11.8800,3.524
11.9200,3.451
11.9600,3.486
12.0000,3.520
12.0400,3.430
12.0800,3.509
12.1200,3.528
12.1600,3.372
12.2000,3.475
12.2400,3.492
12.2800,3.417
12.3200,3.482
12.3600,3.448
12.4000,3.411
12.4400,3.502
12.4800,3.419
12.5200,3.434
12.5600,3.248
12.6000,3.486
12.6400,3.463
12.6800,3.471
12.7200,3.501
12.7600,3.374
12.8000,3.472
12.8400,3.332
12.8800,3.378
12.9200,3.497
12.9600,3.452
13.0000,3.380
13.0400,3.368
13.0800,3.360
13.1200,3.335
13.1600,3.327
13.2000,3.348
13.2400,3.352
13.2800,3.407
13.3200,3.273
13.3600,3.393
13.4000,3.217
13.4400,3.328
13.4800,3.337
13.5200,3.324
13.5600,3.334
13.6000,3.312
13.6400,3.272
13.6800,3.170
13.7200,3.393
13.7600,3.398
13.8000,3.455
13.8400,3.333
13.8800,3.333
13.9200,3.345
13.9600,3.280
14.0000,3.403
14.0400,3.304
14.0800,3.202
14.1200,3.108
14.1600,3.252
14.2000,3.225
14.2400,3.291
14.2800,3.237
14.3200,3.160
14.3600,3.365
14.4000,3.192
14.4400,3.107
14.4800,3.260
14.5200,3.233
14.5600,3.149
14.6000,3.235
14.6400,3.262
14.6800,3.252
14.7200,3.210
14.7600,3.187
14.8000,3.269
14.8400,3.230
14.8800,3.171
14.9200,3.115
14.9600,3.269
15.0000,3.198
15.0400,3.317
15.0800,3.151
15.1200,3.159
15.1600,3.215
15.2000,3.177
15.2400,3.208
15.2800,3.130
15.3200,3.152
15.3600,3.210
15.4000,3.161
15.4400,3.135
15.4800,3.185
15.5200,3.025
15.5600,3.108
15.6000,3.024
15.6400,3.099
15.6800,3.187
15.7200,3.156
15.7600,3.099
15.8000,3.083
15.8400,3.056
15.8800,3.073
15.9200,3.081
15.9600,3.081
16.0000,3.145
16.0400,3.177
16.0800,3.035
16.1200,3.046
16.1600,3.084
16.2000,3.015
16.2400,3.039
16.2800,3.025
16.3200,3.067
16.3600,3.018
16.4000,3.071
16.4400,3.086
16.4800,3.099
16.5200,3.119
16.5600,3.101
16.6000,3.038
16.6400,3.002
16.6800,3.092
16.7200,3.126
16.7600,3.104
16.8000,2.989
16.8400,2.987
16.8800,2.999
16.9200,3.024
16.9600,2.995
17.0000,3.003
17.0400,2.881
17.0800,2.966
17.1200,2.950
17.1600,2.905
17.2000,2.975
17.2400,2.943
17.2800,2.998
17.3200,2.882
17.3600,2.979
17.4000,3.059
17.4400,2.987
17.4800,2.945
17.5200,2.934
17.5600,3.015
17.6000,2.950
17.6400,2.901
17.6800,2.939
17.7200,2.938
17.7600,2.977
17.8000,2.893
17.8400,2.926
17.8800,2.844
17.9200,2.853
17.9600,2.913
18.0000,2.921
18.0400,2.908
18.0800,2.824
18.1200,2.854
18.1600,2.862
18.2000,2.943
18.2400,2.840
18.2800,2.908
18.3200,2.922
18.3600,2.811
18.4000,2.775
18.4400,2.860
18.4800,2.864
18.5200,2.849
18.5600,2.899
18.6000,2.788
18.6400,2.799
18.6800,2.909
18.7200,2.866
18.7600,2.821
18.8000,2.895
18.8400,2.839
18.8800,2.779
18.9200,2.769
18.9600,2.836
19.0000,2.873
19.0400,2.840
19.0800,2.830
19.1200,2.749
19.1600,2.768
19.2000,2.840
19.2400,2.808
19.2800,2.791
19.3200,2.795
19.3600,2.820
19.4000,2.703
19.4400,2.742
19.4800,2.710
19.5200,2.774
19.5600,2.839
19.6000,2.786
19.6400,2.698
19.6800,2.813
19.7200,2.703
19.7600,2.699
19.8000,2.679
19.8400,2.771
19.8800,2.738
19.9200,2.721
19.9600,2.696
20.0000,2.765
20.0400,2.697
20.0800,2.749
20.1200,2.706
20.1600,2.650
20.2000,2.689
20.2400,2.748
20.2800,2.587
20.3200,2.575
20.3600,2.621
20.4000,2.721
20.4400,2.717
20.4800,2.717
20.5200,2.664
20.5600,2.712
20.6000,2.612
20.6400,2.716
20.6800,2.687
20.7200,2.668
20.7600,2.594
20.8000,2.657
20.8400,2.514
20.8800,2.541
20.9200,2.624
20.9600,2.673
21.0000,2.697
21.0400,2.640
21.0800,2.628
21.1200,2.614
21.1600,2.584
21.2000,2.581
21.2400,2.520
21.2800,2.550
21.3200,2.545
21.3600,2.507
21.4000,2.670
21.4400,2.552
21.4800,2.618
21.5200,2.596
21.5600,2.582
21.6000,2.582
21.6400,2.509
21.6800,2.586
21.7200,2.619
21.7600,2.544
21.8000,2.591
21.8400,2.542
21.8800,2.537
21.9200,2.520
21.9600,2.549
22.0000,2.526
22.0400,2.499
22.0800,2.464
22.1200,2.461
22.1600,2.509
22.2000,2.549
22.2400,2.494
22.2800,2.462
22.3200,2.393
22.3600,2.517
22.4000,2.427
22.4400,2.507
22.4800,2.510
22.5200,2.423
22.5600,2.470
22.6000,2.433
22.6400,2.400
22.6800,2.507
22.7200,2.546
22.7600,2.436
22.8000,2.441
22.8400,2.459
22.8800,2.487
22.9200,2.479
22.9600,2.385
23.0000,2.414
23.0400,2.438
23.0800,2.451
23.1200,2.449
23.1600,2.424
23.2000,2.389
23.2400,2.286
23.2800,2.370
23.3200,2.415
23.3600,2.495
23.4000,2.326
23.4400,2.380
23.4800,2.302
23.5200,2.374
23.5600,2.355
23.6000,2.386
23.6400,2.282
23.6800,2.346
23.7200,2.396
23.7600,2.391
23.8000,2.361
23.8400,2.369
23.8800,2.384
23.9200,2.276
23.9600,2.418
24.0000,2.347
24.0400,2.314
24.0800,2.314
24.1200,2.354
24.1600,2.378
24.2000,2.302
24.2400,2.359
24.2800,2.276
24.3200,2.257
24.3600,2.357
24.4000,2.286
24.4400,2.280
24.4800,2.279
24.5200,2.377
24.5600,2.313
24.6000,2.180
24.6400,2.259
24.6800,2.330
24.7200,2.283
24.7600,2.379
24.8000,2.367
24.8400,2.234
24.8800,2.284
24.9200,2.309
24.9600,2.238
25.0000,2.172
25.0400,2.246
25.0800,2.262
25.1200,2.284
25.1600,2.252
25.2000,2.229
25.2400,2.253
25.2800,2.225
25.3200,2.261
25.3600,2.242
25.4000,2.274
25.4400,2.235
25.4800,2.232
25.5200,2.145
25.5600,2.216
25.6000,2.190
25.6400,2.149
25.6800,2.208
25.7200,2.200
25.7600,2.285
25.8000,2.235
25.8400,2.261
25.8800,2.115
25.9200,2.158
25.9600,2.230
26.0000,2.086
26.0400,2.159
26.0800,2.160
26.1200,2.128
26.1600,2.213
26.2000,2.225
26.2400,2.233
26.2800,2.110
26.3200,2.153
26.3600,2.095
26.4000,2.096
26.4400,2.179
26.4800,2.113
26.5200,2.264
26.5600,2.150
26.6000,2.252
26.6400,2.293
26.6800,2.286
26.7200,2.236
26.7600,2.356
26.8000,2.266
26.8400,2.235
26.8800,2.234
26.9200,2.236
26.9600,2.280
27.0000,2.156
27.0400,2.146
27.0800,2.161
27.1200,2.202
27.1600,2.095
27.2000,2.233
27.2400,2.178
27.2800,2.134
27.3200,2.023
27.3600,2.042
27.4000,2.107
27.4400,2.133
27.4800,2.013
27.5200,2.121
27.5600,2.091
27.6000,2.090
27.6400,2.111
27.6800,2.011
27.7200,2.026
27.7600,2.044
27.8000,2.000
27.8400,2.000
27.8800,2.021
27.9200,2.010
27.9600,2.013
28.0000,2.049
28.0400,2.012
28.0800,2.132
28.1200,2.033
28.1600,2.066
28.2000,2.015
28.2400,1.942
28.2800,1.997
28.3200,1.959
28.3600,2.017
28.4000,1.963
28.4400,2.021
28.4800,1.977
28.5200,2.005
28.5600,1.977
28.6000,1.929
28.6400,1.984
28.6800,1.941
28.7200,1.985
28.7600,1.916
28.8000,2.007
28.8400,1.990
28.8800,1.987
28.9200,1.985
28.9600,1.954
29.0000,1.941
29.0400,1.975
29.0800,1.936
29.1200,1.921
29.1600,1.949
29.2000,1.913
29.2400,1.902
29.2800,1.883
29.3200,1.984
29.3600,1.893
29.4000,1.925
29.4400,1.925
29.4800,1.952
29.5200,1.922
29.5600,1.842
29.6000,1.849
29.6400,1.899
29.6800,1.870
29.7200,1.928
29.7600,1.854
29.8000,1.838
29.8400,1.846
29.8800,1.930
29.9200,1.872
29.9600,1.844
30.0000,1.883
30.0400,1.887
30.0800,1.911
30.1200,1.848
30.1600,1.900
30.2000,1.837
30.2400,1.968
30.2800,1.859
30.3200,1.871
30.3600,1.950
30.4000,1.778
30.4400,1.884
30.4800,1.935
30.5200,2.023
30.5600,1.943
30.6000,1.950
30.6400,2.004
30.6800,2.019
30.7200,2.050
30.7600,2.076
30.8000,2.117
30.8400,2.232
30.8800,2.265
30.9200,2.182
30.9600,2.172
31.0000,2.011
31.0400,2.038
31.0800,2.001
31.1200,1.949
31.1600,1.879
31.2000,1.972
31.2400,1.841
31.2800,1.840
31.3200,1.970
31.3600,1.823
31.4000,1.867
31.4400,1.880
31.4800,1.864
31.5200,1.869
31.5600,1.869
31.6000,1.940
31.6400,1.881
31.6800,1.925
31.7200,1.939
31.7600,1.873
31.8000,1.875
31.8400,1.899
31.8800,1.864
31.9200,1.904
31.9600,1.902
32.0000,1.849
32.0400,1.807
32.0800,1.814
32.1200,1.820
32.1600,1.805
32.2000,1.829
32.2400,1.816
32.2800,1.823
32.3200,1.872
32.3600,1.747
32.4000,1.725
32.4400,1.732
32.4800,1.761
32.5200,1.725
32.5600,1.713
32.6000,1.718
32.6400,1.788
32.6800,1.787
32.7200,1.674
32.7600,1.742
32.8000,1.685
32.8400,1.757
32.8800,1.737
32.9200,1.775
32.9600,1.649
33.0000,1.792
33.0400,1.981
33.0800,1.717
33.1200,1.577
33.1600,1.691
33.2000,1.667
33.2400,1.609
33.2800,1.691
33.3200,1.679
33.3600,1.679
33.4000,1.722
33.4400,1.658
33.4800,1.610
33.5200,1.638
33.5600,1.619
33.6000,1.710
33.6400,1.662
33.6800,1.698
33.7200,1.620
33.7600,1.632
33.8000,1.675
33.8400,1.690
33.8800,1.718
33.9200,1.615
33.9600,1.719
34.0000,1.714
34.0400,1.644
34.0800,1.694
34.1200,1.640
34.1600,1.671
34.2000,1.650
34.2400,1.664
34.2800,1.643
34.3200,1.660
34.3600,1.632
34.4000,1.602
34.4400,1.668
34.4800,1.645
34.5200,1.717
34.5600,1.675
34.6000,1.715
34.6400,1.726
34.6800,1.573
34.7200,1.644
34.7600,1.726
34.8000,1.568
34.8400,1.597
34.8800,1.578
34.9200,1.565
34.9600,1.558
35.0000,1.603
35.0400,1.581
35.0800,1.590
35.1200,1.576
35.1600,1.539
35.2000,1.564
35.2400,1.618
35.2800,1.611
35.3200,1.549
35.3600,1.520
35.4000,1.526
35.4400,1.595
35.4800,1.622
35.5200,1.593
35.5600,1.586
35.6000,1.619
35.6400,1.598
35.6800,1.520
35.7200,1.638
35.7600,1.591
35.8000,1.568
35.8400,1.593
35.8800,1.626
35.9200,1.656
35.9600,1.634
36.0000,1.597
36.0400,1.659
36.0800,1.685
36.1200,1.612
36.1600,1.662
36.2000,1.615
36.2400,1.685
36.2800,1.597
36.3200,1.554
36.3600,1.576
36.4000,1.694
36.4400,1.615
36.4800,1.645
36.5200,1.582
36.5600,1.572
36.6000,1.623
36.6400,1.614
36.6800,1.567
36.7200,1.607
36.7600,1.558
36.8000,1.596
36.8400,1.573
36.8800,1.553
36.9200,1.488
36.9600,1.569
37.0000,1.500
37.0400,1.528
37.0800,1.519
37.1200,1.475
37.1600,1.413
37.2000,1.403
37.2400,1.387
37.2800,1.416
37.3200,1.419
37.3600,1.382
37.4000,1.460
37.4400,1.405
37.4800,1.402
37.5200,1.420
37.5600,1.434
37.6000,1.424
37.6400,1.336
37.6800,1.464
37.7200,1.380
37.7600,1.369
37.8000,1.327
37.8400,1.408
37.8800,1.390
37.9200,1.349
37.9600,1.363
38.0000,1.381
38.0400,1.356
38.0800,1.381
38.1200,1.321
38.1600,1.336
38.2000,1.332
38.2400,1.272
38.2800,1.340
38.3200,1.422
38.3600,1.363
38.4000,1.379
38.4400,1.355
38.4800,1.317
38.5200,1.348
38.5600,1.319
38.6000,1.364
38.6400,1.289
38.6800,1.281
38.7200,1.303
38.7600,1.305
38.8000,1.296
38.8400,1.291
38.8800,1.283
38.9200,1.272
38.9600,1.317
39.0000,1.412
39.0400,1.294
39.0800,1.282
39.1200,1.298
39.1600,1.281
39.2000,1.237
39.2400,1.372
39.2800,1.303
39.3200,1.289
39.3600,1.278
39.4000,1.356
39.4400,1.246
39.4800,1.364
39.5200,1.331
39.5600,1.290
39.6000,1.313
39.6400,1.300
39.6800,1.334
39.7200,1.333
39.7600,1.292
39.8000,1.294
39.8400,1.366
39.8800,1.367
39.9200,1.353
39.9600,1.313
40.0000,1.352
40.0400,1.460
40.0800,1.384
40.1200,1.431
40.1600,1.486
40.2000,1.471
40.2400,1.440
40.2800,1.351
40.3200,1.482
40.3600,1.484
40.4000,1.488
40.4400,1.503
40.4800,1.508
40.5200,1.497
40.5600,1.522
40.6000,1.500
40.6400,1.536
40.6800,1.601
40.7200,1.624
40.7600,1.686
40.8000,1.744
40.8400,1.871
40.8800,1.984
40.9200,2.171
40.9600,2.280
41.0000,2.622
41.0400,2.855
41.0800,3.362
41.1200,3.865
41.1600,4.448
41.2000,5.241
41.2400,5.753
41.2800,5.958
41.3200,5.771
41.3600,5.471
41.4000,4.918
41.4400,4.276
41.4800,3.759
41.5200,3.353
41.5600,2.767
41.6000,2.581
41.6400,2.324
41.6800,2.088
41.7200,1.936
41.7600,1.860
41.8000,1.869
41.8400,1.710
41.8800,1.633
41.9200,1.588
41.9600,1.569
42.0000,1.520
42.0400,1.418
42.0800,1.464
42.1200,1.385
42.1600,1.434
42.2000,1.440
42.2400,1.414
42.2800,1.376
42.3200,1.339
42.3600,1.317
42.4000,1.333
42.4400,1.282
42.4800,1.277
42.5200,1.251
42.5600,1.223
42.6000,1.290
42.6400,1.236
42.6800,1.251
42.7200,1.297
42.7600,1.259
42.8000,1.222
42.8400,1.210
42.8800,1.302
42.9200,1.279
42.9600,1.236
43.0000,1.225
43.0400,1.272
43.0800,1.261
43.1200,1.284
43.1600,1.186
43.2000,1.239
43.2400,1.209
43.2800,1.250
43.3200,1.312
43.3600,1.258
43.4000,1.258
43.4400,1.278
43.4800,1.293
43.5200,1.252
43.5600,1.360
43.6000,1.336
43.6400,1.336
43.6800,1.348
43.7200,1.389
43.7600,1.504
43.8000,1.478
43.8400,1.552
43.8800,1.630
43.9200,1.819
43.9600,1.807
44.0000,1.915
44.0400,2.158
44.0800,2.253
44.1200,2.393
44.1600,2.493
44.2000,2.554
44.2400,2.509
44.2800,2.454
44.3200,2.296
44.3600,2.176
44.4000,1.978
44.4400,1.776
44.4800,1.647
44.5200,1.528
44.5600,1.402
44.6000,1.333
44.6400,1.272
44.6800,1.303
44.7200,1.172
44.7600,1.154
44.8000,1.201
44.8400,1.131
44.8800,1.101
44.9200,1.078
44.9600,1.112
45.0000,1.094
45.0400,0.994
45.0800,1.048
45.1200,1.035
45.1600,1.055
45.2000,0.988
45.2400,1.031
45.2800,1.047
45.3200,0.971
45.3600,1.041
45.4000,1.058
45.4400,0.920
45.4800,1.076
45.5200,1.035
45.5600,0.977
45.6000,0.989
45.6400,0.971
45.6800,0.979
45.7200,0.962
45.7600,0.996
45.8000,0.963
45.8400,0.995
45.8800,0.946
45.9200,0.943
45.9600,0.968
46.0000,0.992
46.0400,1.015
46.0800,0.971
46.1200,1.011
46.1600,0.967
46.2000,0.980
46.2400,0.901
46.2800,0.955
46.3200,0.991
46.3600,0.952
46.4000,0.919
46.4400,0.946
46.4800,0.965
46.5200,0.944
46.5600,0.929
46.6000,0.941
46.6400,0.964
46.6800,0.922
46.7200,0.974
46.7600,0.970
46.8000,0.953
46.8400,0.941
46.8800,0.961
46.9200,0.938
46.9600,0.921
47.0000,0.957
47.0400,0.974
47.0800,0.884
47.1200,0.961
47.1600,0.940
47.2000,0.943
47.2400,0.888
47.2800,0.894
47.3200,0.903
47.3600,0.897
47.4000,0.895
47.4400,0.907
47.4800,0.892
47.5200,0.907
47.5600,0.832
47.6000,0.895
47.6400,0.896
47.6800,0.861
47.7200,0.878
47.7600,0.915
47.8000,0.914
47.8400,0.945
47.8800,0.893
47.9200,0.847
47.9600,0.880
48.0000,0.857
48.0400,0.895
48.0800,0.847
48.1200,0.897
48.1600,0.839
48.2000,0.820
48.2400,0.800
48.2800,0.866
48.3200,0.879
48.3600,0.869
48.4000,0.841
48.4400,0.857
48.4800,0.887
48.5200,0.827
48.5600,0.854
48.6000,0.877
48.6400,0.879
48.6800,0.916
48.7200,0.833
48.7600,0.826
48.8000,0.801
48.8400,0.807
48.8800,0.830
48.9200,0.808
48.9600,0.824
49.0000,0.836
49.0400,0.859
49.0800,0.820
49.1200,0.820
49.1600,0.805
49.2000,0.822
49.2400,0.881
49.2800,0.793
49.3200,0.850
49.3600,0.779
49.4000,0.798
49.4400,0.842
49.4800,0.809
49.5200,0.821
49.5600,0.841
49.6000,0.832
49.6400,0.821
49.6800,0.783
49.7200,0.783
49.7600,0.834
49.8000,0.817
49.8400,0.827
49.8800,0.788
49.9200,0.795
49.9600,0.807
50.0000,0.816
50.0400,0.757
50.0800,0.804
50.1200,0.829
50.1600,0.789
50.2000,0.754
50.2400,0.811
50.2800,0.797
50.3200,0.792
50.3600,0.810
50.4000,0.785
50.4400,0.727
50.4800,0.776
50.5200,0.788
50.5600,0.789
50.6000,0.794
50.6400,0.789
50.6800,0.792
50.7200,0.819
50.7600,0.810
50.8000,0.759
50.8400,0.767
50.8800,0.772
50.9200,0.759
50.9600,0.787
51.0000,0.757
51.0400,0.776
51.0800,0.788
51.1200,0.767
51.1600,0.754
51.2000,0.810
51.2400,0.747
51.2800,0.741
51.3200,0.769
51.3600,0.788
51.4000,0.751
51.4400,0.753
51.4800,0.776
51.5200,0.796
51.5600,0.778
51.6000,0.773
51.6400,0.770
51.6800,0.782
51.7200,0.713
51.7600,0.745
51.8000,0.765
51.8400,0.721
51.8800,0.783
51.9200,0.783
51.9600,0.747
52.0000,0.735
52.0400,0.767
52.0800,0.729
52.1200,0.734
52.1600,0.767
52.2000,0.749
52.2400,0.771
52.2800,0.842
52.3200,0.808
52.3600,0.853
52.4000,0.838
52.4400,0.839
52.4800,0.799
52.5200,0.775
52.5600,0.766
52.6000,0.786
52.6400,0.791
52.6800,0.766
52.7200,0.744
52.7600,0.767
52.8000,0.763
52.8400,0.742
52.8800,0.762
52.9200,0.696
52.9600,0.744
53.0000,0.686
53.0400,0.705
53.0800,0.699
53.1200,0.727
53.1600,0.708
53.2000,0.699
53.2400,0.688
53.2800,0.693
53.3200,0.703
53.3600,0.732
53.4000,0.729
53.4400,0.695
53.4800,0.694
53.5200,0.687
53.5600,0.718
53.6000,0.710
53.6400,0.695
53.6800,0.659
53.7200,0.696
53.7600,0.707
53.8000,0.695
53.8400,0.681
53.8800,0.671
53.9200,0.683
53.9600,0.694
54.0000,0.698
54.0400,0.666
54.0800,0.685
54.1200,0.662
54.1600,0.672
54.2000,0.695
54.2400,0.710
54.2800,0.701
54.3200,0.688
54.3600,0.698
54.4000,0.713
54.4400,0.676
54.4800,0.690
54.5200,0.736
54.5600,0.741
54.6000,0.717
54.6400,0.735
54.6800,0.746
54.7200,0.733
54.7600,0.779
54.8000,0.803
54.8400,0.766
54.8800,0.771
54.9200,0.792
54.9600,0.814
55.0000,0.846
55.0400,0.869
55.0800,0.864
55.1200,0.913
55.1600,0.814
55.2000,0.807
55.2400,0.852
55.2800,0.836
55.3200,0.781
55.3600,0.766
55.4000,0.796
55.4400,0.728
55.4800,0.775
55.5200,0.805
55.5600,0.788
55.6000,0.741
55.6400,0.710
55.6800,0.754
55.7200,0.740
55.7600,0.707
55.8000,0.731
55.8400,0.714
55.8800,0.696
55.9200,0.680
55.9600,0.727
56.0000,0.670
56.0400,0.692
56.0800,0.668
56.1200,0.700
56.1600,0.735
56.2000,0.692
56.2400,0.678
56.2800,0.685
56.3200,0.699
56.3600,0.721
56.4000,0.688
56.4400,0.652
56.4800,0.694
56.5200,0.653
56.5600,0.706
56.6000,0.676
56.6400,0.666
56.6800,0.737
56.7200,0.681
56.7600,0.677
56.8000,0.682
56.8400,0.695
56.8800,0.661
56.9200,0.671
56.9600,0.689
57.0000,0.694
57.0400,0.677
57.0800,0.667
57.1200,0.676
57.1600,0.623
57.2000,0.650
57.2400,0.684
57.2800,0.652
57.3200,0.648
57.3600,0.631
57.4000,0.620
57.4400,0.634
57.4800,0.614
57.5200,0.608
57.5600,0.634
57.6000,0.630
57.6400,0.695
57.6800,0.638
57.7200,0.542
57.7600,0.645
57.8000,0.586
57.8400,0.632
57.8800,0.631
57.9200,0.656
57.9600,0.579
58.0000,0.641
58.0400,0.621
58.0800,0.618
58.1200,0.651
58.1600,0.598
58.2000,0.645
58.2400,0.619
58.2800,0.591
58.3200,0.621
58.3600,0.623
58.4000,0.666
58.4400,0.596
58.4800,0.612
58.5200,0.617
58.5600,0.643
58.6000,0.576
58.6400,0.617
58.6800,0.598
58.7200,0.586
58.7600,0.573
58.8000,0.605
58.8400,0.604
58.8800,0.597
58.9200,0.583
58.9600,0.622
59.0000,0.624
59.0400,0.596
59.0800,0.589
59.1200,0.623
59.1600,0.612
59.2000,0.603
59.2400,0.597
59.2800,0.572
59.3200,0.561
59.3600,0.602
59.4000,0.600
59.4400,0.563
59.4800,0.639
59.5200,0.588
59.5600,0.581
59.6000,0.596
59.6400,0.564
59.6800,0.565
59.7200,0.565
59.7600,0.620
59.8000,0.611
59.8400,0.547
59.8800,0.543
59.9200,0.590
59.9600,0.574
60.0000,0.602
60.0400,0.558
60.0800,0.577
60.1200,0.540
60.1600,0.584
60.2000,0.520
60.2400,0.587
60.2800,0.589
60.3200,0.583
60.3600,0.560
60.4000,0.523
60.4400,0.552
60.4800,0.565
60.5200,0.592
60.5600,0.591
60.6000,0.538
60.6400,0.552
60.6800,0.513
60.7200,0.533
60.7600,0.567
60.8000,0.532
60.8400,0.566
60.8800,0.564
60.9200,0.574
60.9600,0.578
61.0000,0.555
61.0400,0.577
61.0800,0.527
61.1200,0.565
61.1600,0.612
61.2000,0.586
61.2400,0.600
61.2800,0.583
61.3200,0.608
61.3600,0.568
61.4000,0.532
61.4400,0.538
61.4800,0.545
61.5200,0.569
61.5600,0.552
61.6000,0.595
61.6400,0.634
61.6800,0.689
61.7200,0.603
61.7600,0.616
61.8000,0.577
61.8400,0.568
61.8800,0.562
61.9200,0.610
61.9600,0.543
62.0000,0.561
62.0400,0.549
62.0800,0.607
62.1200,0.519
62.1600,0.563
62.2000,0.547
62.2400,0.538
62.2800,0.547
62.3200,0.603
62.3600,0.568
62.4000,0.563
62.4400,0.550
62.4800,0.603
62.5200,0.599
62.5600,0.601
62.6000,0.564
62.6400,0.561
62.6800,0.560
62.7200,0.566
62.7600,0.539
62.8000,0.595
62.8400,0.601
62.8800,0.574
62.9200,0.613
62.9600,0.559
63.0000,0.539
63.0400,0.549
63.0800,0.585
63.1200,0.555
63.1600,0.528
63.2000,0.561
63.2400,0.538
63.2800,0.560
63.3200,0.600
63.3600,0.588
63.4000,0.618
63.4400,0.620
63.4800,0.584
63.5200,0.594
63.5600,0.615
63.6000,0.632
63.6400,0.607
63.6800,0.633
63.7200,0.608
63.7600,0.623
63.8000,0.614
63.8400,0.621
63.8800,0.670
63.9200,0.707
63.9600,0.688
64.0000,0.744
64.0400,0.764
64.0800,0.757
64.1200,0.768
64.1600,0.815
64.2000,0.813
64.2400,0.875
64.2800,0.871
64.3200,0.893
64.3600,0.886
64.4000,0.844
64.4400,0.788
64.4800,0.768
64.5200,0.762
64.5600,0.755
64.6000,0.735
64.6400,0.744
64.6800,0.733
64.7200,0.691
64.7600,0.635
64.8000,0.651
64.8400,0.687
64.8800,0.650
64.9200,0.658
64.9600,0.634
65.0000,0.621
65.0400,0.618
65.0800,0.663
65.1200,0.641
65.1600,0.636
65.2000,0.656
65.2400,0.655
65.2800,0.688
65.3200,0.642
65.3600,0.708
65.4000,0.638
65.4400,0.650
65.4800,0.696
65.5200,0.664
65.5600,0.614
65.6000,0.668
65.6400,0.720
65.6800,0.656
65.7200,0.708
65.7600,0.676
65.8000,0.678
65.8400,0.717
65.8800,0.702
65.9200,0.727
65.9600,0.711
66.0000,0.683
66.0400,0.681
66.0800,0.744
66.1200,0.692
66.1600,0.774
66.2000,0.780
66.2400,0.770
66.2800,0.754
66.3200,0.769
66.3600,0.773
66.4000,0.818
66.4400,0.841
66.4800,0.818
66.5200,0.809
66.5600,0.838
66.6000,0.881
66.6400,0.793
66.6800,0.917
66.7200,0.909
66.7600,0.869
66.8000,0.941
66.8400,0.966
66.8800,0.919
66.9200,1.010
66.9600,1.012
67.0000,1.008
67.0400,1.050
67.0800,1.004
67.1200,1.074
67.1600,1.088
67.2000,1.083
67.2400,1.181
67.2800,1.181
67.3200,1.127
67.3600,1.154
67.4000,1.196
67.4400,1.202
67.4800,1.203
67.5200,1.357
67.5600,1.347
67.6000,1.375
67.6400,1.400
67.6800,1.418
67.7200,1.444
67.7600,1.460
67.8000,1.542
67.8400,1.487
67.8800,1.553
67.9200,1.558
67.9600,1.714
68.0000,1.673
68.0400,1.724
68.0800,1.781
68.1200,1.834
68.1600,1.825
68.2000,1.890
68.2400,1.949
68.2800,2.019
68.3200,2.095
68.3600,2.134
68.4000,2.308
68.4400,2.326
68.4800,2.392
68.5200,2.629
68.5600,2.750
68.6000,2.960
68.6400,3.135
68.6800,3.461
68.7200,4.212
68.7600,5.581
68.8000,6.796
68.8400,7.458
68.8800,7.498
68.9200,8.033
68.9600,9.676
69.0000,13.803
69.0400,24.565
69.0800,74.355
69.1200,349.951
69.1600,524.988
69.2000,249.814
69.2400,63.151
69.2800,62.162
69.3200,196.356
69.3600,265.236
69.4000,122.859
69.4400,30.955
69.4800,14.097
69.5200,9.384
69.5600,7.614
69.6000,5.920
69.6400,5.232
69.6800,4.603
69.7200,4.084
69.7600,3.791
69.8000,3.572
69.8400,3.289
69.8800,3.117
69.9200,2.848
69.9600,2.766
70.0000,2.597
70.0400,2.472
70.0800,2.408
70.1200,2.311
70.1600,2.220
70.2000,2.196
70.2400,2.045
70.2800,1.981
70.3200,1.930
70.3600,1.798
70.4000,1.804
70.4400,1.715
70.4800,1.698
70.5200,1.647
70.5600,1.573
70.6000,1.580
70.6400,1.539
70.6800,1.505
70.7200,1.449
70.7600,1.389
70.8000,1.325
70.8400,1.315
70.8800,1.338
70.9200,1.236
70.9600,1.252
71.0000,1.271
71.0400,1.187
71.0800,1.111
71.1200,1.184
71.1600,1.136
71.2000,1.072
71.2400,1.019
71.2800,1.019
71.3200,0.986
71.3600,0.985
71.4000,0.922
71.4400,0.973
71.4800,0.907
71.5200,0.919
71.5600,0.870
71.6000,0.858
71.6400,0.825
71.6800,0.869
71.7200,0.859
71.7600,0.819
71.8000,0.796
71.8400,0.760
71.8800,0.800
71.9200,0.710
71.9600,0.791
72.0000,0.788
72.0400,0.755
72.0800,0.703
72.1200,0.707
72.1600,0.748
72.2000,0.694
72.2400,0.705
72.2800,0.653
72.3200,0.692
72.3600,0.694
72.4000,0.648
72.4400,0.630
72.4800,0.668
72.5200,0.643
72.5600,0.612
72.6000,0.652
72.6400,0.657
72.6800,0.662
72.7200,0.647
72.7600,0.615
72.8000,0.667
72.8400,0.667
72.8800,0.701
72.9200,0.727
72.9600,0.704
73.0000,0.745
73.0400,0.738
73.0800,0.706
73.1200,0.769
73.1600,0.778
73.2000,0.738
73.2400,0.755
73.2800,0.741
73.3200,0.686
73.3600,0.656
73.4000,0.703
73.4400,0.716
73.4800,0.597
73.5200,0.605
73.5600,0.603
73.6000,0.611
73.6400,0.536
73.6800,0.561
73.7200,0.518
73.7600,0.553
73.8000,0.547
73.8400,0.549
73.8800,0.508
73.9200,0.518
73.9600,0.494
74.0000,0.485
74.0400,0.474
74.0800,0.448
74.1200,0.464
74.1600,0.459
74.2000,0.467
74.2400,0.481
74.2800,0.459
74.3200,0.477
74.3600,0.461
74.4000,0.476
74.4400,0.446
74.4800,0.441
74.5200,0.443
74.5600,0.434
74.6000,0.418
74.6400,0.425
74.6800,0.430
74.7200,0.410
74.7600,0.421
74.8000,0.422
74.8400,0.428
74.8800,0.422
74.9200,0.381
74.9600,0.404
75.0000,0.399
75.0400,0.427
75.0800,0.403
75.1200,0.388
75.1600,0.408
75.2000,0.378
75.2400,0.409
75.2800,0.399
75.3200,0.416
75.3600,0.367
75.4000,0.372
75.4400,0.382
75.4800,0.401
75.5200,0.378
75.5600,0.388
75.6000,0.408
75.6400,0.359
75.6800,0.361
75.7200,0.351
75.7600,0.403
75.8000,0.382
75.8400,0.383
75.8800,0.355
75.9200,0.355
75.9600,0.375
76.0000,0.389
76.0400,0.356
76.0800,0.353
76.1200,0.347
76.1600,0.356
76.2000,0.377
76.2400,0.361
76.2800,0.372
76.3200,0.374
76.3600,0.362
76.4000,0.358
76.4400,0.379
76.4800,0.344
76.5200,0.343
76.5600,0.340
76.6000,0.353
76.6400,0.324
76.6800,0.381
76.7200,0.364
76.7600,0.355
76.8000,0.356
76.8400,0.351
76.8800,0.367
76.9200,0.353
76.9600,0.366
77.0000,0.370
77.0400,0.350
77.0800,0.349
77.1200,0.375
77.1600,0.342
77.2000,0.312
77.2400,0.332
77.2800,0.320
77.3200,0.363
77.3600,0.342
77.4000,0.351
77.4400,0.356
77.4800,0.351
77.5200,0.326
77.5600,0.343
77.6000,0.325
77.6400,0.346
77.6800,0.339
77.7200,0.337
77.7600,0.315
77.8000,0.339
77.8400,0.338
77.8800,0.354
77.9200,0.323
77.9600,0.353
78.0000,0.365
78.0400,0.354
78.0800,0.360
78.1200,0.350
78.1600,0.354
78.2000,0.371
78.2400,0.377
78.2800,0.345
78.3200,0.368
78.3600,0.371
78.4000,0.354
78.4400,0.375
78.4800,0.371
78.5200,0.382
78.5600,0.400
78.6000,0.423
78.6400,0.387
78.6800,0.363
78.7200,0.385
78.7600,0.406
78.8000,0.404
78.8400,0.429
78.8800,0.466
78.9200,0.477
78.9600,0.508
79.0000,0.532
79.0400,0.534
79.0800,0.590
79.1200,0.588
79.1600,0.654
79.2000,0.647
79.2400,0.730
79.2800,0.688
79.3200,0.717
79.3600,0.707
79.4000,0.720
79.4400,0.672
79.4800,0.630
79.5200,0.592
79.5600,0.605
79.6000,0.567
79.6400,0.505
79.6800,0.469
79.7200,0.497
79.7600,0.464
79.8000,0.429
79.8400,0.383
79.8800,0.372
79.9200,0.369
79.9600,0.344
80.0000,0.320
