theta,intensity
5.0000,8.057
5.0400,7.948
5.0800,7.909
5.1200,7.793
5.1600,7.779
5.2000,7.717
5.2400,7.727
5.2800,7.668
5.3200,7.383
5.3600,7.529
5.4000,7.312
5.4400,7.138
5.4800,7.295
5.5200,6.971
5.5600,6.912
5.6000,6.829
5.6400,6.828
5.6800,6.570
5.7200,6.468
5.7600,6.384
5.8000,6.395
5.8400,6.086
5.8800,6.098
5.9200,6.014
5.9600,5.928
6.0000,5.931
6.0400,5.964
6.0800,5.737
6.1200,5.742
6.1600,5.738
6.2000,5.758
6.2400,5.594
6.2800,5.640
6.3200,5.444
6.3600,5.575
6.4000,5.376
6.4400,5.385
6.4800,5.218
6.5200,5.321
6.5600,5.305
6.6000,5.217
6.6400,5.137
6.6800,5.117
6.7200,5.111
6.7600,5.007
6.8000,5.046
6.8400,4.978
6.8800,4.892
6.9200,4.782
6.9600,4.834
7.0000,4.808
7.0400,4.830
7.0800,4.765
7.1200,4.761
7.1600,4.639
7.2000,4.655
7.2400,4.643
7.2800,4.673
7.3200,4.616
7.3600,4.552
7.4000,4.519
7.4400,4.484
7.4800,4.407
7.5200,4.570
7.5600,4.438
7.6000,4.493
7.6400,4.354
7.6800,4.337
7.7200,4.279
7.7600,4.384
7.8000,4.269
7.8400,4.217
7.8800,4.284
7.9200,4.176
7.9600,4.266
8.0000,4.234
8.0400,4.218
8.0800,4.176
8.1200,4.067
8.1600,4.169
8.2000,4.026
8.2400,4.093
8.2800,4.081
8.3200,4.154
8.3600,4.140
8.4000,4.023
8.4400,4.106
8.4800,4.173
8.5200,4.012
8.5600,4.049
8.6000,3.966
8.6400,3.987
8.6800,3.977
8.7200,3.961
8.7600,3.897
8.8000,3.830
8.8400,3.895
8.8800,4.032
8.9200,3.851
8.9600,3.885
9.0000,3.880
9.0400,3.798
9.0800,3.859
9.1200,3.883
9.1600,3.927
9.2000,3.815
9.2400,3.837
9.2800,3.863
9.3200,3.896
9.3600,3.817
9.4000,3.954
9.4400,3.903
9.4800,3.710
9.5200,3.769
9.5600,3.808
9.6000,3.871
9.6400,3.795
9.6800,3.736
9.7200,3.747
9.7600,3.686
9.8000,3.678
9.8400,3.804
9.8800,3.678
9.9200,3.668
9.9600,3.775
10.0000,3.643
10.0400,3.761
10.0800,3.684
10.1200,3.630
10.1600,3.680
10.2000,3.713
10.2400,3.642
10.2800,3.731
10.3200,3.710
10.3600,3.674
10.4000,3.661
10.4400,3.533
10.4800,3.640
10.5200,3.739
10.5600,3.750
10.6000,3.517
10.6400,3.675
10.6800,3.674
10.7200,3.559
10.7600,3.548
10.8000,3.475
10.8400,3.660
10.8800,3.585
10.9200,3.672
10.9600,3.574
11.0000,3.536
11.0400,3.540
11.0800,3.547
11.1200,3.586
11.1600,3.574
11.2000,3.563
11.2400,3.435
11.2800,3.595
11.3200,3.520
11.3600,3.549
11.4000,3.606
11.4400,3.635
11.4800,3.512
11.5200,3.560
11.5600,3.541
11.6000,3.602
11.6400,3.453
11.6800,3.460
11.7200,3.500
11.7600,3.488
11.8000,3.516
11.8400,3.507
11.8800,3.495
11.9200,3.482
11.9600,3.482
12.0000,3.479
12.0400,3.501
12.0800,3.452
12.1200,3.513
12.1600,3.527
12.2000,3.481
12.2400,3.522
12.2800,3.587
12.3200,3.425
12.3600,3.396
12.4000,3.459
12.4400,3.379
12.4800,3.440
12.5200,3.390
12.5600,3.516
12.6000,3.492
12.6400,3.391
12.6800,3.387
12.7200,3.473
12.7600,3.462
12.8000,3.443
12.8400,3.411
12.8800,3.343
12.9200,3.330
12.9600,3.368
13.0000,3.292
13.0400,3.339
13.0800,3.340
13.1200,3.347
13.1600,3.293
13.2000,3.338
13.2400,3.376
13.2800,3.298
13.3200,3.305
13.3600,3.392
13.4000,3.343
13.4400,3.402
13.4800,3.368
13.5200,3.424
13.5600,3.370
13.6000,3.336
13.6400,3.358
13.6800,3.383
13.7200,3.387
13.7600,3.273
13.8000,3.362
13.8400,3.416
13.8800,3.226
13.9200,3.328
13.9600,3.369
14.0000,3.404
14.0400,3.357
14.0800,3.247
14.1200,3.334
14.1600,3.242
14.2000,3.294
14.2400,3.338
14.2800,3.178
14.3200,3.324
14.3600,3.254
14.4000,3.189
14.4400,3.272
14.4800,3.308
14.5200,3.147
14.5600,3.173
14.6000,3.342
14.6400,3.256
14.6800,3.254
14.7200,3.279
14.7600,3.191
14.8000,3.314
14.8400,3.174
14.8800,3.243
14.9200,3.210
14.9600,3.153
15.0000,3.159
15.0400,3.143
15.0800,3.207
15.1200,3.232
15.1600,3.179
15.2000,3.061
15.2400,3.182
15.2800,3.320
15.3200,3.233
15.3600,3.188
15.4000,3.219
15.4400,3.145
15.4800,3.147
15.5200,3.187
15.5600,3.189
15.6000,3.090
15.6400,3.109
15.6800,3.131
15.7200,3.194
15.7600,3.097
15.8000,3.116
15.8400,3.187
15.8800,3.084
15.9200,3.072
15.9600,3.104
16.0000,3.117
16.0400,3.148
16.0800,3.094
16.1200,3.212
16.1600,3.072
16.2000,3.038
16.2400,3.010
16.2800,3.023
16.3200,3.139
16.3600,3.075
16.4000,3.159
16.4400,3.053
16.4800,3.060
16.5200,3.002
16.5600,3.032
16.6000,3.035
16.6400,3.044
16.6800,3.071
16.7200,3.074
16.7600,2.919
16.8000,3.036
16.8400,2.963
16.8800,3.002
16.9200,3.048
16.9600,3.074
17.0000,3.050
17.0400,3.034
17.0800,2.978
17.1200,3.042
17.1600,3.043
17.2000,3.034
17.2400,2.991
17.2800,2.964
17.3200,2.979
17.3600,2.938
17.4000,2.886
17.4400,2.847
17.4800,2.893
17.5200,2.926
17.5600,2.887
17.6000,2.884
17.6400,2.973
17.6800,2.980
17.7200,2.972
17.7600,2.959
17.8000,2.882
17.8400,2.846
17.8800,2.894
17.9200,2.949
17.9600,2.993
18.0000,2.967
18.0400,2.954
18.0800,2.856
18.1200,2.855
18.1600,2.907
18.2000,2.916
18.2400,2.918
18.2800,2.836
18.3200,2.891
18.3600,2.808
18.4000,2.866
18.4400,2.809
18.4800,2.861
18.5200,2.893
18.5600,2.910
18.6000,2.875
18.6400,2.884
18.6800,2.770
18.7200,2.848
18.7600,2.750
18.8000,2.813
18.8400,2.832
18.8800,2.880
18.9200,2.728
18.9600,2.769
19.0000,2.791
19.0400,2.874
19.0800,2.786
19.1200,2.735
19.1600,2.728
19.2000,2.712
19.2400,2.713
19.2800,2.824
19.3200,2.821
19.3600,2.825
19.4000,2.757
19.4400,2.739
19.4800,2.695
19.5200,2.789
19.5600,2.792
19.6000,2.844
19.6400,2.809
19.6800,2.765
19.7200,2.728
19.7600,2.646
19.8000,2.760
19.8400,2.848
19.8800,2.729
19.9200,2.730
19.9600,2.701
20.0000,2.671
20.0400,2.735
20.0800,2.699
20.1200,2.720
20.1600,2.676
20.2000,2.648
20.2400,2.679
20.2800,2.608
20.3200,2.661
20.3600,2.676
20.4000,2.698
20.4400,2.688
20.4800,2.631
20.5200,2.654
20.5600,2.742
20.6000,2.641
20.6400,2.719
20.6800,2.713
20.7200,2.640
20.7600,2.580
20.8000,2.631
20.8400,2.649
20.8800,2.689
20.9200,2.574
20.9600,2.719
21.0000,2.677
21.0400,2.589
21.0800,2.587
21.1200,2.601
21.1600,2.634
21.2000,2.603
21.2400,2.638
21.2800,2.583
21.3200,2.536
21.3600,2.652
21.4000,2.668
21.4400,2.617
21.4800,2.638
21.5200,2.613
21.5600,2.538
21.6000,2.592
21.6400,2.631
21.6800,2.527
21.7200,2.574
21.7600,2.570
21.8000,2.603
21.8400,2.564
21.8800,2.625
21.9200,2.556
21.9600,2.531
22.0000,2.463
22.0400,2.512
22.0800,2.536
22.1200,2.461
22.1600,2.488
22.2000,2.573
22.2400,2.529
22.2800,2.457
22.3200,2.573
22.3600,2.588
22.4000,2.523
22.4400,2.552
22.4800,2.483
22.5200,2.532
22.5600,2.400
22.6000,2.498
22.6400,2.506
22.6800,2.473
22.7200,2.519
22.7600,2.555
22.8000,2.475
22.8400,2.474
22.8800,2.488
22.9200,2.418
22.9600,2.388
23.0000,2.405
23.0400,2.411
23.0800,2.489
23.1200,2.424
23.1600,2.430
23.2000,2.432
23.2400,2.465
23.2800,2.353
23.3200,2.444
23.3600,2.450
23.4000,2.487
23.4400,2.317
23.4800,2.475
23.5200,2.409
23.5600,2.376
23.6000,2.380
23.6400,2.460
23.6800,2.507
23.7200,2.485
23.7600,2.562
23.8000,2.480
23.8400,2.563
23.8800,2.541
23.9200,2.584
23.9600,2.604
24.0000,2.536
24.0400,2.636
24.0800,2.511
24.1200,2.587
24.1600,2.499
24.2000,2.416
24.2400,2.420
24.2800,2.496
24.3200,2.459
24.3600,2.418
24.4000,2.413
24.4400,2.357
24.4800,2.325
24.5200,2.321
24.5600,2.424
24.6000,2.279
24.6400,2.361
24.6800,2.308
24.7200,2.284
24.7600,2.343
24.8000,2.312
24.8400,2.322
24.8800,2.325
24.9200,2.243
24.9600,2.287
25.0000,2.244
25.0400,2.292
25.0800,2.356
25.1200,2.203
25.1600,2.282
25.2000,2.388
25.2400,2.297
25.2800,2.337
25.3200,2.282
25.3600,2.276
25.4000,2.319
25.4400,2.220
25.4800,2.208
25.5200,2.249
25.5600,2.308
25.6000,2.206
25.6400,2.225
25.6800,2.263
25.7200,2.191
25.7600,2.204
25.8000,2.221
25.8400,2.210
25.8800,2.250
25.9200,2.187
25.9600,2.215
26.0000,2.180
26.0400,2.174
26.0800,2.196
26.1200,2.159
26.1600,2.175
26.2000,2.246
26.2400,2.232
26.2800,2.203
26.3200,2.173
26.3600,2.195
26.4000,2.141
26.4400,2.158
26.4800,2.150
26.5200,2.222
26.5600,2.114
26.6000,2.196
26.6400,2.182
26.6800,2.188
26.7200,2.076
26.7600,2.118
26.8000,2.186
26.8400,2.230
26.8800,2.092
26.9200,2.098
26.9600,2.057
27.0000,2.154
27.0400,2.112
27.0800,2.127
27.1200,2.137
27.1600,2.100
27.2000,2.120
27.2400,2.166
27.2800,2.083
27.3200,2.088
27.3600,2.087
27.4000,2.182
27.4400,2.078
27.4800,2.084
27.5200,2.089
27.5600,2.016
27.6000,2.092
27.6400,1.996
27.6800,1.991
27.7200,2.093
27.7600,2.083
27.8000,2.037
27.8400,2.023
27.8800,2.063
27.9200,2.080
27.9600,2.020
28.0000,1.973
28.0400,2.009
28.0800,2.022
28.1200,2.022
28.1600,2.067
28.2000,2.003
28.2400,2.031
28.2800,1.971
28.3200,2.057
28.3600,1.964
28.4000,2.032
28.4400,1.992
28.4800,1.985
28.5200,2.018
28.5600,1.959
28.6000,1.964
28.6400,1.967
28.6800,1.996
28.7200,2.056
28.7600,1.952
28.8000,1.928
28.8400,1.932
28.8800,1.913
28.9200,1.991
28.9600,2.005
29.0000,1.938
29.0400,1.923
29.0800,2.014
29.1200,1.930
29.1600,1.893
29.2000,1.953
29.2400,1.971
29.2800,1.962
29.3200,1.976
29.3600,2.002
29.4000,1.955
29.4400,1.980
29.4800,1.913
29.5200,1.925
29.5600,1.920
29.6000,1.912
29.6400,1.982
29.6800,1.972
29.7200,1.900
29.7600,1.946
29.8000,1.921
29.8400,1.872
29.8800,1.891
29.9200,1.839
29.9600,1.910
30.0000,1.972
30.0400,1.927
30.0800,1.850
30.1200,1.928
30.1600,1.863
30.2000,1.970
30.2400,1.932
30.2800,1.924
30.3200,1.913
30.3600,1.948
30.4000,1.883
30.4400,1.896
30.4800,1.865
30.5200,1.906
30.5600,1.912
30.6000,1.906
30.6400,1.903
30.6800,1.893
30.7200,1.939
30.7600,1.989
30.8000,1.886
30.8400,1.952
30.8800,1.929
30.9200,1.976
30.9600,2.023
31.0000,2.062
31.0400,1.999
31.0800,1.998
31.1200,2.029
31.1600,2.037
31.2000,2.055
31.2400,2.065
31.2800,1.992
31.3200,2.015
31.3600,2.093
31.4000,2.107
31.4400,2.148
31.4800,2.215
31.5200,2.171
31.5600,2.137
31.6000,2.211
31.6400,2.280
31.6800,2.346
31.7200,2.323
31.7600,2.351
31.8000,2.380
31.8400,2.417
31.8800,2.371
31.9200,2.393
31.9600,2.368
32.0000,2.372
32.0400,2.373
32.0800,2.314
32.1200,2.229
32.1600,2.216
32.2000,2.195
32.2400,2.199
32.2800,2.112
32.3200,2.038
32.3600,2.121
32.4000,2.014
32.4400,2.016
32.4800,1.954
32.5200,1.916
32.5600,1.977
32.6000,2.019
32.6400,1.929
32.6800,1.875
32.7200,1.899
32.7600,1.851
32.8000,1.828
32.8400,1.868
32.8800,1.901
32.9200,1.805
32.9600,1.809
33.0000,1.916
33.0400,2.090
33.0800,1.961
33.1200,1.742
33.1600,1.860
33.2000,1.760
33.2400,1.777
33.2800,1.760
33.3200,1.778
33.3600,1.779
33.4000,1.758
33.4400,1.803
33.4800,1.798
33.5200,1.776
33.5600,1.757
33.6000,1.823
33.6400,1.877
33.6800,1.844
33.7200,1.795
33.7600,1.770
33.8000,1.844
33.8400,1.914
33.8800,1.850
33.9200,1.951
33.9600,1.883
34.0000,2.008
34.0400,1.885
34.0800,2.067
34.1200,1.982
34.1600,2.011
34.2000,1.993
34.2400,2.002
34.2800,1.979
34.3200,2.097
34.3600,2.067
34.4000,2.057
34.4400,2.093
34.4800,2.067
34.5200,2.049
34.5600,2.071
34.6000,2.070
34.6400,2.077
34.6800,1.970
34.7200,2.103
34.7600,2.056
34.8000,1.974
34.8400,1.934
34.8800,1.981
34.9200,1.971
34.9600,1.846
35.0000,1.907
35.0400,1.817
35.0800,1.944
35.1200,1.886
35.1600,1.834
35.2000,1.815
35.2400,1.800
35.2800,1.775
35.3200,1.900
35.3600,1.827
35.4000,1.806
35.4400,1.931
35.4800,1.803
35.5200,1.874
35.5600,1.851
35.6000,1.784
35.6400,1.973
35.6800,1.934
35.7200,1.968
35.7600,1.916
35.8000,2.038
35.8400,2.077
35.8800,2.041
35.9200,2.073
35.9600,2.105
36.0000,2.064
36.0400,2.175
36.0800,2.249
36.1200,2.258
36.1600,2.179
36.2000,2.299
36.2400,2.235
36.2800,2.299
36.3200,2.353
36.3600,2.275
36.4000,2.280
36.4400,2.173
36.4800,2.078
36.5200,2.188
36.5600,2.119
36.6000,2.095
36.6400,2.004
36.6800,1.984
36.7200,1.891
36.7600,1.895
36.8000,1.929
36.8400,1.920
36.8800,1.794
36.9200,1.865
36.9600,1.746
37.0000,1.800
37.0400,1.719
37.0800,1.680
37.1200,1.648
37.1600,1.621
37.2000,1.654
37.2400,1.622
37.2800,1.613
37.3200,1.566
37.3600,1.586
37.4000,1.551
37.4400,1.519
37.4800,1.550
37.5200,1.575
37.5600,1.512
37.6000,1.450
37.6400,1.476
37.6800,1.484
37.7200,1.428
37.7600,1.397
37.8000,1.457
37.8400,1.484
37.8800,1.516
37.9200,1.475
37.9600,1.371
38.0000,1.393
38.0400,1.363
38.0800,1.420
38.1200,1.420
38.1600,1.421
38.2000,1.370
38.2400,1.475
38.2800,1.430
38.3200,1.394
38.3600,1.345
38.4000,1.329
38.4400,1.293
38.4800,1.294
38.5200,1.396
38.5600,1.361
38.6000,1.347
38.6400,1.401
38.6800,1.410
38.7200,1.393
38.7600,1.335
38.8000,1.396
38.8400,1.348
38.8800,1.391
38.9200,1.322
38.9600,1.368
39.0000,1.310
39.0400,1.300
39.0800,1.288
39.1200,1.351
39.1600,1.360
39.2000,1.361
39.2400,1.356
39.2800,1.341
39.3200,1.266
39.3600,1.270
39.4000,1.314
39.4400,1.342
39.4800,1.345
39.5200,1.294
39.5600,1.330
39.6000,1.369
39.6400,1.294
39.6800,1.268
39.7200,1.247
39.7600,1.331
39.8000,1.290
39.8400,1.319
39.8800,1.330
39.9200,1.327
39.9600,1.349
40.0000,1.386
40.0400,1.341
40.0800,1.363
40.1200,1.326
40.1600,1.371
40.2000,1.344
40.2400,1.402
40.2800,1.368
40.3200,1.355
40.3600,1.391
40.4000,1.354
40.4400,1.377
40.4800,1.401
40.5200,1.438
40.5600,1.400
40.6000,1.448
40.6400,1.465
40.6800,1.496
40.7200,1.552
40.7600,1.538
40.8000,1.580
40.8400,1.653
40.8800,1.769
40.9200,1.852
40.9600,1.897
41.0000,1.991
41.0400,2.083
41.0800,2.189
41.1200,2.428
41.1600,2.541
41.2000,2.657
41.2400,2.821
41.2800,2.873
41.3200,2.856
41.3600,2.845
41.4000,2.754
41.4400,2.641
41.4800,2.546
41.5200,2.397
41.5600,2.440
41.6000,2.399
41.6400,2.380
41.6800,2.290
41.7200,2.296
41.7600,2.324
41.8000,2.392
41.8400,2.446
41.8800,2.444
41.9200,2.455
41.9600,2.529
42.0000,2.530
42.0400,2.538
42.0800,2.402
42.1200,2.460
42.1600,2.361
42.2000,2.356
42.2400,2.261
42.2800,2.200
42.3200,2.126
42.3600,1.912
42.4000,1.945
42.4400,1.855
42.4800,1.791
42.5200,1.777
42.5600,1.677
42.6000,1.549
42.6400,1.576
42.6800,1.593
42.7200,1.494
42.7600,1.438
42.8000,1.398
42.8400,1.330
42.8800,1.365
42.9200,1.363
42.9600,1.312
43.0000,1.313
43.0400,1.384
43.0800,1.345
43.1200,1.332
43.1600,1.304
43.2000,1.321
43.2400,1.249
43.2800,1.285
43.3200,1.297
43.3600,1.308
43.4000,1.274
43.4400,1.222
43.4800,1.293
43.5200,1.279
43.5600,1.277
43.6000,1.288
43.6400,1.284
43.6800,1.280
43.7200,1.287
43.7600,1.293
43.8000,1.276
43.8400,1.333
43.8800,1.352
43.9200,1.359
43.9600,1.393
44.0000,1.402
44.0400,1.370
44.0800,1.410
44.1200,1.393
44.1600,1.443
44.2000,1.389
44.2400,1.436
44.2800,1.414
44.3200,1.408
44.3600,1.367
44.4000,1.359
44.4400,1.316
44.4800,1.259
44.5200,1.268
44.5600,1.225
44.6000,1.182
44.6400,1.159
44.6800,1.162
44.7200,1.182
44.7600,1.100
44.8000,1.117
44.8400,1.139
44.8800,1.068
44.9200,1.052
44.9600,1.035
45.0000,1.045
45.0400,1.037
45.0800,1.044
45.1200,1.051
45.1600,1.039
45.2000,1.003
45.2400,1.013
45.2800,1.035
45.3200,1.034
45.3600,1.014
45.4000,0.997
45.4400,0.945
45.4800,1.011
45.5200,0.981
45.5600,0.980
45.6000,0.966
45.6400,0.966
45.6800,1.018
45.7200,1.057
45.7600,0.970
45.8000,1.022
45.8400,1.051
45.8800,0.993
45.9200,0.978
45.9600,1.019
46.0000,0.949
46.0400,0.942
46.0800,0.941
46.1200,0.999
46.1600,0.948
46.2000,1.055
46.2400,0.937
46.2800,0.956
46.3200,0.965
46.3600,0.990
46.4000,0.987
46.4400,0.953
46.4800,0.996
46.5200,1.046
46.5600,1.005
46.6000,1.054
46.6400,0.960
46.6800,0.942
46.7200,0.989
46.7600,1.028
46.8000,0.943
46.8400,0.949
46.8800,1.043
46.9200,0.992
46.9600,1.003
47.0000,1.018
47.0400,0.942
47.0800,1.015
47.1200,1.026
47.1600,0.980
47.2000,0.997
47.2400,0.959
47.2800,0.974
47.3200,0.961
47.3600,0.968
47.4000,0.988
47.4400,0.977
47.4800,1.004
47.5200,0.955
47.5600,0.910
47.6000,0.908
47.6400,0.976
47.6800,0.919
47.7200,0.896
47.7600,0.983
47.8000,0.952
47.8400,0.994
47.8800,0.962
47.9200,0.976
47.9600,0.978
48.0000,0.977
48.0400,0.925
48.0800,0.918
48.1200,0.942
48.1600,0.946
48.2000,0.949
48.2400,0.934
48.2800,0.956
48.3200,0.897
48.3600,0.856
48.4000,0.947
48.4400,0.881
48.4800,0.884
48.5200,0.891
48.5600,0.894
48.6000,0.937
48.6400,0.872
48.6800,0.925
48.7200,0.858
48.7600,0.905
48.8000,0.935
48.8400,0.889
48.8800,0.885
48.9200,0.868
48.9600,0.865
49.0000,0.879
49.0400,0.908
49.0800,0.893
49.1200,0.893
49.1600,0.869
49.2000,0.858
49.2400,0.860
49.2800,0.860
49.3200,0.876
49.3600,0.832
49.4000,0.902
49.4400,0.858
49.4800,0.860
49.5200,0.844
49.5600,0.828
49.6000,0.812
49.6400,0.826
49.6800,0.812
49.7200,0.832
49.7600,0.840
49.8000,0.832
49.8400,0.775
49.8800,0.792
49.9200,0.814
49.9600,0.891
50.0000,0.838
50.0400,0.819
50.0800,0.808
50.1200,0.793
50.1600,0.797
50.2000,0.788
50.2400,0.836
50.2800,0.823
50.3200,0.814
50.3600,0.784
50.4000,0.830
50.4400,0.840
50.4800,0.761
50.5200,0.803
50.5600,0.781
50.6000,0.800
50.6400,0.772
50.6800,0.807
50.7200,0.857
50.7600,0.816
50.8000,0.777
50.8400,0.786
50.8800,0.769
50.9200,0.754
50.9600,0.824
51.0000,0.795
51.0400,0.765
51.0800,0.777
51.1200,0.782
51.1600,0.761
51.2000,0.777
51.2400,0.752
51.2800,0.783
51.3200,0.779
51.3600,0.786
51.4000,0.784
51.4400,0.764
51.4800,0.782
51.5200,0.721
51.5600,0.736
51.6000,0.740
51.6400,0.790
51.6800,0.762
51.7200,0.775
51.7600,0.753
51.8000,0.777
51.8400,0.765
51.8800,0.757
51.9200,0.760
51.9600,0.720
52.0000,0.765
52.0400,0.732
52.0800,0.746
52.1200,0.766
52.1600,0.786
52.2000,0.729
52.2400,0.732
52.2800,0.767
52.3200,0.767
52.3600,0.791
52.4000,0.750
52.4400,0.784
52.4800,0.754
52.5200,0.780
52.5600,0.767
52.6000,0.764
52.6400,0.688
52.6800,0.720
52.7200,0.755
52.7600,0.744
52.8000,0.754
52.8400,0.735
52.8800,0.719
52.9200,0.752
52.9600,0.739
53.0000,0.694
53.0400,0.763
53.0800,0.729
53.1200,0.741
53.1600,0.751
53.2000,0.756
53.2400,0.743
53.2800,0.726
53.3200,0.736
53.3600,0.750
53.4000,0.691
53.4400,0.723
53.4800,0.698
53.5200,0.767
53.5600,0.724
53.6000,0.753
53.6400,0.714
53.6800,0.728
53.7200,0.688
53.7600,0.755
53.8000,0.710
53.8400,0.679
53.8800,0.656
53.9200,0.703
53.9600,0.724
54.0000,0.720
54.0400,0.727
54.0800,0.755
54.1200,0.721
54.1600,0.747
54.2000,0.712
54.2400,0.678
54.2800,0.619
54.3200,0.711
54.3600,0.720
54.4000,0.701
54.4400,0.708
54.4800,0.714
54.5200,0.697
54.5600,0.714
54.6000,0.684
54.6400,0.692
54.6800,0.690
54.7200,0.683
54.7600,0.743
54.8000,0.727
54.8400,0.717
54.8800,0.729
54.9200,0.703
54.9600,0.739
55.0000,0.705
55.0400,0.722
55.0800,0.742
55.1200,0.760
55.1600,0.748
55.2000,0.744
55.2400,0.714
55.2800,0.722
55.3200,0.740
55.3600,0.791
55.4000,0.751
55.4400,0.762
55.4800,0.727
55.5200,0.710
55.5600,0.744
55.6000,0.755
55.6400,0.736
55.6800,0.721
55.7200,0.729
55.7600,0.742
55.8000,0.748
55.8400,0.711
55.8800,0.761
55.9200,0.701
55.9600,0.765
56.0000,0.761
56.0400,0.765
56.0800,0.814
56.1200,0.767
56.1600,0.807
56.2000,0.792
56.2400,0.775
56.2800,0.800
56.3200,0.808
56.3600,0.803
56.4000,0.812
56.4400,0.803
56.4800,0.790
56.5200,0.842
56.5600,0.846
56.6000,0.863
56.6400,0.814
56.6800,0.822
56.7200,0.820
56.7600,0.888
56.8000,0.837
56.8400,0.810
56.8800,0.841
56.9200,0.809
56.9600,0.813
57.0000,0.758
57.0400,0.804
57.0800,0.799
57.1200,0.775
57.1600,0.754
57.2000,0.778
57.2400,0.761
57.2800,0.736
57.3200,0.729
57.3600,0.746
57.4000,0.734
57.4400,0.757
57.4800,0.733
57.5200,0.767
57.5600,0.743
57.6000,0.671
57.6400,0.681
57.6800,0.667
57.7200,0.726
57.7600,0.701
57.8000,0.713
57.8400,0.642
57.8800,0.639
57.9200,0.700
57.9600,0.673
58.0000,0.673
58.0400,0.656
58.0800,0.670
58.1200,0.667
58.1600,0.673
58.2000,0.602
58.2400,0.667
58.2800,0.658
58.3200,0.677
58.3600,0.587
58.4000,0.574
58.4400,0.618
58.4800,0.632
58.5200,0.608
58.5600,0.628
58.6000,0.623
58.6400,0.639
58.6800,0.656
58.7200,0.641
58.7600,0.651
58.8000,0.602
58.8400,0.628
58.8800,0.682
58.9200,0.631
58.9600,0.652
59.0000,0.615
59.0400,0.624
59.0800,0.633
59.1200,0.657
59.1600,0.637
59.2000,0.619
59.2400,0.655
59.2800,0.620
59.3200,0.595
59.3600,0.601
59.4000,0.605
59.4400,0.644
59.4800,0.627
59.5200,0.582
59.5600,0.623
59.6000,0.619
59.6400,0.568
59.6800,0.570
59.7200,0.604
59.7600,0.623
59.8000,0.662
59.8400,0.611
59.8800,0.605
59.9200,0.587
59.9600,0.610
60.0000,0.592
60.0400,0.605
60.0800,0.606
60.1200,0.636
60.1600,0.607
60.2000,0.600
60.2400,0.666
60.2800,0.629
60.3200,0.603
60.3600,0.640
60.4000,0.627
60.4400,0.640
60.4800,0.649
60.5200,0.614
60.5600,0.610
60.6000,0.628
60.6400,0.634
60.6800,0.631
60.7200,0.625
60.7600,0.673
60.8000,0.635
60.8400,0.635
60.8800,0.646
60.9200,0.661
60.9600,0.634
61.0000,0.623
61.0400,0.601
61.0800,0.645
61.1200,0.646
61.1600,0.632
61.2000,0.637
61.2400,0.631
61.2800,0.644
61.3200,0.610
61.3600,0.648
61.4000,0.607
61.4400,0.609
61.4800,0.638
61.5200,0.615
61.5600,0.635
61.6000,0.628
61.6400,0.680
61.6800,0.653
61.7200,0.687
61.7600,0.655
61.8000,0.592
61.8400,0.607
61.8800,0.612
61.9200,0.626
61.9600,0.635
62.0000,0.670
62.0400,0.648
62.0800,0.655
62.1200,0.649
62.1600,0.678
62.2000,0.606
62.2400,0.615
62.2800,0.624
62.3200,0.621
62.3600,0.628
62.4000,0.617
62.4400,0.617
62.4800,0.676
62.5200,0.632
62.5600,0.668
62.6000,0.638
62.6400,0.619
62.6800,0.644
62.7200,0.665
62.7600,0.633
62.8000,0.608
62.8400,0.679
62.8800,0.682
62.9200,0.642
62.9600,0.642
63.0000,0.649
63.0400,0.651
63.0800,0.677
63.1200,0.622
63.1600,0.649
63.2000,0.645
63.2400,0.675
63.2800,0.679
63.3200,0.677
63.3600,0.647
63.4000,0.647
63.4400,0.658
63.4800,0.647
63.5200,0.632
63.5600,0.686
63.6000,0.639
63.6400,0.650
63.6800,0.643
63.7200,0.643
63.7600,0.679
63.8000,0.632
63.8400,0.632
63.8800,0.648
63.9200,0.680
63.9600,0.657
64.0000,0.658
64.0400,0.692
64.0800,0.672
64.1200,0.673
64.1600,0.704
64.2000,0.668
64.2400,0.683
64.2800,0.684
64.3200,0.686
64.3600,0.697
64.4000,0.689
64.4400,0.667
64.4800,0.690
64.5200,0.646
64.5600,0.670
64.6000,0.662
64.6400,0.655
64.6800,0.657
64.7200,0.692
64.7600,0.684
64.8000,0.643
64.8400,0.660
64.8800,0.666
64.9200,0.634
64.9600,0.651
65.0000,0.626
65.0400,0.635
65.0800,0.640
65.1200,0.668
65.1600,0.659
65.2000,0.620
65.2400,0.601
65.2800,0.665
65.3200,0.657
65.3600,0.687
65.4000,0.682
65.4400,0.720
65.4800,0.670
65.5200,0.709
65.5600,0.689
65.6000,0.685
65.6400,0.716
65.6800,0.691
65.7200,0.674
65.7600,0.715
65.8000,0.716
65.8400,0.751
65.8800,0.723
65.9200,0.770
65.9600,0.753
66.0000,0.790
66.0400,0.737
66.0800,0.766
66.1200,0.781
66.1600,0.801
66.2000,0.828
66.2400,0.812
66.2800,0.841
66.3200,0.901
66.3600,0.821
66.4000,0.848
66.4400,0.840
66.4800,0.830
66.5200,0.910
66.5600,0.920
66.6000,0.955
66.6400,0.918
66.6800,0.927
66.7200,0.970
66.7600,0.994
66.8000,0.985
66.8400,1.010
66.8800,1.056
66.9200,1.024
66.9600,1.075
67.0000,1.086
67.0400,1.088
67.0800,1.134
67.1200,1.121
67.1600,1.187
67.2000,1.115
67.2400,1.202
67.2800,1.202
67.3200,1.245
67.3600,1.308
67.4000,1.353
67.4400,1.322
67.4800,1.350
67.5200,1.370
67.5600,1.389
67.6000,1.417
67.6400,1.505
67.6800,1.522
67.7200,1.519
67.7600,1.553
67.8000,1.635
67.8400,1.601
67.8800,1.731
67.9200,1.721
67.9600,1.789
68.0000,1.871
68.0400,1.825
68.0800,1.885
68.1200,1.948
68.1600,2.034
68.2000,2.025
68.2400,2.134
68.2800,2.210
68.3200,2.285
68.3600,2.367
68.4000,2.489
68.4400,2.539
68.4800,2.662
68.5200,2.857
68.5600,3.006
68.6000,3.119
68.6400,3.369
68.6800,3.815
68.7200,4.671
68.7600,6.128
68.8000,7.655
68.8400,8.295
68.8800,8.420
68.9200,8.979
68.9600,11.024
69.0000,16.157
69.0400,28.993
69.0800,86.237
69.1200,393.674
69.1600,584.766
69.2000,285.627
69.2400,73.135
69.2800,71.789
69.3200,222.086
69.3600,295.605
69.4000,139.512
69.4400,35.148
69.4800,15.900
69.5200,10.614
69.5600,8.109
69.6000,6.656
69.6400,5.650
69.6800,4.973
69.7200,4.602
69.7600,4.043
69.8000,3.742
69.8400,3.471
69.8800,3.286
69.9200,3.064
69.9600,3.065
70.0000,2.890
70.0400,2.771
70.0800,2.633
70.1200,2.475
70.1600,2.334
70.2000,2.230
70.2400,2.185
70.2800,2.233
70.3200,2.096
70.3600,1.972
70.4000,1.891
70.4400,1.874
70.4800,1.831
70.5200,1.719
70.5600,1.729
70.6000,1.611
70.6400,1.713
70.6800,1.572
70.7200,1.571
70.7600,1.467
70.8000,1.529
70.8400,1.402
70.8800,1.375
70.9200,1.326
70.9600,1.349
71.0000,1.316
71.0400,1.269
71.0800,1.152
71.1200,1.224
71.1600,1.186
71.2000,1.176
71.2400,1.073
71.2800,1.108
71.3200,1.084
71.3600,1.010
71.4000,1.027
71.4400,1.001
71.4800,0.990
71.5200,0.976
71.5600,0.937
71.6000,0.857
71.6400,0.938
71.6800,0.881
71.7200,0.906
71.7600,0.810
71.8000,0.858
71.8400,0.837
71.8800,0.780
71.9200,0.826
71.9600,0.780
72.0000,0.762
72.0400,0.768
72.0800,0.798
72.1200,0.722
72.1600,0.732
72.2000,0.713
72.2400,0.728
72.2800,0.695
72.3200,0.720
72.3600,0.727
72.4000,0.678
72.4400,0.651
72.4800,0.675
72.5200,0.665
72.5600,0.669
72.6000,0.667
72.6400,0.632
72.6800,0.679
72.7200,0.639
72.7600,0.629
72.8000,0.673
72.8400,0.682
72.8800,0.664
72.9200,0.631
72.9600,0.610
73.0000,0.620
73.0400,0.623
73.0800,0.617
73.1200,0.620
73.1600,0.640
73.2000,0.597
73.2400,0.647
73.2800,0.572
73.3200,0.553
73.3600,0.595
73.4000,0.547
73.4400,0.562
73.4800,0.553
73.5200,0.540
73.5600,0.511
73.6000,0.515
73.6400,0.531
73.6800,0.486
73.7200,0.494
73.7600,0.512
73.8000,0.512
73.8400,0.491
73.8800,0.517
73.9200,0.516
73.9600,0.456
74.0000,0.510
74.0400,0.489
74.0800,0.488
74.1200,0.449
74.1600,0.464
74.2000,0.430
74.2400,0.441
74.2800,0.438
74.3200,0.437
74.3600,0.459
74.4000,0.448
74.4400,0.451
74.4800,0.426
74.5200,0.424
74.5600,0.416
74.6000,0.432
74.6400,0.442
74.6800,0.452
74.7200,0.444
74.7600,0.438
74.8000,0.429
74.8400,0.382
74.8800,0.415
74.9200,0.411
74.9600,0.443
75.0000,0.420
75.0400,0.405
75.0800,0.429
75.1200,0.396
75.1600,0.412
75.2000,0.413
75.2400,0.421
75.2800,0.396
75.3200,0.404
75.3600,0.365
75.4000,0.379
75.4400,0.353
75.4800,0.387
75.5200,0.416
75.5600,0.402
75.6000,0.427
75.6400,0.396
75.6800,0.381
75.7200,0.397
75.7600,0.390
75.8000,0.362
75.8400,0.352
75.8800,0.401
75.9200,0.382
75.9600,0.371
76.0000,0.426
76.0400,0.391
76.0800,0.392
76.1200,0.395
76.1600,0.368
76.2000,0.399
76.2400,0.383
76.2800,0.402
76.3200,0.446
76.3600,0.384
76.4000,0.393
76.4400,0.406
76.4800,0.399
76.5200,0.405
76.5600,0.394
76.6000,0.379
76.6400,0.401
76.6800,0.370
76.7200,0.404
76.7600,0.413
76.8000,0.388
76.8400,0.391
76.8800,0.412
76.9200,0.404
76.9600,0.425
77.0000,0.437
77.0400,0.419
77.0800,0.371
77.1200,0.377
77.1600,0.395
77.2000,0.400
77.2400,0.399
77.2800,0.383
77.3200,0.399
77.3600,0.406
77.4000,0.420
77.4400,0.388
77.4800,0.410
77.5200,0.384
77.5600,0.401
77.6000,0.383
77.6400,0.383
77.6800,0.344
77.7200,0.362
77.7600,0.388
77.8000,0.371
77.8400,0.376
77.8800,0.380
77.9200,0.368
77.9600,0.380
78.0000,0.357
78.0400,0.358
78.0800,0.384
78.1200,0.375
78.1600,0.376
78.2000,0.379
78.2400,0.361
78.2800,0.373
78.3200,0.356
78.3600,0.374
78.4000,0.357
78.4400,0.345
78.4800,0.389
78.5200,0.387
78.5600,0.379
78.6000,0.363
78.6400,0.361
78.6800,0.400
78.7200,0.368
78.7600,0.370
78.8000,0.429
78.8400,0.400
78.8800,0.386
78.9200,0.409
78.9600,0.400
79.0000,0.393
79.0400,0.392
79.0800,0.382
79.1200,0.430
79.1600,0.449
79.2000,0.424
79.2400,0.436
79.2800,0.419
79.3200,0.393
79.3600,0.406
79.4000,0.428
79.4400,0.434
79.4800,0.421
79.5200,0.381
79.5600,0.412
79.6000,0.375
79.6400,0.352
79.6800,0.379
79.7200,0.368
79.7600,0.343
79.8000,0.374
79.8400,0.366
79.8800,0.323
79.9200,0.335
79.9600,0.343
80.0000,0.327
