theta,intensity
5.0000,6.402
5.0400,6.226
5.0800,6.042
5.1200,6.116
5.1600,6.165
5.2000,5.891
5.2400,5.783
5.2800,5.796
5.3200,5.682
5.3600,5.632
5.4000,5.543
5.4400,5.505
5.4800,5.457
5.5200,5.232
5.5600,5.157
5.6000,5.027
5.6400,4.949
5.6800,4.938
5.7200,4.851
5.7600,4.727
5.8000,4.753
5.8400,4.596
5.8800,4.626
5.9200,4.478
5.9600,4.537
6.0000,4.459
6.0400,4.411
6.0800,4.388
6.1200,4.338
6.1600,4.362
6.2000,4.337
6.2400,4.390
6.2800,4.207
6.3200,4.303
6.3600,4.243
6.4000,4.203
6.4400,4.182
6.4800,4.097
6.5200,4.221
6.5600,4.200
6.6000,4.085
6.6400,4.277
6.6800,4.268
6.7200,4.189
6.7600,4.211
6.8000,4.189
6.8400,4.324
6.8800,4.087
6.9200,4.116
6.9600,4.112
7.0000,4.252
7.0400,4.157
7.0800,4.070
7.1200,4.064
7.1600,4.178
7.2000,4.159
7.2400,4.058
7.2800,4.118
7.3200,3.973
7.3600,4.095
7.4000,4.085
7.4400,4.010
7.4800,4.016
7.5200,4.027
7.5600,4.117
7.6000,4.024
7.6400,4.025
7.6800,4.034
7.7200,3.908
7.7600,3.917
7.8000,3.891
7.8400,4.002
7.8800,3.974
7.9200,3.957
7.9600,3.980
8.0000,3.950
8.0400,3.925
8.0800,3.999
8.1200,3.776
8.1600,4.005
8.2000,3.845
8.2400,3.933
8.2800,3.938
8.3200,3.953
8.3600,3.980
8.4000,3.913
8.4400,3.871
8.4800,3.876
8.5200,3.894
8.5600,3.876
8.6000,3.907
8.6400,3.802
8.6800,3.901
8.7200,3.958
8.7600,3.905
8.8000,3.771
8.8400,3.846
8.8800,3.803
8.9200,3.830
8.9600,3.734
9.0000,3.836
9.0400,3.797
9.0800,3.815
9.1200,3.750
9.1600,3.829
9.2000,3.809
9.2400,3.759
9.2800,3.743
9.3200,3.858
9.3600,3.691
9.4000,3.789
9.4400,3.675
9.4800,3.921
9.5200,3.734
9.5600,3.652
9.6000,3.705
9.6400,3.789
9.6800,3.747
9.7200,3.761
9.7600,3.761
9.8000,3.665
9.8400,3.717
9.8800,3.694
9.9200,3.704
9.9600,3.663
10.0000,3.658
10.0400,3.767
10.0800,3.829
10.1200,3.620
10.1600,3.763
10.2000,3.596
10.2400,3.678
10.2800,3.602
10.3200,3.747
10.3600,3.654
10.4000,3.691
10.4400,3.686
10.4800,3.545
10.5200,3.542
10.5600,3.493
10.6000,3.594
10.6400,3.636
10.6800,3.715
10.7200,3.658
10.7600,3.613
10.8000,3.632
10.8400,3.641
10.8800,3.617
10.9200,3.667
10.9600,3.615
11.0000,3.632
11.0400,3.510
11.0800,3.565
11.1200,3.570
11.1600,3.598
11.2000,3.512
11.2400,3.568
11.2800,3.553
11.3200,3.573
11.3600,3.570
11.4000,3.526
11.4400,3.648
11.4800,3.516
11.5200,3.488
11.5600,3.541
11.6000,3.533
11.6400,3.564
11.6800,3.525
11.7200,3.392
11.7600,3.485
11.8000,3.608
11.8400,3.503
11.8800,3.518
11.9200,3.466
11.9600,3.420
12.0000,3.453
12.0400,3.441
12.0800,3.466
12.1200,3.454
12.1600,3.507
12.2000,3.476
12.2400,3.372
12.2800,3.477
12.3200,3.539
12.3600,3.411
12.4000,3.418
12.4400,3.466
12.4800,3.483
12.5200,3.419
12.5600,3.422
12.6000,3.454
12.6400,3.410
12.6800,3.475
12.7200,3.437
12.7600,3.446
12.8000,3.422
12.8400,3.535
12.8800,3.376
12.9200,3.362
12.9600,3.384
13.0000,3.390
13.0400,3.311
13.0800,3.341
13.1200,3.424
13.1600,3.382
13.2000,3.380
13.2400,3.367
13.2800,3.413
13.3200,3.323
13.3600,3.221
13.4000,3.341
13.4400,3.408
13.4800,3.358
13.5200,3.376
13.5600,3.491
13.6000,3.388
13.6400,3.363
13.6800,3.300
13.7200,3.358
13.7600,3.360
13.8000,3.421
13.8400,3.341
13.8800,3.217
13.9200,3.310
13.9600,3.303
14.0000,3.336
14.0400,3.315
14.0800,3.348
14.1200,3.234
14.1600,3.171
14.2000,3.251
14.2400,3.331
14.2800,3.282
14.3200,3.262
14.3600,3.227
14.4000,3.237
14.4400,3.190
14.4800,3.188
14.5200,3.244
14.5600,3.305
14.6000,3.217
14.6400,3.238
14.6800,3.170
14.7200,3.155
14.7600,3.171
14.8000,3.190
14.8400,3.170
14.8800,3.261
14.9200,3.289
14.9600,3.177
15.0000,3.186
15.0400,3.218
15.0800,3.201
15.1200,3.098
15.1600,3.251
15.2000,3.125
15.2400,3.140
15.2800,3.217
15.3200,3.106
15.3600,3.127
15.4000,3.102
15.4400,3.208
15.4800,3.097
15.5200,3.114
15.5600,3.176
15.6000,3.146
15.6400,3.244
15.6800,3.082
15.7200,3.153
15.7600,3.118
15.8000,3.247
15.8400,3.102
15.8800,3.138
15.9200,3.114
15.9600,3.062
16.0000,3.122
16.0400,3.087
16.0800,3.057
16.1200,3.138
16.1600,3.051
16.2000,3.098
16.2400,2.992
16.2800,3.070
16.3200,3.028
16.3600,3.044
16.4000,3.027
16.4400,2.998
16.4800,3.032
16.5200,3.043
16.5600,3.112
16.6000,3.024
16.6400,3.003
16.6800,2.973
16.7200,2.961
16.7600,2.998
16.8000,2.992
16.8400,2.998
16.8800,3.053
16.9200,3.017
16.9600,3.030
17.0000,2.983
17.0400,3.040
17.0800,3.030
17.1200,2.997
17.1600,3.101
17.2000,3.005
17.2400,3.027
17.2800,2.897
17.3200,2.911
17.3600,2.986
17.4000,2.962
17.4400,2.958
17.4800,2.939
17.5200,2.949
17.5600,2.919
17.6000,2.852
17.6400,2.913
17.6800,2.884
17.7200,2.947
17.7600,2.927
17.8000,2.924
17.8400,2.947
17.8800,2.987
17.9200,2.864
17.9600,2.897
18.0000,2.969
18.0400,2.924
18.0800,2.911
18.1200,2.882
18.1600,2.962
18.2000,2.921
18.2400,2.863
18.2800,2.902
18.3200,2.910
18.3600,2.809
18.4000,2.844
18.4400,2.840
18.4800,2.796
18.5200,2.755
18.5600,2.848
18.6000,2.857
18.6400,2.826
18.6800,2.805
18.7200,2.798
18.7600,2.833
18.8000,2.770
18.8400,2.810
18.8800,2.779
18.9200,2.800
18.9600,2.876
19.0000,2.784
19.0400,2.864
19.0800,2.795
19.1200,2.779
19.1600,2.806
19.2000,2.811
19.2400,2.849
19.2800,2.764
19.3200,2.752
19.3600,2.735
19.4000,2.715
19.4400,2.764
19.4800,2.869
19.5200,2.763
19.5600,2.759
19.6000,2.875
19.6400,2.822
19.6800,2.879
19.7200,2.680
19.7600,2.706
19.8000,2.694
19.8400,2.612
19.8800,2.784
19.9200,2.738
19.9600,2.752
20.0000,2.699
20.0400,2.704
20.0800,2.719
20.1200,2.754
20.1600,2.652
20.2000,2.708
20.2400,2.737
20.2800,2.703
20.3200,2.727
20.3600,2.706
20.4000,2.679
20.4400,2.631
20.4800,2.679
20.5200,2.607
20.5600,2.737
20.6000,2.667
20.6400,2.619
20.6800,2.526
20.7200,2.640
20.7600,2.689
20.8000,2.652
20.8400,2.798
20.8800,2.668
20.9200,2.646
20.9600,2.701
21.0000,2.523
21.0400,2.602
21.0800,2.636
21.1200,2.659
21.1600,2.647
21.2000,2.593
21.2400,2.638
21.2800,2.541
21.3200,2.611
21.3600,2.626
21.4000,2.521
21.4400,2.505
21.4800,2.490
21.5200,2.599
21.5600,2.530
21.6000,2.540
21.6400,2.456
21.6800,2.577
21.7200,2.631
21.7600,2.531
21.8000,2.523
21.8400,2.553
21.8800,2.537
21.9200,2.502
21.9600,2.552
22.0000,2.496
22.0400,2.523
22.0800,2.520
22.1200,2.492
22.1600,2.550
22.2000,2.514
22.2400,2.397
22.2800,2.488
22.3200,2.514
22.3600,2.566
22.4000,2.561
22.4400,2.516
22.4800,2.507
22.5200,2.497
22.5600,2.513
22.6000,2.509
22.6400,2.498
22.6800,2.409
22.7200,2.454
22.7600,2.450
22.8000,2.368
22.8400,2.463
22.8800,2.511
22.9200,2.406
22.9600,2.393
23.0000,2.453
23.0400,2.445
23.0800,2.383
23.1200,2.464
23.1600,2.425
23.2000,2.464
23.2400,2.413
23.2800,2.373
23.3200,2.491
23.3600,2.409
23.4000,2.402
23.4400,2.347
23.4800,2.362
23.5200,2.416
23.5600,2.412
23.6000,2.466
23.6400,2.467
23.6800,2.335
23.7200,2.425
23.7600,2.443
23.8000,2.395
23.8400,2.384
23.8800,2.280
23.9200,2.349
23.9600,2.395
24.0000,2.403
24.0400,2.397
24.0800,2.366
24.1200,2.283
24.1600,2.361
24.2000,2.371
24.2400,2.378
24.2800,2.410
24.3200,2.347
24.3600,2.354
24.4000,2.368
24.4400,2.366
24.4800,2.252
24.5200,2.271
24.5600,2.309
24.6000,2.363
24.6400,2.319
24.6800,2.282
24.7200,2.338
24.7600,2.300
24.8000,2.260
24.8400,2.386
24.8800,2.356
24.9200,2.220
24.9600,2.269
25.0000,2.304
25.0400,2.246
25.0800,2.229
25.1200,2.151
25.1600,2.178
25.2000,2.205
25.2400,2.262
25.2800,2.233
25.3200,2.192
25.3600,2.173
25.4000,2.184
25.4400,2.242
25.4800,2.217
25.5200,2.312
25.5600,2.208
25.6000,2.224
25.6400,2.261
25.6800,2.244
25.7200,2.302
25.7600,2.213
25.8000,2.246
25.8400,2.228
25.8800,2.149
25.9200,2.243
25.9600,2.266
26.0000,2.294
26.0400,2.247
26.0800,2.157
26.1200,2.161
26.1600,2.194
26.2000,2.195
26.2400,2.173
26.2800,2.237
26.3200,2.261
26.3600,2.203
26.4000,2.220
26.4400,2.208
26.4800,2.201
26.5200,2.327
26.5600,2.275
26.6000,2.336
26.6400,2.356
26.6800,2.306
26.7200,2.399
26.7600,2.338
26.8000,2.342
26.8400,2.279
26.8800,2.297
26.9200,2.296
26.9600,2.304
27.0000,2.163
27.0400,2.178
27.0800,2.189
27.1200,2.139
27.1600,2.185
27.2000,2.158
27.2400,2.221
27.2800,2.127
27.3200,2.178
27.3600,2.064
27.4000,2.144
27.4400,2.117
27.4800,2.076
27.5200,2.056
27.5600,2.125
27.6000,2.101
27.6400,2.055
27.6800,2.007
27.7200,2.042
27.7600,2.048
27.8000,2.062
27.8400,2.046
27.8800,2.119
27.9200,1.989
27.9600,2.035
28.0000,2.030
28.0400,2.068
28.0800,1.962
28.1200,2.092
28.1600,2.041
28.2000,2.020
28.2400,1.950
28.2800,1.943
28.3200,2.003
28.3600,1.980
28.4000,2.004
28.4400,2.053
28.4800,2.062
28.5200,1.973
28.5600,1.977
28.6000,2.006
28.6400,1.970
28.6800,2.013
28.7200,1.971
28.7600,1.972
28.8000,2.043
28.8400,1.998
28.8800,2.060
28.9200,1.959
28.9600,1.900
29.0000,1.995
29.0400,2.006
29.0800,1.869
29.1200,1.919
29.1600,1.921
29.2000,1.939
29.2400,1.975
29.2800,1.956
29.3200,1.909
29.3600,1.893
29.4000,1.942
29.4400,1.901
29.4800,1.936
29.5200,1.936
29.5600,1.966
29.6000,1.926
29.6400,1.890
29.6800,1.917
29.7200,1.920
29.7600,1.849
29.8000,1.907
29.8400,1.946
29.8800,1.925
29.9200,1.903
29.9600,1.837
30.0000,1.915
30.0400,2.016
30.0800,1.954
30.1200,1.927
30.1600,1.924
30.2000,1.937
30.2400,1.941
30.2800,1.936
30.3200,1.855
30.3600,1.939
30.4000,1.927
30.4400,2.019
30.4800,1.944
30.5200,1.909
30.5600,1.972
30.6000,1.979
30.6400,2.027
30.6800,2.024
30.7200,2.069
30.7600,2.098
30.8000,2.191
30.8400,2.292
30.8800,2.251
30.9200,2.293
30.9600,2.224
31.0000,2.198
31.0400,2.067
31.0800,2.005
31.1200,2.015
31.1600,2.006
31.2000,2.020
31.2400,2.017
31.2800,1.941
31.3200,2.001
31.3600,2.109
31.4000,2.001
31.4400,2.008
31.4800,2.049
31.5200,2.043
31.5600,2.089
31.6000,2.048
31.6400,2.074
31.6800,2.093
31.7200,2.079
31.7600,2.132
31.8000,2.148
31.8400,2.139
31.8800,2.047
31.9200,2.073
31.9600,2.068
32.0000,2.088
32.0400,1.994
32.0800,2.046
32.1200,1.961
32.1600,1.985
32.2000,1.916
32.2400,1.949
32.2800,1.979
32.3200,1.933
32.3600,1.931
32.4000,1.835
32.4400,1.883
32.4800,1.832
32.5200,1.829
32.5600,1.807
32.6000,1.847
32.6400,1.828
32.6800,1.800
32.7200,1.753
32.7600,1.828
32.8000,1.729
32.8400,1.778
32.8800,1.769
32.9200,1.736
32.9600,1.683
33.0000,1.928
33.0400,1.969
33.0800,1.775
33.1200,1.684
33.1600,1.725
33.2000,1.668
33.2400,1.776
33.2800,1.713
33.3200,1.769
33.3600,1.727
33.4000,1.695
33.4400,1.689
33.4800,1.753
33.5200,1.649
33.5600,1.719
33.6000,1.692
33.6400,1.703
33.6800,1.694
33.7200,1.694
33.7600,1.757
33.8000,1.741
33.8400,1.711
33.8800,1.776
33.9200,1.762
33.9600,1.738
34.0000,1.760
34.0400,1.772
34.0800,1.777
34.1200,1.805
34.1600,1.868
34.2000,1.875
34.2400,1.790
34.2800,1.826
34.3200,1.871
34.3600,1.854
34.4000,1.816
34.4400,1.804
34.4800,1.810
34.5200,1.768
34.5600,1.770
34.6000,1.763
34.6400,1.780
34.6800,1.794
34.7200,1.736
34.7600,1.778
34.8000,1.758
34.8400,1.653
34.8800,1.724
34.9200,1.740
34.9600,1.637
35.0000,1.632
35.0400,1.635
35.0800,1.728
35.1200,1.681
35.1600,1.658
35.2000,1.593
35.2400,1.706
35.2800,1.731
35.3200,1.667
35.3600,1.659
35.4000,1.691
35.4400,1.656
35.4800,1.666
35.5200,1.670
35.5600,1.706
35.6000,1.745
35.6400,1.688
35.6800,1.758
35.7200,1.721
35.7600,1.785
35.8000,1.782
35.8400,1.719
35.8800,1.737
35.9200,1.766
35.9600,1.776
36.0000,1.758
36.0400,1.872
36.0800,1.877
36.1200,1.831
36.1600,1.981
36.2000,1.905
36.2400,1.861
36.2800,1.831
36.3200,1.856
36.3600,1.809
36.4000,1.771
36.4400,1.806
36.4800,1.781
36.5200,1.770
36.5600,1.799
36.6000,1.728
36.6400,1.657
36.6800,1.663
36.7200,1.691
36.7600,1.706
36.8000,1.673
36.8400,1.596
36.8800,1.666
36.9200,1.623
36.9600,1.584
37.0000,1.598
37.0400,1.528
37.0800,1.514
37.1200,1.461
37.1600,1.495
37.2000,1.531
37.2400,1.516
37.2800,1.502
37.3200,1.514
37.3600,1.454
37.4000,1.435
37.4400,1.467
37.4800,1.491
37.5200,1.376
37.5600,1.484
37.6000,1.449
37.6400,1.396
37.6800,1.475
37.7200,1.482
37.7600,1.430
37.8000,1.408
37.8400,1.387
37.8800,1.372
37.9200,1.379
37.9600,1.439
38.0000,1.399
38.0400,1.430
38.0800,1.368
38.1200,1.350
38.1600,1.386
38.2000,1.351
38.2400,1.320
38.2800,1.414
38.3200,1.388
38.3600,1.282
38.4000,1.330
38.4400,1.341
38.4800,1.381
38.5200,1.358
38.5600,1.343
38.6000,1.364
38.6400,1.369
38.6800,1.305
38.7200,1.327
38.7600,1.286
38.8000,1.393
38.8400,1.292
38.8800,1.273
38.9200,1.341
38.9600,1.366
39.0000,1.375
39.0400,1.339
39.0800,1.318
39.1200,1.298
39.1600,1.329
39.2000,1.312
39.2400,1.259
39.2800,1.275
39.3200,1.348
39.3600,1.336
39.4000,1.298
39.4400,1.351
39.4800,1.294
39.5200,1.372
39.5600,1.329
39.6000,1.275
39.6400,1.376
39.6800,1.352
39.7200,1.358
39.7600,1.316
39.8000,1.330
39.8400,1.276
39.8800,1.323
39.9200,1.375
39.9600,1.421
40.0000,1.401
40.0400,1.339
40.0800,1.378
40.1200,1.398
40.1600,1.441
40.2000,1.374
40.2400,1.418
40.2800,1.393
40.3200,1.376
40.3600,1.381
40.4000,1.526
40.4400,1.411
40.4800,1.369
40.5200,1.490
40.5600,1.575
40.6000,1.584
40.6400,1.512
40.6800,1.664
40.7200,1.707
40.7600,1.867
40.8000,1.903
40.8400,2.019
40.8800,2.133
40.9200,2.217
40.9600,2.538
41.0000,2.772
41.0400,3.238
41.0800,3.690
41.1200,4.391
41.1600,5.077
41.2000,5.483
41.2400,5.949
41.2800,6.103
41.3200,5.904
41.3600,5.315
41.4000,4.927
41.4400,4.171
41.4800,3.693
41.5200,3.235
41.5600,2.900
41.6000,2.564
41.6400,2.433
41.6800,2.214
41.7200,2.060
41.7600,1.994
41.8000,1.845
41.8400,1.835
41.8800,1.729
41.9200,1.701
41.9600,1.606
42.0000,1.661
42.0400,1.513
42.0800,1.506
42.1200,1.547
42.1600,1.561
42.2000,1.486
42.2400,1.429
42.2800,1.397
42.3200,1.486
42.3600,1.423
42.4000,1.412
42.4400,1.359
42.4800,1.301
42.5200,1.285
42.5600,1.335
42.6000,1.361
42.6400,1.307
42.6800,1.273
42.7200,1.291
42.7600,1.280
42.8000,1.296
42.8400,1.302
42.8800,1.313
42.9200,1.354
42.9600,1.298
43.0000,1.274
43.0400,1.213
43.0800,1.248
43.1200,1.276
43.1600,1.307
43.2000,1.294
43.2400,1.306
43.2800,1.265
43.3200,1.240
43.3600,1.299
43.4000,1.343
43.4400,1.333
43.4800,1.331
43.5200,1.339
43.5600,1.431
43.6000,1.426
43.6400,1.427
43.6800,1.437
43.7200,1.445
43.7600,1.568
43.8000,1.555
43.8400,1.647
43.8800,1.718
43.9200,1.723
43.9600,1.905
44.0000,2.013
44.0400,2.180
44.0800,2.418
44.1200,2.475
44.1600,2.592
44.2000,2.600
44.2400,2.637
44.2800,2.510
44.3200,2.307
44.3600,2.186
44.4000,1.867
44.4400,1.727
44.4800,1.583
44.5200,1.541
44.5600,1.416
44.6000,1.383
44.6400,1.243
44.6800,1.195
44.7200,1.225
44.7600,1.136
44.8000,1.225
44.8400,1.195
44.8800,1.103
44.9200,1.099
44.9600,1.079
45.0000,1.082
45.0400,1.037
45.0800,1.005
45.1200,1.057
45.1600,1.088
45.2000,1.045
45.2400,1.035
45.2800,1.042
45.3200,1.034
45.3600,1.010
45.4000,1.000
45.4400,1.015
45.4800,1.009
45.5200,1.010
45.5600,0.959
45.6000,0.983
45.6400,0.949
45.6800,1.006
45.7200,0.990
45.7600,0.979
45.8000,0.990
45.8400,0.980
45.8800,0.932
45.9200,0.998
45.9600,1.002
46.0000,0.967
46.0400,0.943
46.0800,0.941
46.1200,0.953
46.1600,1.002
46.2000,0.946
46.2400,0.954
46.2800,0.938
46.3200,0.979
46.3600,0.935
46.4000,0.985
46.4400,0.914
46.4800,0.950
46.5200,0.995
46.5600,0.919
46.6000,0.959
46.6400,0.935
46.6800,0.957
46.7200,0.934
46.7600,0.971
46.8000,0.909
46.8400,0.921
46.8800,0.940
46.9200,0.911
46.9600,0.894
47.0000,0.959
47.0400,0.958
47.0800,0.961
47.1200,0.884
47.1600,0.882
47.2000,0.919
47.2400,0.952
47.2800,0.944
47.3200,0.939
47.3600,0.970
47.4000,0.911
47.4400,0.892
47.4800,0.869
47.5200,0.889
47.5600,0.920
47.6000,0.894
47.6400,0.945
47.6800,0.927
47.7200,0.952
47.7600,0.950
47.8000,0.890
47.8400,0.881
47.8800,0.933
47.9200,0.934
47.9600,0.907
48.0000,0.926
48.0400,0.884
48.0800,0.852
48.1200,0.885
48.1600,0.874
48.2000,0.877
48.2400,0.887
48.2800,0.884
48.3200,0.871
48.3600,0.878
48.4000,0.894
48.4400,0.910
48.4800,0.865
48.5200,0.877
48.5600,0.799
48.6000,0.813
48.6400,0.840
48.6800,0.859
48.7200,0.841
48.7600,0.836
48.8000,0.860
48.8400,0.807
48.8800,0.892
48.9200,0.839
48.9600,0.843
49.0000,0.823
49.0400,0.852
49.0800,0.844
49.1200,0.825
49.1600,0.858
49.2000,0.851
49.2400,0.845
49.2800,0.811
49.3200,0.798
49.3600,0.856
49.4000,0.811
49.4400,0.818
49.4800,0.841
49.5200,0.809
49.5600,0.801
49.6000,0.827
49.6400,0.790
49.6800,0.779
49.7200,0.873
49.7600,0.827
49.8000,0.761
49.8400,0.753
49.8800,0.833
49.9200,0.796
49.9600,0.836
50.0000,0.816
50.0400,0.788
50.0800,0.809
50.1200,0.775
50.1600,0.789
50.2000,0.801
50.2400,0.804
50.2800,0.801
50.3200,0.784
50.3600,0.780
50.4000,0.776
50.4400,0.779
50.4800,0.812
50.5200,0.814
50.5600,0.811
50.6000,0.758
50.6400,0.777
50.6800,0.780
50.7200,0.788
50.7600,0.784
50.8000,0.765
50.8400,0.768
50.8800,0.784
50.9200,0.784
50.9600,0.775
51.0000,0.781
51.0400,0.761
51.0800,0.738
51.1200,0.757
51.1600,0.754
51.2000,0.745
51.2400,0.747
51.2800,0.763
51.3200,0.810
51.3600,0.778
51.4000,0.749
51.4400,0.723
51.4800,0.763
51.5200,0.752
51.5600,0.730
51.6000,0.805
51.6400,0.760
51.6800,0.747
51.7200,0.741
51.7600,0.765
51.8000,0.719
51.8400,0.747
51.8800,0.737
51.9200,0.800
51.9600,0.766
52.0000,0.768
52.0400,0.766
52.0800,0.757
52.1200,0.771
52.1600,0.812
52.2000,0.825
52.2400,0.806
52.2800,0.805
52.3200,0.809
52.3600,0.815
52.4000,0.840
52.4400,0.845
52.4800,0.797
52.5200,0.786
52.5600,0.804
52.6000,0.759
52.6400,0.750
52.6800,0.771
52.7200,0.771
52.7600,0.701
52.8000,0.824
52.8400,0.741
52.8800,0.704
52.9200,0.715
52.9600,0.728
53.0000,0.723
53.0400,0.713
53.0800,0.694
53.1200,0.713
53.1600,0.744
53.2000,0.729
53.2400,0.732
53.2800,0.694
53.3200,0.760
53.3600,0.678
53.4000,0.742
53.4400,0.777
53.4800,0.717
53.5200,0.721
53.5600,0.715
53.6000,0.746
53.6400,0.705
53.6800,0.693
53.7200,0.677
53.7600,0.700
53.8000,0.716
53.8400,0.709
53.8800,0.638
53.9200,0.698
53.9600,0.681
54.0000,0.724
54.0400,0.737
54.0800,0.707
54.1200,0.668
54.1600,0.664
54.2000,0.671
54.2400,0.764
54.2800,0.700
54.3200,0.702
54.3600,0.704
54.4000,0.689
54.4400,0.716
54.4800,0.721
54.5200,0.703
54.5600,0.754
54.6000,0.754
54.6400,0.716
54.6800,0.779
54.7200,0.750
54.7600,0.793
54.8000,0.825
54.8400,0.804
54.8800,0.788
54.9200,0.758
54.9600,0.823
55.0000,0.874
55.0400,0.889
55.0800,0.876
55.1200,0.846
55.1600,0.821
55.2000,0.782
55.2400,0.885
55.2800,0.831
55.3200,0.814
55.3600,0.796
55.4000,0.759
55.4400,0.805
55.4800,0.774
55.5200,0.735
55.5600,0.789
55.6000,0.730
55.6400,0.681
55.6800,0.754
55.7200,0.727
55.7600,0.712
55.8000,0.718
55.8400,0.767
55.8800,0.720
55.9200,0.731
55.9600,0.726
56.0000,0.751
56.0400,0.705
56.0800,0.750
56.1200,0.725
56.1600,0.723
56.2000,0.669
56.2400,0.732
56.2800,0.702
56.3200,0.693
56.3600,0.713
56.4000,0.743
56.4400,0.748
56.4800,0.731
56.5200,0.738
56.5600,0.716
56.6000,0.733
56.6400,0.716
56.6800,0.676
56.7200,0.743
56.7600,0.757
56.8000,0.780
56.8400,0.730
56.8800,0.734
56.9200,0.692
56.9600,0.688
57.0000,0.700
57.0400,0.713
57.0800,0.673
57.1200,0.691
57.1600,0.698
57.2000,0.639
57.2400,0.673
57.2800,0.701
57.3200,0.678
57.3600,0.728
57.4000,0.686
57.4400,0.660
57.4800,0.633
57.5200,0.622
57.5600,0.666
57.6000,0.706
57.6400,0.693
57.6800,0.641
57.7200,0.636
57.7600,0.615
57.8000,0.676
57.8400,0.640
57.8800,0.633
57.9200,0.626
57.9600,0.617
58.0000,0.621
58.0400,0.676
58.0800,0.654
58.1200,0.613
58.1600,0.644
58.2000,0.634
58.2400,0.663
58.2800,0.662
58.3200,0.615
58.3600,0.619
58.4000,0.581
58.4400,0.584
58.4800,0.612
58.5200,0.611
58.5600,0.610
58.6000,0.649
58.6400,0.584
58.6800,0.611
58.7200,0.630
58.7600,0.643
58.8000,0.588
58.8400,0.612
58.8800,0.622
58.9200,0.610
58.9600,0.586
59.0000,0.607
59.0400,0.600
59.0800,0.598
59.1200,0.579
59.1600,0.592
59.2000,0.598
59.2400,0.603
59.2800,0.609
59.3200,0.588
59.3600,0.621
59.4000,0.633
59.4400,0.637
59.4800,0.582
59.5200,0.614
59.5600,0.623
59.6000,0.630
59.6400,0.584
59.6800,0.587
59.7200,0.586
59.7600,0.636
59.8000,0.615
59.8400,0.591
59.8800,0.548
59.9200,0.621
59.9600,0.567
60.0000,0.579
60.0400,0.596
60.0800,0.573
60.1200,0.613
60.1600,0.570
60.2000,0.609
60.2400,0.538
60.2800,0.599
60.3200,0.589
60.3600,0.611
60.4000,0.556
60.4400,0.563
60.4800,0.582
60.5200,0.593
60.5600,0.521
60.6000,0.554
60.6400,0.530
60.6800,0.523
60.7200,0.548
60.7600,0.588
60.8000,0.631
60.8400,0.588
60.8800,0.525
60.9200,0.592
60.9600,0.554
61.0000,0.568
61.0400,0.568
61.0800,0.606
61.1200,0.589
61.1600,0.558
61.2000,0.534
61.2400,0.557
61.2800,0.565
61.3200,0.627
61.3600,0.584
61.4000,0.583
61.4400,0.581
61.4800,0.560
61.5200,0.565
61.5600,0.553
61.6000,0.607
61.6400,0.687
61.6800,0.653
61.7200,0.595
61.7600,0.603
61.8000,0.633
61.8400,0.603
61.8800,0.568
61.9200,0.563
61.9600,0.597
62.0000,0.583
62.0400,0.597
62.0800,0.615
62.1200,0.625
62.1600,0.565
62.2000,0.607
62.2400,0.570
62.2800,0.581
62.3200,0.551
62.3600,0.554
62.4000,0.593
62.4400,0.595
62.4800,0.588
62.5200,0.539
62.5600,0.568
62.6000,0.586
62.6400,0.590
62.6800,0.603
62.7200,0.591
62.7600,0.614
62.8000,0.584
62.8400,0.587
62.8800,0.632
62.9200,0.599
62.9600,0.608
63.0000,0.596
63.0400,0.584
63.0800,0.633
63.1200,0.582
63.1600,0.638
63.2000,0.579
63.2400,0.587
63.2800,0.633
63.3200,0.633
63.3600,0.629
63.4000,0.616
63.4400,0.567
63.4800,0.587
63.5200,0.594
63.5600,0.548
63.6000,0.588
63.6400,0.632
63.6800,0.633
63.7200,0.676
63.7600,0.684
63.8000,0.643
63.8400,0.681
63.8800,0.597
63.9200,0.694
63.9600,0.726
64.0000,0.740
64.0400,0.793
64.0800,0.739
64.1200,0.821
64.1600,0.835
64.2000,0.882
64.2400,0.857
64.2800,0.897
64.3200,0.915
64.3600,0.934
64.4000,0.886
64.4400,0.894
64.4800,0.843
64.5200,0.817
64.5600,0.788
64.6000,0.734
64.6400,0.687
64.6800,0.667
64.7200,0.687
64.7600,0.714
64.8000,0.682
64.8400,0.566
64.8800,0.698
64.9200,0.632
64.9600,0.616
65.0000,0.633
65.0400,0.631
65.0800,0.576
65.1200,0.645
65.1600,0.659
65.2000,0.643
65.2400,0.623
65.2800,0.653
65.3200,0.647
65.3600,0.652
65.4000,0.701
65.4400,0.646
65.4800,0.654
65.5200,0.657
65.5600,0.674
65.6000,0.703
65.6400,0.705
65.6800,0.670
65.7200,0.661
65.7600,0.731
65.8000,0.709
65.8400,0.683
65.8800,0.706
65.9200,0.666
65.9600,0.701
66.0000,0.737
66.0400,0.723
66.0800,0.766
66.1200,0.740
66.1600,0.769
66.2000,0.751
66.2400,0.783
66.2800,0.777
66.3200,0.787
66.3600,0.810
66.4000,0.839
66.4400,0.896
66.4800,0.863
66.5200,0.888
66.5600,0.856
66.6000,0.917
66.6400,0.876
66.6800,0.905
66.7200,0.913
66.7600,0.897
66.8000,0.929
66.8400,0.978
66.8800,1.008
66.9200,0.963
66.9600,0.995
67.0000,1.114
67.0400,1.009
67.0800,1.017
67.1200,1.089
67.1600,1.079
67.2000,1.090
67.2400,1.169
67.2800,1.133
67.3200,1.186
67.3600,1.167
67.4000,1.164
67.4400,1.272
67.4800,1.268
67.5200,1.271
67.5600,1.329
67.6000,1.341
67.6400,1.390
67.6800,1.457
67.7200,1.459
67.7600,1.497
67.8000,1.474
67.8400,1.546
67.8800,1.569
67.9200,1.616
67.9600,1.670
68.0000,1.690
68.0400,1.739
68.0800,1.701
68.1200,1.820
68.1600,1.892
68.2000,1.891
68.2400,1.974
68.2800,2.121
68.3200,2.176
68.3600,2.290
68.4000,2.326
68.4400,2.416
68.4800,2.506
68.5200,2.704
68.5600,2.778
68.6000,3.030
68.6400,3.331
68.6800,3.852
68.7200,4.817
68.7600,6.151
68.8000,7.408
68.8400,7.795
68.8800,8.145
68.9200,8.890
68.9600,11.429
69.0000,17.870
69.0400,35.079
69.0800,136.568
69.1200,469.908
69.1600,480.232
69.2000,161.114
69.2400,52.785
69.2800,94.463
69.3200,251.081
69.3600,238.261
69.4000,79.855
69.4400,22.946
69.4800,12.491
69.5200,8.879
69.5600,7.148
69.6000,6.115
69.6400,4.994
69.6800,4.476
69.7200,4.059
69.7600,3.709
69.8000,3.471
69.8400,3.141
69.8800,3.088
69.9200,2.853
69.9600,2.712
70.0000,2.599
70.0400,2.362
70.0800,2.418
70.1200,2.308
70.1600,2.234
70.2000,2.106
70.2400,2.116
70.2800,1.950
70.3200,1.937
70.3600,1.852
70.4000,1.768
70.4400,1.773
70.4800,1.676
70.5200,1.622
70.5600,1.569
70.6000,1.549
70.6400,1.543
70.6800,1.499
70.7200,1.445
70.7600,1.430
70.8000,1.338
70.8400,1.307
70.8800,1.280
70.9200,1.241
70.9600,1.254
71.0000,1.206
71.0400,1.182
71.0800,1.197
71.1200,1.125
71.1600,1.068
71.2000,1.082
71.2400,1.083
71.2800,1.078
71.3200,1.018
71.3600,0.982
71.4000,0.979
71.4400,1.026
71.4800,0.920
71.5200,0.908
71.5600,0.880
71.6000,0.903
71.6400,0.829
71.6800,0.811
71.7200,0.876
71.7600,0.801
71.8000,0.793
71.8400,0.777
71.8800,0.765
71.9200,0.734
71.9600,0.756
72.0000,0.739
72.0400,0.726
72.0800,0.681
72.1200,0.692
72.1600,0.664
72.2000,0.628
72.2400,0.683
72.2800,0.677
72.3200,0.678
72.3600,0.672
72.4000,0.657
72.4400,0.618
72.4800,0.603
72.5200,0.651
72.5600,0.690
72.6000,0.691
72.6400,0.626
72.6800,0.631
72.7200,0.654
72.7600,0.689
72.8000,0.643
72.8400,0.712
72.8800,0.684
72.9200,0.726
72.9600,0.755
73.0000,0.736
73.0400,0.762
73.0800,0.792
73.1200,0.833
73.1600,0.783
73.2000,0.734
73.2400,0.764
73.2800,0.701
73.3200,0.743
73.3600,0.711
73.4000,0.665
73.4400,0.676
73.4800,0.634
73.5200,0.670
73.5600,0.625
73.6000,0.629
73.6400,0.587
73.6800,0.573
73.7200,0.558
73.7600,0.551
73.8000,0.551
73.8400,0.593
73.8800,0.550
73.9200,0.492
73.9600,0.469
74.0000,0.512
74.0400,0.462
74.0800,0.491
74.1200,0.480
74.1600,0.494
74.2000,0.463
74.2400,0.420
74.2800,0.497
74.3200,0.481
74.3600,0.465
74.4000,0.434
74.4400,0.439
74.4800,0.442
74.5200,0.418
74.5600,0.425
74.6000,0.449
74.6400,0.404
74.6800,0.417
74.7200,0.429
74.7600,0.381
74.8000,0.396
74.8400,0.388
74.8800,0.392
74.9200,0.384
74.9600,0.391
75.0000,0.404
75.0400,0.388
75.0800,0.405
75.1200,0.404
75.1600,0.424
75.2000,0.394
75.2400,0.391
75.2800,0.382
75.3200,0.370
75.3600,0.406
75.4000,0.389
75.4400,0.396
75.4800,0.364
75.5200,0.385
75.5600,0.375
75.6000,0.376
75.6400,0.387
75.6800,0.365
75.7200,0.381
75.7600,0.379
75.8000,0.378
75.8400,0.383
75.8800,0.379
75.9200,0.400
75.9600,0.376
76.0000,0.377
76.0400,0.399
76.0800,0.340
76.1200,0.370
76.1600,0.347
76.2000,0.361
76.2400,0.383
76.2800,0.350
76.3200,0.397
76.3600,0.376
76.4000,0.389
76.4400,0.401
76.4800,0.374
76.5200,0.398
76.5600,0.411
76.6000,0.332
76.6400,0.377
76.6800,0.355
76.7200,0.345
76.7600,0.366
76.8000,0.361
76.8400,0.366
76.8800,0.362
76.9200,0.379
76.9600,0.363
77.0000,0.367
77.0400,0.356
77.0800,0.332
77.1200,0.367
77.1600,0.321
77.2000,0.348
77.2400,0.346
77.2800,0.340
77.3200,0.344
77.3600,0.327
77.4000,0.321
77.4400,0.339
77.4800,0.346
77.5200,0.320
77.5600,0.348
77.6000,0.371
77.6400,0.383
77.6800,0.336
77.7200,0.336
77.7600,0.349
77.8000,0.365
77.8400,0.356
77.8800,0.349
77.9200,0.374
77.9600,0.339
78.0000,0.363
78.0400,0.391
78.0800,0.346
78.1200,0.336
78.1600,0.344
78.2000,0.374
78.2400,0.367
78.2800,0.371
78.3200,0.398
78.3600,0.379
78.4000,0.377
78.4400,0.343
78.4800,0.403
78.5200,0.416
78.5600,0.395
78.6000,0.387
78.6400,0.418
78.6800,0.410
78.7200,0.434
78.7600,0.467
78.8000,0.421
78.8400,0.467
78.8800,0.461
78.9200,0.502
78.9600,0.517
79.0000,0.577
79.0400,0.582
79.0800,0.596
79.1200,0.647
79.1600,0.677
79.2000,0.688
79.2400,0.725
79.2800,0.734
79.3200,0.733
79.3600,0.668
79.4000,0.692
79.4400,0.683
79.4800,0.658
79.5200,0.619
79.5600,0.622
79.6000,0.568
79.6400,0.539
79.6800,0.489
79.7200,0.481
79.7600,0.451
79.8000,0.410
79.8400,0.370
79.8800,0.372
79.9200,0.335
79.9600,0.360
80.0000,0.361
