theta,intensity
5.0000,7.555
5.0400,7.464
5.0800,7.365
5.1200,7.462
5.1600,7.330
5.2000,7.228
5.2400,7.208
5.2800,7.297
5.3200,7.079
5.3600,7.012
5.4000,6.995
5.4400,6.939
5.4800,6.841
5.5200,6.696
5.5600,6.580
5.6000,6.500
5.6400,6.432
5.6800,6.349
5.7200,6.227
5.7600,6.101
5.8000,6.032
5.8400,5.822
5.8800,5.904
5.9200,5.705
5.9600,5.650
6.0000,5.680
6.0400,5.657
6.0800,5.627
6.1200,5.517
6.1600,5.598
6.2000,5.514
6.2400,5.421
6.2800,5.309
6.3200,5.349
6.3600,5.276
6.4000,5.269
6.4400,5.097
6.4800,5.272
6.5200,5.122
6.5600,5.241
6.6000,5.016
6.6400,4.834
6.6800,4.958
6.7200,4.913
6.7600,4.953
6.8000,4.830
6.8400,4.780
6.8800,4.697
6.9200,4.789
6.9600,4.803
7.0000,4.644
7.0400,4.676
7.0800,4.613
7.1200,4.564
7.1600,4.668
7.2000,4.551
7.2400,4.542
7.2800,4.373
7.3200,4.622
7.3600,4.474
7.4000,4.475
7.4400,4.468
7.4800,4.396
7.5200,4.265
7.5600,4.493
7.6000,4.286
7.6400,4.273
7.6800,4.261
7.7200,4.284
7.7600,4.222
7.8000,4.162
7.8400,4.179
7.8800,4.205
7.9200,4.081
7.9600,4.174
8.0000,4.153
8.0400,4.174
8.0800,4.050
8.1200,4.042
8.1600,4.111
8.2000,4.148
8.2400,4.040
8.2800,3.991
8.3200,3.963
8.3600,4.097
8.4000,4.003
8.4400,4.078
8.4800,3.917
8.5200,3.964
8.5600,4.003
8.6000,4.037
8.6400,3.978
8.6800,4.055
8.7200,3.983
8.7600,3.903
8.8000,3.862
8.8400,3.923
8.8800,3.929
8.9200,3.907
8.9600,3.907
9.0000,3.956
9.0400,3.858
9.0800,3.933
9.1200,3.851
9.1600,3.880
9.2000,3.826
9.2400,3.821
9.2800,3.851
9.3200,3.862
9.3600,3.660
9.4000,3.760
9.4400,3.840
9.4800,3.829
9.5200,3.846
9.5600,3.807
9.6000,3.826
9.6400,3.748
9.6800,3.742
9.7200,3.751
9.7600,3.836
9.8000,3.683
9.8400,3.686
9.8800,3.688
9.9200,3.598
9.9600,3.645
10.0000,3.864
10.0400,3.630
10.0800,3.654
10.1200,3.654
10.1600,3.711
10.2000,3.620
10.2400,3.561
10.2800,3.733
10.3200,3.632
10.3600,3.554
10.4000,3.537
10.4400,3.668
10.4800,3.691
10.5200,3.575
10.5600,3.598
10.6000,3.628
10.6400,3.608
10.6800,3.641
10.7200,3.666
10.7600,3.661
10.8000,3.605
10.8400,3.564
10.8800,3.672
10.9200,3.492
10.9600,3.570
11.0000,3.557
11.0400,3.569
11.0800,3.637
11.1200,3.558
11.1600,3.709
11.2000,3.583
11.2400,3.610
11.2800,3.572
11.3200,3.684
11.3600,3.614
11.4000,3.557
11.4400,3.491
11.4800,3.585
11.5200,3.474
11.5600,3.599
11.6000,3.504
11.6400,3.505
11.6800,3.544
11.7200,3.417
11.7600,3.455
11.8000,3.638
11.8400,3.531
11.8800,3.418
11.9200,3.377
11.9600,3.501
12.0000,3.451
12.0400,3.561
12.0800,3.435
12.1200,3.485
12.1600,3.360
12.2000,3.400
12.2400,3.501
12.2800,3.471
12.3200,3.434
12.3600,3.426
12.4000,3.456
12.4400,3.491
12.4800,3.464
12.5200,3.386
12.5600,3.471
12.6000,3.433
12.6400,3.434
12.6800,3.318
12.7200,3.501
12.7600,3.433
12.8000,3.444
12.8400,3.402
12.8800,3.373
12.9200,3.390
12.9600,3.352
13.0000,3.411
13.0400,3.362
13.0800,3.427
13.1200,3.420
13.1600,3.395
13.2000,3.291
13.2400,3.302
13.2800,3.422
13.3200,3.420
13.3600,3.340
13.4000,3.370
13.4400,3.291
13.4800,3.374
13.5200,3.257
13.5600,3.339
13.6000,3.352
13.6400,3.389
13.6800,3.338
13.7200,3.413
13.7600,3.435
13.8000,3.243
13.8400,3.425
13.8800,3.260
13.9200,3.256
13.9600,3.197
14.0000,3.287
14.0400,3.263
14.0800,3.208
14.1200,3.273
14.1600,3.387
14.2000,3.272
14.2400,3.340
14.2800,3.283
14.3200,3.181
14.3600,3.253
14.4000,3.258
14.4400,3.192
14.4800,3.202
14.5200,3.254
14.5600,3.204
14.6000,3.210
14.6400,3.159
14.6800,3.291
14.7200,3.190
14.7600,3.176
14.8000,3.239
14.8400,3.147
14.8800,3.121
14.9200,3.230
14.9600,3.224
15.0000,3.163
15.0400,3.124
15.0800,3.189
15.1200,3.245
15.1600,3.085
15.2000,3.146
15.2400,3.178
15.2800,3.129
15.3200,3.147
15.3600,3.155
15.4000,3.083
15.4400,3.110
15.4800,3.126
15.5200,3.061
15.5600,3.129
15.6000,3.185
15.6400,3.042
15.6800,3.061
15.7200,3.100
15.7600,2.986
15.8000,3.128
15.8400,3.119
15.8800,3.023
15.9200,3.122
15.9600,3.068
16.0000,3.093
16.0400,3.069
16.0800,3.039
16.1200,3.092
16.1600,3.031
16.2000,3.068
16.2400,3.106
16.2800,3.140
16.3200,3.047
16.3600,3.078
16.4000,3.089
16.4400,3.032
16.4800,2.958
16.5200,2.990
16.5600,2.980
16.6000,3.051
16.6400,3.053
16.6800,3.041
16.7200,2.989
16.7600,2.978
16.8000,3.060
16.8400,3.019
16.8800,3.063
16.9200,3.055
16.9600,2.997
17.0000,2.908
17.0400,2.928
17.0800,3.012
17.1200,3.000
17.1600,3.016
17.2000,2.978
17.2400,2.909
17.2800,2.971
17.3200,3.003
17.3600,2.941
17.4000,2.873
17.4400,3.004
17.4800,2.988
17.5200,2.989
17.5600,2.802
17.6000,2.961
17.6400,2.929
17.6800,2.984
17.7200,2.781
17.7600,2.797
17.8000,2.950
17.8400,2.962
17.8800,2.888
17.9200,2.908
17.9600,2.887
18.0000,2.884
18.0400,2.948
18.0800,2.868
18.1200,2.885
18.1600,3.039
18.2000,2.941
18.2400,2.911
18.2800,2.795
18.3200,2.825
18.3600,2.857
18.4000,2.818
18.4400,2.876
18.4800,2.885
18.5200,2.770
18.5600,2.812
18.6000,2.965
18.6400,2.784
18.6800,2.841
18.7200,2.889
18.7600,2.790
18.8000,2.756
18.8400,2.823
18.8800,2.822
18.9200,2.876
18.9600,2.800
19.0000,2.753
19.0400,2.871
19.0800,2.802
19.1200,2.749
19.1600,2.893
19.2000,2.865
19.2400,2.832
19.2800,2.881
19.3200,2.812
19.3600,2.845
19.4000,2.763
19.4400,2.821
19.4800,2.688
19.5200,2.761
19.5600,2.837
19.6000,2.842
19.6400,2.817
19.6800,2.746
19.7200,2.809
19.7600,2.737
19.8000,2.758
19.8400,2.713
19.8800,2.676
19.9200,2.747
19.9600,2.668
20.0000,2.784
20.0400,2.649
20.0800,2.710
20.1200,2.712
20.1600,2.625
20.2000,2.588
20.2400,2.592
20.2800,2.650
20.3200,2.694
20.3600,2.709
20.4000,2.700
20.4400,2.661
20.4800,2.704
20.5200,2.662
20.5600,2.688
20.6000,2.641
20.6400,2.653
20.6800,2.647
20.7200,2.601
20.7600,2.585
20.8000,2.640
20.8400,2.591
20.8800,2.596
20.9200,2.594
20.9600,2.576
21.0000,2.645
21.0400,2.614
21.0800,2.530
21.1200,2.678
21.1600,2.613
21.2000,2.583
21.2400,2.563
21.2800,2.576
21.3200,2.563
21.3600,2.705
21.4000,2.817
21.4400,2.660
21.4800,2.651
21.5200,2.613
21.5600,2.574
21.6000,2.610
21.6400,2.469
21.6800,2.590
21.7200,2.535
21.7600,2.507
21.8000,2.538
21.8400,2.528
21.8800,2.519
21.9200,2.607
21.9600,2.507
22.0000,2.454
22.0400,2.512
22.0800,2.535
22.1200,2.601
22.1600,2.583
22.2000,2.459
22.2400,2.518
22.2800,2.487
22.3200,2.469
22.3600,2.491
22.4000,2.521
22.4400,2.518
22.4800,2.559
22.5200,2.566
22.5600,2.456
22.6000,2.500
22.6400,2.469
22.6800,2.420
22.7200,2.446
22.7600,2.458
22.8000,2.492
22.8400,2.482
22.8800,2.529
22.9200,2.382
22.9600,2.441
23.0000,2.450
23.0400,2.427
23.0800,2.424
23.1200,2.571
23.1600,2.437
23.2000,2.495
23.2400,2.538
23.2800,2.430
23.3200,2.393
23.3600,2.352
23.4000,2.369
23.4400,2.440
23.4800,2.327
23.5200,2.494
23.5600,2.476
23.6000,2.425
23.6400,2.422
23.6800,2.422
23.7200,2.425
23.7600,2.382
23.8000,2.381
23.8400,2.455
23.8800,2.391
23.9200,2.359
23.9600,2.439
24.0000,2.344
24.0400,2.407
24.0800,2.329
24.1200,2.351
24.1600,2.381
24.2000,2.338
24.2400,2.418
24.2800,2.296
24.3200,2.286
24.3600,2.369
24.4000,2.387
24.4400,2.304
24.4800,2.306
24.5200,2.340
24.5600,2.398
24.6000,2.221
24.6400,2.343
24.6800,2.332
24.7200,2.325
24.7600,2.302
24.8000,2.343
24.8400,2.345
24.8800,2.264
24.9200,2.265
24.9600,2.337
25.0000,2.304
25.0400,2.256
25.0800,2.287
25.1200,2.233
25.1600,2.205
25.2000,2.297
25.2400,2.310
25.2800,2.287
25.3200,2.313
25.3600,2.219
25.4000,2.252
25.4400,2.200
25.4800,2.353
25.5200,2.249
25.5600,2.207
25.6000,2.229
25.6400,2.230
25.6800,2.197
25.7200,2.132
25.7600,2.235
25.8000,2.192
25.8400,2.125
25.8800,2.221
25.9200,2.159
25.9600,2.200
26.0000,2.163
26.0400,2.224
26.0800,2.233
26.1200,2.220
26.1600,2.204
26.2000,2.244
26.2400,2.146
26.2800,2.133
26.3200,2.173
26.3600,2.125
26.4000,2.210
26.4400,2.207
26.4800,2.250
26.5200,2.136
26.5600,2.248
26.6000,2.252
26.6400,2.246
26.6800,2.164
26.7200,2.241
26.7600,2.228
26.8000,2.224
26.8400,2.205
26.8800,2.230
26.9200,2.141
26.9600,2.162
27.0000,2.241
27.0400,2.207
27.0800,2.191
27.1200,2.184
27.1600,2.118
27.2000,2.186
27.2400,2.109
27.2800,2.113
27.3200,2.108
27.3600,2.062
27.4000,2.134
27.4400,2.043
27.4800,2.175
27.5200,2.050
27.5600,2.069
27.6000,2.116
27.6400,2.143
27.6800,2.088
27.7200,2.064
27.7600,2.117
27.8000,2.044
27.8400,2.050
27.8800,2.082
27.9200,2.059
27.9600,2.024
28.0000,2.021
28.0400,2.013
28.0800,2.124
28.1200,2.094
28.1600,2.055
28.2000,1.974
28.2400,1.918
28.2800,1.971
28.3200,2.096
28.3600,2.122
28.4000,1.957
28.4400,2.033
28.4800,1.953
28.5200,1.934
28.5600,2.010
28.6000,1.960
28.6400,2.024
28.6800,2.015
28.7200,2.015
28.7600,2.010
28.8000,1.988
28.8400,1.977
28.8800,2.016
28.9200,1.964
28.9600,1.956
29.0000,1.850
29.0400,2.020
29.0800,1.929
29.1200,2.028
29.1600,1.996
29.2000,1.945
29.2400,1.938
29.2800,2.027
29.3200,1.900
29.3600,2.007
29.4000,1.921
29.4400,1.979
29.4800,1.931
29.5200,1.831
29.5600,1.915
29.6000,1.962
29.6400,1.988
29.6800,1.852
29.7200,1.903
29.7600,1.901
29.8000,1.928
29.8400,2.003
29.8800,2.000
29.9200,1.891
29.9600,1.989
30.0000,1.938
30.0400,1.980
30.0800,1.989
30.1200,1.885
30.1600,1.830
30.2000,1.936
30.2400,1.889
30.2800,1.879
30.3200,1.943
30.3600,1.932
30.4000,1.907
30.4400,1.958
30.4800,1.946
30.5200,1.907
30.5600,1.941
30.6000,1.974
30.6400,1.957
30.6800,2.007
30.7200,2.088
30.7600,2.062
30.8000,2.118
30.8400,2.153
30.8800,2.148
30.9200,2.048
30.9600,2.146
31.0000,2.050
31.0400,2.029
31.0800,2.064
31.1200,2.037
31.1600,2.006
31.2000,2.148
31.2400,2.098
31.2800,2.057
31.3200,2.033
31.3600,2.055
31.4000,2.099
31.4400,2.108
31.4800,2.172
31.5200,2.172
31.5600,2.217
31.6000,2.230
31.6400,2.256
31.6800,2.245
31.7200,2.352
31.7600,2.390
31.8000,2.334
31.8400,2.359
31.8800,2.427
31.9200,2.393
31.9600,2.347
32.0000,2.334
32.0400,2.313
32.0800,2.288
32.1200,2.192
32.1600,2.175
32.2000,2.154
32.2400,2.035
32.2800,2.059
32.3200,2.004
32.3600,2.099
32.4000,2.054
32.4400,1.956
32.4800,2.002
32.5200,1.921
32.5600,2.042
32.6000,1.885
32.6400,1.966
32.6800,1.840
32.7200,1.905
32.7600,1.837
32.8000,1.815
32.8400,1.775
32.8800,1.703
32.9200,1.841
32.9600,1.779
33.0000,1.870
33.0400,1.986
33.0800,1.961
33.1200,1.827
33.1600,1.774
33.2000,1.785
33.2400,1.740
33.2800,1.796
33.3200,1.783
33.3600,1.764
33.4000,1.758
33.4400,1.834
33.4800,1.767
33.5200,1.744
33.5600,1.748
33.6000,1.793
33.6400,1.801
33.6800,1.865
33.7200,1.906
33.7600,1.814
33.8000,1.940
33.8400,1.873
33.8800,1.898
33.9200,1.909
33.9600,1.888
34.0000,1.964
34.0400,1.914
34.0800,1.977
34.1200,1.910
34.1600,1.933
34.2000,1.932
34.2400,2.051
34.2800,2.020
34.3200,2.059
34.3600,2.073
34.4000,1.972
34.4400,2.051
34.4800,2.065
34.5200,2.043
34.5600,2.000
34.6000,2.009
34.6400,1.976
34.6800,1.958
34.7200,1.938
34.7600,1.946
34.8000,1.896
34.8400,1.897
34.8800,1.870
34.9200,1.855
34.9600,1.876
35.0000,1.807
35.0400,1.927
35.0800,1.824
35.1200,1.822
35.1600,1.764
35.2000,1.795
35.2400,1.820
35.2800,1.796
35.3200,1.782
35.3600,1.801
35.4000,1.802
35.4400,1.834
35.4800,1.819
35.5200,1.804
35.5600,1.820
35.6000,1.893
35.6400,1.871
35.6800,1.930
35.7200,1.961
35.7600,1.875
35.8000,1.929
35.8400,2.011
35.8800,2.038
35.9200,2.055
35.9600,2.001
36.0000,2.043
36.0400,2.065
36.0800,2.174
36.1200,2.112
36.1600,2.122
36.2000,2.125
36.2400,2.161
36.2800,2.193
36.3200,2.243
36.3600,2.214
36.4000,2.084
36.4400,2.145
36.4800,2.161
36.5200,2.137
36.5600,2.025
36.6000,2.067
36.6400,2.044
36.6800,2.076
36.7200,1.998
36.7600,1.904
36.8000,1.837
36.8400,1.792
36.8800,1.787
36.9200,1.763
36.9600,1.699
37.0000,1.693
37.0400,1.707
37.0800,1.732
37.1200,1.610
37.1600,1.594
37.2000,1.611
37.2400,1.589
37.2800,1.606
37.3200,1.593
37.3600,1.512
37.4000,1.514
37.4400,1.520
37.4800,1.518
37.5200,1.484
37.5600,1.479
37.6000,1.481
37.6400,1.401
37.6800,1.433
37.7200,1.408
37.7600,1.405
37.8000,1.466
37.8400,1.422
37.8800,1.428
37.9200,1.412
37.9600,1.419
38.0000,1.403
38.0400,1.357
38.0800,1.403
38.1200,1.426
38.1600,1.302
38.2000,1.376
38.2400,1.380
38.2800,1.407
38.3200,1.388
38.3600,1.368
38.4000,1.360
38.4400,1.349
38.4800,1.356
38.5200,1.393
38.5600,1.408
38.6000,1.402
38.6400,1.322
38.6800,1.311
38.7200,1.396
38.7600,1.397
38.8000,1.365
38.8400,1.341
38.8800,1.332
38.9200,1.380
38.9600,1.296
39.0000,1.349
39.0400,1.353
39.0800,1.340
39.1200,1.288
39.1600,1.310
39.2000,1.321
39.2400,1.304
39.2800,1.403
39.3200,1.327
39.3600,1.308
39.4000,1.361
39.4400,1.331
39.4800,1.350
39.5200,1.383
39.5600,1.332
39.6000,1.338
39.6400,1.323
39.6800,1.297
39.7200,1.312
39.7600,1.313
39.8000,1.331
39.8400,1.387
39.8800,1.338
39.9200,1.308
39.9600,1.336
40.0000,1.344
40.0400,1.409
40.0800,1.442
40.1200,1.348
40.1600,1.419
40.2000,1.412
40.2400,1.465
40.2800,1.426
40.3200,1.430
40.3600,1.475
40.4000,1.468
40.4400,1.502
40.4800,1.428
40.5200,1.515
40.5600,1.553
40.6000,1.637
40.6400,1.612
40.6800,1.646
40.7200,1.691
40.7600,1.697
40.8000,1.845
40.8400,1.975
40.8800,2.093
40.9200,2.249
40.9600,2.340
41.0000,2.513
41.0400,2.715
41.0800,2.856
41.1200,3.247
41.1600,3.626
41.2000,3.869
41.2400,4.041
41.2800,4.103
41.3200,4.080
41.3600,4.047
41.4000,3.668
41.4400,3.487
41.4800,3.169
41.5200,2.975
41.5600,2.735
41.6000,2.612
41.6400,2.439
41.6800,2.305
41.7200,2.170
41.7600,2.088
41.8000,2.000
41.8400,1.999
41.8800,1.859
41.9200,1.774
41.9600,1.792
42.0000,1.761
42.0400,1.723
42.0800,1.662
42.1200,1.639
42.1600,1.752
42.2000,1.530
42.2400,1.551
42.2800,1.579
42.3200,1.550
42.3600,1.563
42.4000,1.547
42.4400,1.440
42.4800,1.393
42.5200,1.463
42.5600,1.405
42.6000,1.397
42.6400,1.402
42.6800,1.351
42.7200,1.358
42.7600,1.358
42.8000,1.367
42.8400,1.341
42.8800,1.373
42.9200,1.401
42.9600,1.391
43.0000,1.377
43.0400,1.433
43.0800,1.329
43.1200,1.286
43.1600,1.334
43.2000,1.333
43.2400,1.401
43.2800,1.285
43.3200,1.378
43.3600,1.383
43.4000,1.314
43.4400,1.319
43.4800,1.357
43.5200,1.341
43.5600,1.420
43.6000,1.485
43.6400,1.492
43.6800,1.454
43.7200,1.452
43.7600,1.565
43.8000,1.560
43.8400,1.595
43.8800,1.596
43.9200,1.597
43.9600,1.639
44.0000,1.752
44.0400,1.796
44.0800,1.765
44.1200,1.894
44.1600,1.828
44.2000,1.940
44.2400,1.886
44.2800,1.811
44.3200,1.809
44.3600,1.658
44.4000,1.619
44.4400,1.480
44.4800,1.491
44.5200,1.410
44.5600,1.328
44.6000,1.327
44.6400,1.312
44.6800,1.204
44.7200,1.228
44.7600,1.244
44.8000,1.189
44.8400,1.066
44.8800,1.131
44.9200,1.084
44.9600,1.091
45.0000,1.120
45.0400,1.128
45.0800,1.044
45.1200,1.021
45.1600,1.054
45.2000,1.001
45.2400,1.024
45.2800,1.000
45.3200,0.966
45.3600,0.995
45.4000,1.024
45.4400,0.968
45.4800,1.014
45.5200,0.986
45.5600,0.998
45.6000,0.970
45.6400,1.050
45.6800,0.966
45.7200,0.996
45.7600,0.960
45.8000,0.995
45.8400,0.978
45.8800,0.951
45.9200,1.008
45.9600,1.018
46.0000,0.955
46.0400,0.986
46.0800,0.979
46.1200,0.961
46.1600,0.999
46.2000,0.913
46.2400,0.977
46.2800,0.896
46.3200,0.937
46.3600,0.981
46.4000,0.974
46.4400,0.974
46.4800,0.944
46.5200,0.966
46.5600,0.969
46.6000,0.969
46.6400,0.921
46.6800,0.966
46.7200,1.015
46.7600,0.940
46.8000,0.955
46.8400,0.949
46.8800,0.979
46.9200,0.950
46.9600,0.978
47.0000,0.938
47.0400,0.933
47.0800,0.947
47.1200,0.990
47.1600,0.984
47.2000,0.971
47.2400,0.996
47.2800,0.984
47.3200,0.910
47.3600,0.967
47.4000,0.922
47.4400,0.922
47.4800,0.955
47.5200,0.943
47.5600,1.007
47.6000,0.915
47.6400,0.951
47.6800,0.989
47.7200,0.954
47.7600,0.914
47.8000,0.980
47.8400,0.916
47.8800,1.001
47.9200,0.959
47.9600,0.935
48.0000,0.939
48.0400,0.932
48.0800,0.928
48.1200,0.918
48.1600,0.962
48.2000,0.882
48.2400,0.904
48.2800,0.885
48.3200,0.884
48.3600,0.924
48.4000,0.921
48.4400,0.894
48.4800,0.915
48.5200,0.906
48.5600,0.933
48.6000,0.906
48.6400,0.848
48.6800,0.865
48.7200,0.884
48.7600,0.882
48.8000,0.872
48.8400,0.903
48.8800,0.826
48.9200,0.902
48.9600,0.839
49.0000,0.874
49.0400,0.897
49.0800,0.864
49.1200,0.832
49.1600,0.880
49.2000,0.827
49.2400,0.760
49.2800,0.839
49.3200,0.859
49.3600,0.833
49.4000,0.797
49.4400,0.847
49.4800,0.805
49.5200,0.839
49.5600,0.841
49.6000,0.861
49.6400,0.837
49.6800,0.841
49.7200,0.808
49.7600,0.804
49.8000,0.807
49.8400,0.776
49.8800,0.813
49.9200,0.795
49.9600,0.830
50.0000,0.800
50.0400,0.775
50.0800,0.803
50.1200,0.847
50.1600,0.778
50.2000,0.736
50.2400,0.766
50.2800,0.753
50.3200,0.767
50.3600,0.751
50.4000,0.789
50.4400,0.767
50.4800,0.814
50.5200,0.774
50.5600,0.768
50.6000,0.786
50.6400,0.828
50.6800,0.805
50.7200,0.767
50.7600,0.776
50.8000,0.763
50.8400,0.836
50.8800,0.770
50.9200,0.840
50.9600,0.769
51.0000,0.773
51.0400,0.765
51.0800,0.798
51.1200,0.763
51.1600,0.781
51.2000,0.791
51.2400,0.747
51.2800,0.758
51.3200,0.756
51.3600,0.768
51.4000,0.756
51.4400,0.783
51.4800,0.782
51.5200,0.806
51.5600,0.765
51.6000,0.798
51.6400,0.765
51.6800,0.759
51.7200,0.754
51.7600,0.761
51.8000,0.766
51.8400,0.778
51.8800,0.791
51.9200,0.757
51.9600,0.708
52.0000,0.733
52.0400,0.741
52.0800,0.775
52.1200,0.772
52.1600,0.782
52.2000,0.780
52.2400,0.809
52.2800,0.748
52.3200,0.773
52.3600,0.815
52.4000,0.805
52.4400,0.797
52.4800,0.844
52.5200,0.744
52.5600,0.772
52.6000,0.821
52.6400,0.745
52.6800,0.751
52.7200,0.756
52.7600,0.766
52.8000,0.741
52.8400,0.652
52.8800,0.746
52.9200,0.730
52.9600,0.740
53.0000,0.704
53.0400,0.732
53.0800,0.696
53.1200,0.715
53.1600,0.755
53.2000,0.728
53.2400,0.733
53.2800,0.754
53.3200,0.711
53.3600,0.687
53.4000,0.792
53.4400,0.731
53.4800,0.703
53.5200,0.756
53.5600,0.700
53.6000,0.706
53.6400,0.719
53.6800,0.748
53.7200,0.715
53.7600,0.707
53.8000,0.728
53.8400,0.713
53.8800,0.688
53.9200,0.687
53.9600,0.746
54.0000,0.710
54.0400,0.688
54.0800,0.703
54.1200,0.705
54.1600,0.721
54.2000,0.717
54.2400,0.735
54.2800,0.753
54.3200,0.720
54.3600,0.722
54.4000,0.711
54.4400,0.729
54.4800,0.716
54.5200,0.761
54.5600,0.756
54.6000,0.765
54.6400,0.711
54.6800,0.731
54.7200,0.729
54.7600,0.752
54.8000,0.739
54.8400,0.745
54.8800,0.754
54.9200,0.800
54.9600,0.736
55.0000,0.769
55.0400,0.793
55.0800,0.823
55.1200,0.834
55.1600,0.817
55.2000,0.789
55.2400,0.797
55.2800,0.763
55.3200,0.798
55.3600,0.797
55.4000,0.833
55.4400,0.780
55.4800,0.770
55.5200,0.767
55.5600,0.767
55.6000,0.723
55.6400,0.737
55.6800,0.813
55.7200,0.770
55.7600,0.743
55.8000,0.756
55.8400,0.746
55.8800,0.738
55.9200,0.749
55.9600,0.725
56.0000,0.761
56.0400,0.729
56.0800,0.734
56.1200,0.744
56.1600,0.780
56.2000,0.784
56.2400,0.778
56.2800,0.800
56.3200,0.835
56.3600,0.819
56.4000,0.744
56.4400,0.759
56.4800,0.800
56.5200,0.790
56.5600,0.818
56.6000,0.795
56.6400,0.774
56.6800,0.851
56.7200,0.788
56.7600,0.838
56.8000,0.807
56.8400,0.767
56.8800,0.799
56.9200,0.813
56.9600,0.794
57.0000,0.824
57.0400,0.813
57.0800,0.788
57.1200,0.776
57.1600,0.764
57.2000,0.768
57.2400,0.721
57.2800,0.779
57.3200,0.766
57.3600,0.693
57.4000,0.697
57.4400,0.687
57.4800,0.696
57.5200,0.693
57.5600,0.679
57.6000,0.686
57.6400,0.660
57.6800,0.694
57.7200,0.670
57.7600,0.669
57.8000,0.666
57.8400,0.686
57.8800,0.698
57.9200,0.662
57.9600,0.624
58.0000,0.633
58.0400,0.638
58.0800,0.650
58.1200,0.647
58.1600,0.613
58.2000,0.670
58.2400,0.652
58.2800,0.649
58.3200,0.638
58.3600,0.646
58.4000,0.657
58.4400,0.623
58.4800,0.650
58.5200,0.607
58.5600,0.659
58.6000,0.671
58.6400,0.611
58.6800,0.646
58.7200,0.648
58.7600,0.602
58.8000,0.635
58.8400,0.623
58.8800,0.600
58.9200,0.621
58.9600,0.584
59.0000,0.602
59.0400,0.603
59.0800,0.576
59.1200,0.590
59.1600,0.591
59.2000,0.611
59.2400,0.598
59.2800,0.614
59.3200,0.585
59.3600,0.562
59.4000,0.611
59.4400,0.595
59.4800,0.627
59.5200,0.618
59.5600,0.614
59.6000,0.606
59.6400,0.572
59.6800,0.649
59.7200,0.580
59.7600,0.642
59.8000,0.589
59.8400,0.595
59.8800,0.630
59.9200,0.599
59.9600,0.593
60.0000,0.614
60.0400,0.563
60.0800,0.575
60.1200,0.593
60.1600,0.622
60.2000,0.566
60.2400,0.606
60.2800,0.597
60.3200,0.559
60.3600,0.549
60.4000,0.582
60.4400,0.577
60.4800,0.616
60.5200,0.527
60.5600,0.602
60.6000,0.559
60.6400,0.593
60.6800,0.613
60.7200,0.573
60.7600,0.569
60.8000,0.601
60.8400,0.589
60.8800,0.559
60.9200,0.562
60.9600,0.601
61.0000,0.620
61.0400,0.614
61.0800,0.578
61.1200,0.556
61.1600,0.545
61.2000,0.634
61.2400,0.615
61.2800,0.549
61.3200,0.561
61.3600,0.560
61.4000,0.614
61.4400,0.602
61.4800,0.591
61.5200,0.623
61.5600,0.600
61.6000,0.591
61.6400,0.666
61.6800,0.612
61.7200,0.612
61.7600,0.644
61.8000,0.596
61.8400,0.609
61.8800,0.611
61.9200,0.598
61.9600,0.570
62.0000,0.606
62.0400,0.599
62.0800,0.622
62.1200,0.604
62.1600,0.610
62.2000,0.597
62.2400,0.620
62.2800,0.619
62.3200,0.630
62.3600,0.627
62.4000,0.625
62.4400,0.621
62.4800,0.628
62.5200,0.606
62.5600,0.626
62.6000,0.679
62.6400,0.653
62.6800,0.623
62.7200,0.668
62.7600,0.571
62.8000,0.651
62.8400,0.671
62.8800,0.661
62.9200,0.677
62.9600,0.591
63.0000,0.660
63.0400,0.681
63.0800,0.657
63.1200,0.627
63.1600,0.662
63.2000,0.641
63.2400,0.660
63.2800,0.640
63.3200,0.618
63.3600,0.663
63.4000,0.644
63.4400,0.681
63.4800,0.678
63.5200,0.655
63.5600,0.600
63.6000,0.659
63.6400,0.645
63.6800,0.651
63.7200,0.630
63.7600,0.648
63.8000,0.668
63.8400,0.748
63.8800,0.701
63.9200,0.716
63.9600,0.706
64.0000,0.720
64.0400,0.727
64.0800,0.755
64.1200,0.768
64.1600,0.725
64.2000,0.773
64.2400,0.784
64.2800,0.711
64.3200,0.740
64.3600,0.781
64.4000,0.788
64.4400,0.714
64.4800,0.772
64.5200,0.722
64.5600,0.734
64.6000,0.724
64.6400,0.691
64.6800,0.648
64.7200,0.675
64.7600,0.624
64.8000,0.661
64.8400,0.661
64.8800,0.698
64.9200,0.657
64.9600,0.668
65.0000,0.639
65.0400,0.658
65.0800,0.669
65.1200,0.663
65.1600,0.700
65.2000,0.650
65.2400,0.662
65.2800,0.644
65.3200,0.634
65.3600,0.652
65.4000,0.669
65.4400,0.694
65.4800,0.687
65.5200,0.654
65.5600,0.691
65.6000,0.676
65.6400,0.698
65.6800,0.734
65.7200,0.746
65.7600,0.699
65.8000,0.715
65.8400,0.700
65.8800,0.772
65.9200,0.770
65.9600,0.741
66.0000,0.730
66.0400,0.760
66.0800,0.763
66.1200,0.760
66.1600,0.775
66.2000,0.783
66.2400,0.773
66.2800,0.815
66.3200,0.849
66.3600,0.832
66.4000,0.884
66.4400,0.903
66.4800,0.826
66.5200,0.917
66.5600,0.881
66.6000,0.863
66.6400,0.920
66.6800,0.874
66.7200,0.909
66.7600,0.952
66.8000,1.026
66.8400,1.005
66.8800,0.976
66.9200,0.990
66.9600,1.026
67.0000,1.063
67.0400,1.025
67.0800,1.082
67.1200,1.121
67.1600,1.149
67.2000,1.180
67.2400,1.176
67.2800,1.192
67.3200,1.223
67.3600,1.201
67.4000,1.278
67.4400,1.328
67.4800,1.266
67.5200,1.359
67.5600,1.334
67.6000,1.427
67.6400,1.450
67.6800,1.466
67.7200,1.469
67.7600,1.463
67.8000,1.545
67.8400,1.614
67.8800,1.636
67.9200,1.603
67.9600,1.698
68.0000,1.747
68.0400,1.769
68.0800,1.870
68.1200,1.862
68.1600,1.924
68.2000,2.037
68.2400,2.016
68.2800,2.206
68.3200,2.183
68.3600,2.206
68.4000,2.300
68.4400,2.420
68.4800,2.579
68.5200,2.671
68.5600,2.841
68.6000,3.078
68.6400,3.285
68.6800,3.730
68.7200,4.471
68.7600,5.790
68.8000,7.175
68.8400,8.073
68.8800,8.244
68.9200,8.569
68.9600,10.468
69.0000,15.110
69.0400,26.075
69.0800,69.965
69.1200,335.222
69.1600,559.298
69.2000,298.241
69.2400,75.525
69.2800,61.973
69.3200,192.420
69.3600,284.641
69.4000,146.378
69.4400,36.791
69.4800,16.019
69.5200,10.380
69.5600,7.973
69.6000,6.455
69.6400,5.495
69.6800,4.720
69.7200,4.374
69.7600,3.859
69.8000,3.670
69.8400,3.350
69.8800,3.138
69.9200,2.972
69.9600,2.806
70.0000,2.737
70.0400,2.638
70.0800,2.495
70.1200,2.380
70.1600,2.236
70.2000,2.227
70.2400,2.144
70.2800,2.070
70.3200,1.934
70.3600,1.876
70.4000,1.916
70.4400,1.838
70.4800,1.788
70.5200,1.744
70.5600,1.570
70.6000,1.557
70.6400,1.582
70.6800,1.512
70.7200,1.476
70.7600,1.394
70.8000,1.376
70.8400,1.415
70.8800,1.295
70.9200,1.336
70.9600,1.282
71.0000,1.240
71.0400,1.180
71.0800,1.130
71.1200,1.165
71.1600,1.129
71.2000,1.148
71.2400,1.091
71.2800,1.016
71.3200,1.088
71.3600,1.033
71.4000,1.007
71.4400,0.929
71.4800,0.952
71.5200,0.983
71.5600,0.954
71.6000,0.864
71.6400,0.872
71.6800,0.886
71.7200,0.838
71.7600,0.848
71.8000,0.829
71.8400,0.808
71.8800,0.772
71.9200,0.735
71.9600,0.733
72.0000,0.738
72.0400,0.703
72.0800,0.731
72.1200,0.707
72.1600,0.737
72.2000,0.696
72.2400,0.697
72.2800,0.752
72.3200,0.707
72.3600,0.698
72.4000,0.665
72.4400,0.705
72.4800,0.687
72.5200,0.697
72.5600,0.640
72.6000,0.667
72.6400,0.656
72.6800,0.673
72.7200,0.660
72.7600,0.662
72.8000,0.656
72.8400,0.639
72.8800,0.642
72.9200,0.673
72.9600,0.676
73.0000,0.718
73.0400,0.702
73.0800,0.662
73.1200,0.682
73.1600,0.669
73.2000,0.676
73.2400,0.687
73.2800,0.665
73.3200,0.608
73.3600,0.624
73.4000,0.653
73.4400,0.617
73.4800,0.623
73.5200,0.535
73.5600,0.573
73.6000,0.569
73.6400,0.549
73.6800,0.620
73.7200,0.587
73.7600,0.525
73.8000,0.527
73.8400,0.519
73.8800,0.495
73.9200,0.495
73.9600,0.527
74.0000,0.489
74.0400,0.460
74.0800,0.510
74.1200,0.477
74.1600,0.486
74.2000,0.482
74.2400,0.444
74.2800,0.463
74.3200,0.460
74.3600,0.459
74.4000,0.485
74.4400,0.475
74.4800,0.437
74.5200,0.416
74.5600,0.423
74.6000,0.434
74.6400,0.401
74.6800,0.426
74.7200,0.425
74.7600,0.413
74.8000,0.459
74.8400,0.406
74.8800,0.401
74.9200,0.419
74.9600,0.405
75.0000,0.413
75.0400,0.415
75.0800,0.426
75.1200,0.362
75.1600,0.414
75.2000,0.434
75.2400,0.421
75.2800,0.381
75.3200,0.386
75.3600,0.355
75.4000,0.398
75.4400,0.437
75.4800,0.369
75.5200,0.383
75.5600,0.356
75.6000,0.376
75.6400,0.377
75.6800,0.384
75.7200,0.359
75.7600,0.389
75.8000,0.407
75.8400,0.366
75.8800,0.400
75.9200,0.395
75.9600,0.370
76.0000,0.346
76.0400,0.362
76.0800,0.382
76.1200,0.393
76.1600,0.358
76.2000,0.367
76.2400,0.388
76.2800,0.371
76.3200,0.367
76.3600,0.381
76.4000,0.378
76.4400,0.377
76.4800,0.375
76.5200,0.371
76.5600,0.377
76.6000,0.324
76.6400,0.382
76.6800,0.375
76.7200,0.384
76.7600,0.355
76.8000,0.366
76.8400,0.377
76.8800,0.341
76.9200,0.340
76.9600,0.385
77.0000,0.381
77.0400,0.372
77.0800,0.311
77.1200,0.375
77.1600,0.372
77.2000,0.350
77.2400,0.326
77.2800,0.370
77.3200,0.392
77.3600,0.400
77.4000,0.362
77.4400,0.352
77.4800,0.330
77.5200,0.372
77.5600,0.376
77.6000,0.405
77.6400,0.350
77.6800,0.345
77.7200,0.367
77.7600,0.343
77.8000,0.365
77.8400,0.319
77.8800,0.381
77.9200,0.381
77.9600,0.335
78.0000,0.368
78.0400,0.377
78.0800,0.365
78.1200,0.375
78.1600,0.380
78.2000,0.358
78.2400,0.381
78.2800,0.394
78.3200,0.372
78.3600,0.418
78.4000,0.364
78.4400,0.400
78.4800,0.399
78.5200,0.381
78.5600,0.447
78.6000,0.426
78.6400,0.405
78.6800,0.438
78.7200,0.436
78.7600,0.419
78.8000,0.419
78.8400,0.435
78.8800,0.475
78.9200,0.472
78.9600,0.491
79.0000,0.447
79.0400,0.476
79.0800,0.525
79.1200,0.490
79.1600,0.512
79.2000,0.567
79.2400,0.547
79.2800,0.612
79.3200,0.528
79.3600,0.539
79.4000,0.511
79.4400,0.499
79.4800,0.481
79.5200,0.521
79.5600,0.498
79.6000,0.505
79.6400,0.456
79.6800,0.435
79.7200,0.413
79.7600,0.401
79.8000,0.375
79.8400,0.393
79.8800,0.338
79.9200,0.382
79.9600,0.352
80.0000,0.341
