theta,intensity
5.0000,6.538
5.0400,6.445
5.0800,6.404
5.1200,6.447
5.1600,6.236
5.2000,6.065
5.2400,6.012
5.2800,6.046
5.3200,5.951
5.3600,5.762
5.4000,5.761
5.4400,5.604
5.4800,5.520
5.5200,5.360
5.5600,5.473
5.6000,5.245
5.6400,5.234
5.6800,4.993
5.7200,5.003
5.7600,4.850
5.8000,4.753
5.8400,4.655
5.8800,4.638
5.9200,4.651
5.9600,4.500
6.0000,4.540
6.0400,4.469
6.0800,4.381
6.1200,4.344
6.1600,4.314
6.2000,4.388
6.2400,4.331
6.2800,4.244
6.3200,4.161
6.3600,4.314
6.4000,4.223
6.4400,4.126
6.4800,4.294
6.5200,4.273
6.5600,4.176
6.6000,4.235
6.6400,4.107
6.6800,4.198
6.7200,4.139
6.7600,4.184
6.8000,4.152
6.8400,4.190
6.8800,4.087
6.9200,4.027
6.9600,4.051
7.0000,4.203
7.0400,4.169
7.0800,4.132
7.1200,3.982
7.1600,3.920
7.2000,3.998
7.2400,4.095
7.2800,4.094
7.3200,4.107
7.3600,4.080
7.4000,4.106
7.4400,4.075
7.4800,4.116
7.5200,3.973
7.5600,4.139
7.6000,4.112
7.6400,3.952
7.6800,3.990
7.7200,4.069
7.7600,4.031
7.8000,4.014
7.8400,3.948
7.8800,4.048
7.9200,3.996
7.9600,3.935
8.0000,3.987
8.0400,3.926
8.0800,3.867
8.1200,3.977
8.1600,3.964
8.2000,3.980
8.2400,3.961
8.2800,3.808
8.3200,3.967
8.3600,3.957
8.4000,3.870
8.4400,3.829
8.4800,3.832
8.5200,3.835
8.5600,3.925
8.6000,3.826
8.6400,3.860
8.6800,3.745
8.7200,3.913
8.7600,3.909
8.8000,3.902
8.8400,3.866
8.8800,3.921
8.9200,3.839
8.9600,3.819
9.0000,3.771
9.0400,3.758
9.0800,3.854
9.1200,3.788
9.1600,3.738
9.2000,3.757
9.2400,3.810
9.2800,3.735
9.3200,3.655
9.3600,3.741
9.4000,3.734
9.4400,3.743
9.4800,3.766
9.5200,3.790
9.5600,3.811
9.6000,3.707
9.6400,3.789
9.6800,3.779
9.7200,3.786
9.7600,3.820
9.8000,3.737
9.8400,3.831
9.8800,3.662
9.9200,3.739
9.9600,3.834
10.0000,3.648
10.0400,3.796
10.0800,3.679
10.1200,3.764
10.1600,3.610
10.2000,3.670
10.2400,3.628
10.2800,3.667
10.3200,3.656
10.3600,3.682
10.4000,3.663
10.4400,3.692
10.4800,3.702
10.5200,3.652
10.5600,3.650
10.6000,3.657
10.6400,3.568
10.6800,3.673
10.7200,3.655
10.7600,3.597
10.8000,3.732
10.8400,3.672
10.8800,3.687
10.9200,3.702
10.9600,3.621
11.0000,3.639
11.0400,3.539
11.0800,3.604
11.1200,3.560
11.1600,3.501
11.2000,3.615
11.2400,3.532
11.2800,3.553
11.3200,3.588
11.3600,3.587
11.4000,3.582
11.4400,3.503
11.4800,3.472
11.5200,3.562
11.5600,3.529
11.6000,3.550
11.6400,3.545
11.6800,3.580
11.7200,3.550
11.7600,3.416
11.8000,3.509
11.8400,3.513
11.8800,3.580
11.9200,3.480
11.9600,3.473
12.0000,3.482
12.0400,3.527
12.0800,3.500
12.1200,3.443
12.1600,3.485
12.2000,3.407
12.2400,3.568
12.2800,3.399
12.3200,3.470
12.3600,3.399
12.4000,3.494
12.4400,3.568
12.4800,3.431
12.5200,3.489
12.5600,3.428
12.6000,3.464
12.6400,3.500
12.6800,3.409
12.7200,3.499
12.7600,3.488
12.8000,3.387
12.8400,3.412
12.8800,3.371
12.9200,3.336
12.9600,3.462
13.0000,3.357
13.0400,3.422
13.0800,3.346
13.1200,3.385
13.1600,3.412
13.2000,3.373
13.2400,3.452
13.2800,3.333
13.3200,3.427
13.3600,3.453
13.4000,3.367
13.4400,3.370
13.4800,3.432
13.5200,3.439
13.5600,3.515
13.6000,3.473
13.6400,3.390
13.6800,3.589
13.7200,3.509
13.7600,3.499
13.8000,3.477
13.8400,3.404
13.8800,3.375
13.9200,3.315
13.9600,3.363
14.0000,3.420
14.0400,3.391
14.0800,3.256
14.1200,3.194
14.1600,3.285
14.2000,3.281
14.2400,3.290
14.2800,3.288
14.3200,3.322
14.3600,3.222
14.4000,3.197
14.4400,3.139
14.4800,3.366
14.5200,3.381
14.5600,3.230
14.6000,3.189
14.6400,3.198
14.6800,3.243
14.7200,3.138
14.7600,3.232
14.8000,3.147
14.8400,3.149
14.8800,3.207
14.9200,3.229
14.9600,3.235
15.0000,3.220
15.0400,3.106
15.0800,3.283
15.1200,3.246
15.1600,3.178
15.2000,3.210
15.2400,3.164
15.2800,3.199
15.3200,3.151
15.3600,3.240
15.4000,3.112
15.4400,3.212
15.4800,3.146
15.5200,3.155
15.5600,3.172
15.6000,3.164
15.6400,3.125
15.6800,3.153
15.7200,3.131
15.7600,3.006
15.8000,3.095
15.8400,3.040
15.8800,3.016
15.9200,3.194
15.9600,3.023
16.0000,3.104
16.0400,3.058
16.0800,3.074
16.1200,3.016
16.1600,3.081
16.2000,3.187
16.2400,2.968
16.2800,3.139
16.3200,3.122
16.3600,3.119
16.4000,3.048
16.4400,3.046
16.4800,3.108
16.5200,3.039
16.5600,3.102
16.6000,3.087
16.6400,3.192
16.6800,3.044
16.7200,3.113
16.7600,3.005
16.8000,2.993
16.8400,2.983
16.8800,3.030
16.9200,3.066
16.9600,3.030
17.0000,2.986
17.0400,3.063
17.0800,2.979
17.1200,3.025
17.1600,3.048
17.2000,3.009
17.2400,3.031
17.2800,3.015
17.3200,3.056
17.3600,2.960
17.4000,3.005
17.4400,2.935
17.4800,2.957
17.5200,3.030
17.5600,2.989
17.6000,2.968
17.6400,2.928
17.6800,2.962
17.7200,2.962
17.7600,2.877
17.8000,2.918
17.8400,2.978
17.8800,2.819
17.9200,2.942
17.9600,2.871
18.0000,2.848
18.0400,2.985
18.0800,2.891
18.1200,2.881
18.1600,2.774
18.2000,2.855
18.2400,2.887
18.2800,2.773
18.3200,2.753
18.3600,2.810
18.4000,2.848
18.4400,2.806
18.4800,2.778
18.5200,2.764
18.5600,2.808
18.6000,2.846
18.6400,2.795
18.6800,2.865
18.7200,2.834
18.7600,2.822
18.8000,2.884
18.8400,2.871
18.8800,2.825
18.9200,2.824
18.9600,2.937
19.0000,2.840
19.0400,2.818
19.0800,2.830
19.1200,2.791
19.1600,2.827
19.2000,2.783
19.2400,2.895
19.2800,2.883
19.3200,2.892
19.3600,2.864
19.4000,2.808
19.4400,2.828
19.4800,2.823
19.5200,2.800
19.5600,2.751
19.6000,2.772
19.6400,2.858
19.6800,2.698
19.7200,2.744
19.7600,2.867
19.8000,2.743
19.8400,2.738
19.8800,2.802
19.9200,2.750
19.9600,2.753
20.0000,2.741
20.0400,2.724
20.0800,2.778
20.1200,2.735
20.1600,2.697
20.2000,2.740
20.2400,2.808
20.2800,2.808
20.3200,2.723
20.3600,2.704
20.4000,2.677
20.4400,2.662
20.4800,2.645
20.5200,2.661
20.5600,2.618
20.6000,2.668
20.6400,2.765
20.6800,2.591
20.7200,2.626
20.7600,2.721
20.8000,2.653
20.8400,2.762
20.8800,2.663
20.9200,2.656
20.9600,2.679
21.0000,2.660
21.0400,2.592
21.0800,2.602
21.1200,2.592
21.1600,2.706
21.2000,2.608
21.2400,2.647
21.2800,2.565
21.3200,2.590
21.3600,2.603
21.4000,2.646
21.4400,2.533
21.4800,2.611
21.5200,2.566
21.5600,2.646
21.6000,2.552
21.6400,2.588
21.6800,2.630
21.7200,2.527
21.7600,2.512
21.8000,2.570
21.8400,2.575
21.8800,2.556
21.9200,2.596
21.9600,2.592
22.0000,2.556
22.0400,2.646
22.0800,2.580
22.1200,2.505
22.1600,2.525
22.2000,2.458
22.2400,2.482
22.2800,2.543
22.3200,2.418
22.3600,2.462
22.4000,2.483
22.4400,2.407
22.4800,2.404
22.5200,2.494
22.5600,2.424
22.6000,2.465
22.6400,2.464
22.6800,2.462
22.7200,2.462
22.7600,2.539
22.8000,2.431
22.8400,2.490
22.8800,2.458
22.9200,2.405
22.9600,2.498
23.0000,2.401
23.0400,2.390
23.0800,2.447
23.1200,2.513
23.1600,2.394
23.2000,2.440
23.2400,2.480
23.2800,2.416
23.3200,2.421
23.3600,2.478
23.4000,2.475
23.4400,2.491
23.4800,2.553
23.5200,2.563
23.5600,2.460
23.6000,2.542
23.6400,2.655
23.6800,2.511
23.7200,2.726
23.7600,2.649
23.8000,2.766
23.8400,2.853
23.8800,2.967
23.9200,2.932
23.9600,2.907
24.0000,2.811
24.0400,2.712
24.0800,2.587
24.1200,2.615
24.1600,2.608
24.2000,2.530
24.2400,2.410
24.2800,2.384
24.3200,2.438
24.3600,2.449
24.4000,2.300
24.4400,2.391
24.4800,2.318
24.5200,2.324
24.5600,2.331
24.6000,2.354
24.6400,2.318
24.6800,2.360
24.7200,2.304
24.7600,2.250
24.8000,2.259
24.8400,2.291
24.8800,2.275
24.9200,2.265
24.9600,2.295
25.0000,2.263
25.0400,2.372
25.0800,2.162
25.1200,2.194
25.1600,2.204
25.2000,2.295
25.2400,2.381
25.2800,2.248
25.3200,2.205
25.3600,2.246
25.4000,2.285
25.4400,2.252
25.4800,2.295
25.5200,2.233
25.5600,2.215
25.6000,2.145
25.6400,2.219
25.6800,2.241
25.7200,2.215
25.7600,2.190
25.8000,2.242
25.8400,2.254
25.8800,2.084
25.9200,2.199
25.9600,2.180
26.0000,2.226
26.0400,2.093
26.0800,2.173
26.1200,2.113
26.1600,2.187
26.2000,2.172
26.2400,2.156
26.2800,2.163
26.3200,2.067
26.3600,2.221
26.4000,2.175
26.4400,2.181
26.4800,2.176
26.5200,2.131
26.5600,2.167
26.6000,2.219
26.6400,2.082
26.6800,2.106
26.7200,2.113
26.7600,2.162
26.8000,2.153
26.8400,2.129
26.8800,2.160
26.9200,2.059
26.9600,2.060
27.0000,2.041
27.0400,2.115
27.0800,2.151
27.1200,2.096
27.1600,2.068
27.2000,2.094
27.2400,2.119
27.2800,2.195
27.3200,2.039
27.3600,1.983
27.4000,2.038
27.4400,2.004
27.4800,2.029
27.5200,2.087
27.5600,2.047
27.6000,1.984
27.6400,2.029
27.6800,2.121
27.7200,2.084
27.7600,2.065
27.8000,1.934
27.8400,1.971
27.8800,1.996
27.9200,2.039
27.9600,2.006
28.0000,1.939
28.0400,2.022
28.0800,2.001
28.1200,1.933
28.1600,1.946
28.2000,2.026
28.2400,2.069
28.2800,2.097
28.3200,1.991
28.3600,1.990
28.4000,2.070
28.4400,1.973
28.4800,2.047
28.5200,2.061
28.5600,2.039
28.6000,2.013
28.6400,1.937
28.6800,1.971
28.7200,2.037
28.7600,1.912
28.8000,1.956
28.8400,1.937
28.8800,1.902
28.9200,1.993
28.9600,1.922
29.0000,1.964
29.0400,1.956
29.0800,1.942
29.1200,1.953
29.1600,2.024
29.2000,1.925
29.2400,1.993
29.2800,1.904
29.3200,1.945
29.3600,1.857
29.4000,1.941
29.4400,1.918
29.4800,1.926
29.5200,1.921
29.5600,1.860
29.6000,2.014
29.6400,1.955
29.6800,1.909
29.7200,1.963
29.7600,1.911
29.8000,1.853
29.8400,1.868
29.8800,1.891
29.9200,1.889
29.9600,1.904
30.0000,1.872
30.0400,1.899
30.0800,1.862
30.1200,1.889
30.1600,1.840
30.2000,1.896
30.2400,1.909
30.2800,1.832
30.3200,1.874
30.3600,1.914
30.4000,1.868
30.4400,1.879
30.4800,1.806
30.5200,1.861
30.5600,1.855
30.6000,1.888
30.6400,1.891
30.6800,1.841
30.7200,1.828
30.7600,1.859
30.8000,1.960
30.8400,1.911
30.8800,1.917
30.9200,1.935
30.9600,1.897
31.0000,1.872
31.0400,1.883
31.0800,1.950
31.1200,1.997
31.1600,1.970
31.2000,1.936
31.2400,1.983
31.2800,1.982
31.3200,2.054
31.3600,2.125
31.4000,2.149
31.4400,2.171
31.4800,2.185
31.5200,2.267
31.5600,2.311
31.6000,2.335
31.6400,2.357
31.6800,2.346
31.7200,2.478
31.7600,2.596
31.8000,2.653
31.8400,2.488
31.8800,2.626
31.9200,2.537
31.9600,2.482
32.0000,2.484
32.0400,2.443
32.0800,2.426
32.1200,2.406
32.1600,2.231
32.2000,2.214
32.2400,2.211
32.2800,2.157
32.3200,2.132
32.3600,2.118
32.4000,2.004
32.4400,1.952
32.4800,1.998
32.5200,1.895
32.5600,1.928
32.6000,1.858
32.6400,1.906
32.6800,1.953
32.7200,1.875
32.7600,1.883
32.8000,1.836
32.8400,1.825
32.8800,1.792
32.9200,1.868
32.9600,1.826
33.0000,2.043
33.0400,2.000
33.0800,1.904
33.1200,1.772
33.1600,1.774
33.2000,1.769
33.2400,1.804
33.2800,1.733
33.3200,1.782
33.3600,1.744
33.4000,1.817
33.4400,1.766
33.4800,1.795
33.5200,1.815
33.5600,1.749
33.6000,1.758
33.6400,1.744
33.6800,1.856
33.7200,1.780
33.7600,1.826
33.8000,1.885
33.8400,1.899
33.8800,1.851
33.9200,1.980
33.9600,2.055
34.0000,2.079
34.0400,2.144
34.0800,2.142
34.1200,2.153
34.1600,2.179
34.2000,2.272
34.2400,2.144
34.2800,2.278
34.3200,2.212
34.3600,2.236
34.4000,2.183
34.4400,2.177
34.4800,2.235
34.5200,2.200
34.5600,2.119
34.6000,2.107
34.6400,2.099
34.6800,2.102
34.7200,2.066
34.7600,1.986
34.8000,1.996
34.8400,1.937
34.8800,1.896
34.9200,1.849
34.9600,1.836
35.0000,1.801
35.0400,1.847
35.0800,1.820
35.1200,1.825
35.1600,1.862
35.2000,1.831
35.2400,1.819
35.2800,1.843
35.3200,1.866
35.3600,1.877
35.4000,1.856
35.4400,1.879
35.4800,1.917
35.5200,1.917
35.5600,1.848
35.6000,1.902
35.6400,2.007
35.6800,1.989
35.7200,1.979
35.7600,2.010
35.8000,2.043
35.8400,2.082
35.8800,2.111
35.9200,2.249
35.9600,2.265
36.0000,2.298
36.0400,2.243
36.0800,2.298
36.1200,2.393
36.1600,2.423
36.2000,2.497
36.2400,2.399
36.2800,2.489
36.3200,2.494
36.3600,2.414
36.4000,2.418
36.4400,2.391
36.4800,2.379
36.5200,2.273
36.5600,2.260
36.6000,2.286
36.6400,2.171
36.6800,2.109
36.7200,2.105
36.7600,1.946
36.8000,1.946
36.8400,1.959
36.8800,1.950
36.9200,1.790
36.9600,1.787
37.0000,1.785
37.0400,1.737
37.0800,1.721
37.1200,1.795
37.1600,1.716
37.2000,1.633
37.2400,1.617
37.2800,1.613
37.3200,1.582
37.3600,1.612
37.4000,1.569
37.4400,1.536
37.4800,1.518
37.5200,1.479
37.5600,1.496
37.6000,1.534
37.6400,1.534
37.6800,1.498
37.7200,1.446
37.7600,1.410
37.8000,1.476
37.8400,1.434
37.8800,1.487
37.9200,1.378
37.9600,1.339
38.0000,1.364
38.0400,1.445
38.0800,1.428
38.1200,1.370
38.1600,1.389
38.2000,1.384
38.2400,1.468
38.2800,1.402
38.3200,1.341
38.3600,1.413
38.4000,1.381
38.4400,1.371
38.4800,1.332
38.5200,1.345
38.5600,1.369
38.6000,1.393
38.6400,1.293
38.6800,1.399
38.7200,1.381
38.7600,1.322
38.8000,1.392
38.8400,1.275
38.8800,1.380
38.9200,1.348
38.9600,1.351
39.0000,1.255
39.0400,1.286
39.0800,1.272
39.1200,1.257
39.1600,1.296
39.2000,1.359
39.2400,1.326
39.2800,1.300
39.3200,1.310
39.3600,1.344
39.4000,1.330
39.4400,1.315
39.4800,1.260
39.5200,1.345
39.5600,1.312
39.6000,1.266
39.6400,1.324
39.6800,1.316
39.7200,1.281
39.7600,1.210
39.8000,1.224
39.8400,1.289
39.8800,1.237
39.9200,1.259
39.9600,1.229
40.0000,1.282
40.0400,1.262
40.0800,1.271
40.1200,1.233
40.1600,1.300
40.2000,1.263
40.2400,1.288
40.2800,1.260
40.3200,1.279
40.3600,1.338
40.4000,1.211
40.4400,1.205
40.4800,1.266
40.5200,1.234
40.5600,1.204
40.6000,1.298
40.6400,1.298
40.6800,1.286
40.7200,1.299
40.7600,1.258
40.8000,1.272
40.8400,1.295
40.8800,1.242
40.9200,1.376
40.9600,1.308
41.0000,1.334
41.0400,1.343
41.0800,1.351
41.1200,1.340
41.1600,1.336
41.2000,1.368
41.2400,1.377
41.2800,1.385
41.3200,1.437
41.3600,1.489
41.4000,1.533
41.4400,1.497
41.4800,1.565
41.5200,1.658
41.5600,1.729
41.6000,1.928
41.6400,2.028
41.6800,2.204
41.7200,2.332
41.7600,2.496
41.8000,2.896
41.8400,3.334
41.8800,3.791
41.9200,4.314
41.9600,4.875
42.0000,5.338
42.0400,5.677
42.0800,5.586
42.1200,5.523
42.1600,5.031
42.2000,4.444
42.2400,3.969
42.2800,3.432
42.3200,3.037
42.3600,2.570
42.4000,2.359
42.4400,2.139
42.4800,1.965
42.5200,1.819
42.5600,1.685
42.6000,1.586
42.6400,1.555
42.6800,1.480
42.7200,1.450
42.7600,1.418
42.8000,1.358
42.8400,1.326
42.8800,1.297
42.9200,1.304
42.9600,1.247
43.0000,1.299
43.0400,1.256
43.0800,1.229
43.1200,1.243
43.1600,1.214
43.2000,1.243
43.2400,1.106
43.2800,1.113
43.3200,1.129
43.3600,1.144
43.4000,1.140
43.4400,1.115
43.4800,1.105
43.5200,1.085
43.5600,1.138
43.6000,1.107
43.6400,1.099
43.6800,1.047
43.7200,1.063
43.7600,1.102
43.8000,1.043
43.8400,1.084
43.8800,1.070
43.9200,1.038
43.9600,1.085
44.0000,1.093
44.0400,1.068
44.0800,1.078
44.1200,1.106
44.1600,1.046
44.2000,1.032
44.2400,1.053
44.2800,1.032
44.3200,1.016
44.3600,1.042
44.4000,1.030
44.4400,1.028
44.4800,0.999
44.5200,1.034
44.5600,1.087
44.6000,1.047
44.6400,0.993
44.6800,1.036
44.7200,1.040
44.7600,1.021
44.8000,0.980
44.8400,0.995
44.8800,1.032
44.9200,1.055
44.9600,0.991
45.0000,0.981
45.0400,1.042
45.0800,1.003
45.1200,1.043
45.1600,1.020
45.2000,1.009
45.2400,0.999
45.2800,0.988
45.3200,1.001
45.3600,1.020
45.4000,0.978
45.4400,0.994
45.4800,0.976
45.5200,0.995
45.5600,0.984
45.6000,0.996
45.6400,1.002
45.6800,1.012
45.7200,0.957
45.7600,0.978
45.8000,0.970
45.8400,0.982
45.8800,1.005
45.9200,0.994
45.9600,0.916
46.0000,0.986
46.0400,0.936
46.0800,1.005
46.1200,0.985
46.1600,0.995
46.2000,1.007
46.2400,0.963
46.2800,1.032
46.3200,0.999
46.3600,1.045
46.4000,1.070
46.4400,1.046
46.4800,1.045
46.5200,1.030
46.5600,1.066
46.6000,1.083
46.6400,1.064
46.6800,1.102
46.7200,1.133
46.7600,1.102
46.8000,1.105
46.8400,1.088
46.8800,1.112
46.9200,1.090
46.9600,1.077
47.0000,1.030
47.0400,1.034
47.0800,1.007
47.1200,1.033
47.1600,1.010
47.2000,1.023
47.2400,1.018
47.2800,0.993
47.3200,0.979
47.3600,1.021
47.4000,0.987
47.4400,0.963
47.4800,0.932
47.5200,0.979
47.5600,0.996
47.6000,0.971
47.6400,1.046
47.6800,0.977
47.7200,0.996
47.7600,1.012
47.8000,0.938
47.8400,0.992
47.8800,1.012
47.9200,0.921
47.9600,0.903
48.0000,0.919
48.0400,0.927
48.0800,0.979
48.1200,0.964
48.1600,0.982
48.2000,0.976
48.2400,0.917
48.2800,0.884
48.3200,0.922
48.3600,0.956
48.4000,0.908
48.4400,0.938
48.4800,0.894
48.5200,0.934
48.5600,0.975
48.6000,0.883
48.6400,0.912
48.6800,0.904
48.7200,0.969
48.7600,0.969
48.8000,1.001
48.8400,0.988
48.8800,0.969
48.9200,1.054
48.9600,1.032
49.0000,1.061
49.0400,1.013
49.0800,1.017
49.1200,0.948
49.1600,0.962
49.2000,0.956
49.2400,0.909
49.2800,0.863
49.3200,0.862
49.3600,0.888
49.4000,0.824
49.4400,0.856
49.4800,0.833
49.5200,0.795
49.5600,0.877
49.6000,0.844
49.6400,0.800
49.6800,0.783
49.7200,0.811
49.7600,0.840
49.8000,0.816
49.8400,0.870
49.8800,0.830
49.9200,0.804
49.9600,0.830
50.0000,0.773
50.0400,0.825
50.0800,0.823
50.1200,0.853
50.1600,0.817
50.2000,0.843
50.2400,0.843
50.2800,0.802
50.3200,0.818
50.3600,0.773
50.4000,0.795
50.4400,0.774
50.4800,0.785
50.5200,0.776
50.5600,0.823
50.6000,0.768
50.6400,0.834
50.6800,0.825
50.7200,0.771
50.7600,0.777
50.8000,0.807
50.8400,0.801
50.8800,0.760
50.9200,0.829
50.9600,0.807
51.0000,0.788
51.0400,0.811
51.0800,0.840
51.1200,0.798
51.1600,0.804
51.2000,0.769
51.2400,0.809
51.2800,0.740
51.3200,0.772
51.3600,0.757
51.4000,0.743
51.4400,0.742
51.4800,0.752
51.5200,0.760
51.5600,0.736
51.6000,0.787
51.6400,0.765
51.6800,0.798
51.7200,0.773
51.7600,0.753
51.8000,0.705
51.8400,0.737
51.8800,0.751
51.9200,0.747
51.9600,0.793
52.0000,0.757
52.0400,0.732
52.0800,0.741
52.1200,0.715
52.1600,0.735
52.2000,0.763
52.2400,0.743
52.2800,0.745
52.3200,0.726
52.3600,0.757
52.4000,0.791
52.4400,0.737
52.4800,0.709
52.5200,0.725
52.5600,0.783
52.6000,0.772
52.6400,0.719
52.6800,0.750
52.7200,0.704
52.7600,0.705
52.8000,0.745
52.8400,0.772
52.8800,0.727
52.9200,0.707
52.9600,0.716
53.0000,0.772
53.0400,0.701
53.0800,0.777
53.1200,0.728
53.1600,0.734
53.2000,0.721
53.2400,0.704
53.2800,0.704
53.3200,0.724
53.3600,0.712
53.4000,0.723
53.4400,0.711
53.4800,0.735
53.5200,0.745
53.5600,0.757
53.6000,0.731
53.6400,0.668
53.6800,0.658
53.7200,0.725
53.7600,0.677
53.8000,0.700
53.8400,0.692
53.8800,0.727
53.9200,0.706
53.9600,0.689
54.0000,0.664
54.0400,0.728
54.0800,0.674
54.1200,0.722
54.1600,0.685
54.2000,0.689
54.2400,0.720
54.2800,0.679
54.3200,0.665
54.3600,0.691
54.4000,0.740
54.4400,0.687
54.4800,0.721
54.5200,0.697
54.5600,0.640
54.6000,0.708
54.6400,0.658
54.6800,0.699
54.7200,0.665
54.7600,0.669
54.8000,0.671
54.8400,0.710
54.8800,0.709
54.9200,0.659
54.9600,0.683
55.0000,0.711
55.0400,0.705
55.0800,0.685
55.1200,0.724
55.1600,0.729
55.2000,0.714
55.2400,0.711
55.2800,0.679
55.3200,0.650
55.3600,0.691
55.4000,0.752
55.4400,0.742
55.4800,0.662
55.5200,0.694
55.5600,0.719
55.6000,0.706
55.6400,0.719
55.6800,0.690
55.7200,0.720
55.7600,0.698
55.8000,0.754
55.8400,0.710
55.8800,0.729
55.9200,0.747
55.9600,0.724
56.0000,0.700
56.0400,0.731
56.0800,0.717
56.1200,0.767
56.1600,0.766
56.2000,0.759
56.2400,0.807
56.2800,0.851
56.3200,0.839
56.3600,0.859
56.4000,0.808
56.4400,0.836
56.4800,0.874
56.5200,0.870
56.5600,0.846
56.6000,0.901
56.6400,0.891
56.6800,0.878
56.7200,0.880
56.7600,0.893
56.8000,0.897
56.8400,0.843
56.8800,0.832
56.9200,0.833
56.9600,0.850
57.0000,0.846
57.0400,0.829
57.0800,0.797
57.1200,0.778
57.1600,0.781
57.2000,0.852
57.2400,0.783
57.2800,0.789
57.3200,0.714
57.3600,0.717
57.4000,0.678
57.4400,0.689
57.4800,0.692
57.5200,0.717
57.5600,0.700
57.6000,0.682
57.6400,0.689
57.6800,0.708
57.7200,0.687
57.7600,0.670
57.8000,0.695
57.8400,0.709
57.8800,0.678
57.9200,0.658
57.9600,0.656
58.0000,0.630
58.0400,0.655
58.0800,0.664
58.1200,0.640
58.1600,0.682
58.2000,0.624
58.2400,0.648
58.2800,0.660
58.3200,0.688
58.3600,0.650
58.4000,0.604
58.4400,0.678
58.4800,0.645
58.5200,0.646
58.5600,0.632
58.6000,0.652
58.6400,0.645
58.6800,0.644
58.7200,0.651
58.7600,0.637
58.8000,0.625
58.8400,0.608
58.8800,0.672
58.9200,0.642
58.9600,0.596
59.0000,0.643
59.0400,0.626
59.0800,0.637
59.1200,0.641
59.1600,0.629
59.2000,0.581
59.2400,0.575
59.2800,0.572
59.3200,0.663
59.3600,0.614
59.4000,0.600
59.4400,0.623
59.4800,0.619
59.5200,0.629
59.5600,0.587
59.6000,0.611
59.6400,0.597
59.6800,0.605
59.7200,0.623
59.7600,0.563
59.8000,0.612
59.8400,0.576
59.8800,0.578
59.9200,0.579
59.9600,0.584
60.0000,0.582
60.0400,0.607
60.0800,0.605
60.1200,0.605
60.1600,0.576
60.2000,0.626
60.2400,0.573
60.2800,0.585
60.3200,0.614
60.3600,0.632
60.4000,0.651
60.4400,0.657
60.4800,0.657
60.5200,0.618
60.5600,0.666
60.6000,0.661
60.6400,0.667
60.6800,0.697
60.7200,0.697
60.7600,0.672
60.8000,0.779
60.8400,0.710
60.8800,0.749
60.9200,0.733
60.9600,0.805
61.0000,0.845
61.0400,0.792
61.0800,0.809
61.1200,0.833
61.1600,0.811
61.2000,0.756
61.2400,0.711
61.2800,0.695
61.3200,0.727
61.3600,0.660
61.4000,0.686
61.4400,0.643
61.4800,0.627
61.5200,0.628
61.5600,0.578
61.6000,0.641
61.6400,0.779
61.6800,0.735
61.7200,0.715
61.7600,0.628
61.8000,0.647
61.8400,0.633
61.8800,0.621
61.9200,0.610
61.9600,0.618
62.0000,0.619
62.0400,0.639
62.0800,0.641
62.1200,0.612
62.1600,0.639
62.2000,0.650
62.2400,0.671
62.2800,0.659
62.3200,0.608
62.3600,0.649
62.4000,0.643
62.4400,0.651
62.4800,0.647
62.5200,0.645
62.5600,0.677
62.6000,0.660
62.6400,0.608
62.6800,0.656
62.7200,0.705
62.7600,0.724
62.8000,0.681
62.8400,0.676
62.8800,0.739
62.9200,0.729
62.9600,0.686
63.0000,0.669
63.0400,0.719
63.0800,0.664
63.1200,0.674
63.1600,0.658
63.2000,0.631
63.2400,0.649
63.2800,0.663
63.3200,0.643
63.3600,0.626
63.4000,0.614
63.4400,0.656
63.4800,0.674
63.5200,0.644
63.5600,0.620
63.6000,0.619
63.6400,0.619
63.6800,0.650
63.7200,0.614
63.7600,0.616
63.8000,0.616
63.8400,0.617
63.8800,0.596
63.9200,0.605
63.9600,0.620
64.0000,0.613
64.0400,0.593
64.0800,0.623
64.1200,0.588
64.1600,0.610
64.2000,0.612
64.2400,0.590
64.2800,0.619
64.3200,0.641
64.3600,0.616
64.4000,0.631
64.4400,0.627
64.4800,0.671
64.5200,0.588
64.5600,0.640
64.6000,0.606
64.6400,0.612
64.6800,0.644
64.7200,0.643
64.7600,0.650
64.8000,0.627
64.8400,0.658
64.8800,0.637
64.9200,0.587
64.9600,0.627
65.0000,0.595
65.0400,0.614
65.0800,0.612
65.1200,0.655
65.1600,0.659
65.2000,0.641
65.2400,0.669
65.2800,0.669
65.3200,0.691
65.3600,0.656
65.4000,0.695
65.4400,0.655
65.4800,0.694
65.5200,0.658
65.5600,0.679
65.6000,0.661
65.6400,0.745
65.6800,0.676
65.7200,0.684
65.7600,0.741
65.8000,0.756
65.8400,0.769
65.8800,0.716
65.9200,0.782
65.9600,0.742
66.0000,0.782
66.0400,0.774
66.0800,0.790
66.1200,0.800
66.1600,0.797
66.2000,0.799
66.2400,0.812
66.2800,0.855
66.3200,0.819
66.3600,0.880
66.4000,0.855
66.4400,0.902
66.4800,0.869
66.5200,0.884
66.5600,0.896
66.6000,0.922
66.6400,0.916
66.6800,1.002
66.7200,0.950
66.7600,1.001
66.8000,0.981
66.8400,1.030
66.8800,1.034
66.9200,1.048
66.9600,1.066
67.0000,1.141
67.0400,1.160
67.0800,1.143
67.1200,1.160
67.1600,1.117
67.2000,1.256
67.2400,1.260
67.2800,1.248
67.3200,1.291
67.3600,1.318
67.4000,1.359
67.4400,1.346
67.4800,1.358
67.5200,1.443
67.5600,1.434
67.6000,1.441
67.6400,1.533
67.6800,1.528
67.7200,1.587
67.7600,1.647
67.8000,1.696
67.8400,1.697
67.8800,1.721
67.9200,1.763
67.9600,1.857
68.0000,1.905
68.0400,1.900
68.0800,1.977
68.1200,2.003
68.1600,2.077
68.2000,2.146
68.2400,2.124
68.2800,2.229
68.3200,2.375
68.3600,2.402
68.4000,2.584
68.4400,2.635
68.4800,2.810
68.5200,2.864
68.5600,3.147
68.6000,3.407
68.6400,3.720
68.6800,4.259
68.7200,5.374
68.7600,7.038
68.8000,8.292
68.8400,8.708
68.8800,8.705
68.9200,9.762
68.9600,13.174
69.0000,21.020
69.0400,45.273
69.0800,206.299
69.1200,578.835
69.1600,484.519
69.2000,136.133
69.2400,56.374
69.2800,133.164
69.3200,303.034
69.3600,238.020
69.4000,68.721
69.4400,22.102
69.4800,12.632
69.5200,9.288
69.5600,7.511
69.6000,6.340
69.6400,5.391
69.6800,4.683
69.7200,4.351
69.7600,3.986
69.8000,3.594
69.8400,3.380
69.8800,3.232
69.9200,3.130
69.9600,2.923
70.0000,2.780
70.0400,2.676
70.0800,2.521
70.1200,2.559
70.1600,2.318
70.2000,2.268
70.2400,2.073
70.2800,2.231
70.3200,2.028
70.3600,1.964
70.4000,1.933
70.4400,1.888
70.4800,1.838
70.5200,1.755
70.5600,1.743
70.6000,1.631
70.6400,1.626
70.6800,1.471
70.7200,1.452
70.7600,1.377
70.8000,1.404
70.8400,1.392
70.8800,1.333
70.9200,1.304
70.9600,1.284
71.0000,1.349
71.0400,1.247
71.0800,1.149
71.1200,1.194
71.1600,1.171
71.2000,1.159
71.2400,1.169
71.2800,1.058
71.3200,1.157
71.3600,1.160
71.4000,1.010
71.4400,0.973
71.4800,0.966
71.5200,0.951
71.5600,0.964
71.6000,0.969
71.6400,0.952
71.6800,0.956
71.7200,0.880
71.7600,0.954
71.8000,0.920
71.8400,0.881
71.8800,0.883
71.9200,0.859
71.9600,0.820
72.0000,0.777
72.0400,0.778
72.0800,0.791
72.1200,0.811
72.1600,0.744
72.2000,0.729
72.2400,0.703
72.2800,0.692
72.3200,0.704
72.3600,0.633
72.4000,0.644
72.4400,0.658
72.4800,0.674
72.5200,0.602
72.5600,0.624
72.6000,0.618
72.6400,0.606
72.6800,0.666
72.7200,0.591
72.7600,0.583
72.8000,0.594
72.8400,0.621
72.8800,0.588
72.9200,0.553
72.9600,0.584
73.0000,0.573
73.0400,0.554
73.0800,0.592
73.1200,0.600
73.1600,0.576
73.2000,0.537
73.2400,0.519
73.2800,0.556
73.3200,0.568
73.3600,0.561
73.4000,0.565
73.4400,0.549
73.4800,0.512
73.5200,0.539
73.5600,0.542
73.6000,0.532
73.6400,0.523
73.6800,0.490
73.7200,0.497
73.7600,0.499
73.8000,0.452
73.8400,0.471
73.8800,0.463
73.9200,0.470
73.9600,0.437
74.0000,0.493
74.0400,0.440
74.0800,0.455
74.1200,0.474
74.1600,0.445
74.2000,0.428
74.2400,0.439
74.2800,0.448
74.3200,0.429
74.3600,0.443
74.4000,0.421
74.4400,0.457
74.4800,0.432
74.5200,0.418
74.5600,0.436
74.6000,0.447
74.6400,0.448
74.6800,0.417
74.7200,0.413
74.7600,0.438
74.8000,0.431
74.8400,0.399
74.8800,0.395
74.9200,0.388
74.9600,0.415
75.0000,0.382
75.0400,0.380
75.0800,0.406
75.1200,0.430
75.1600,0.381
75.2000,0.404
75.2400,0.405
75.2800,0.400
75.3200,0.383
75.3600,0.394
75.4000,0.386
75.4400,0.388
75.4800,0.366
75.5200,0.417
75.5600,0.389
75.6000,0.381
75.6400,0.380
75.6800,0.357
75.7200,0.382
75.7600,0.400
75.8000,0.384
75.8400,0.386
75.8800,0.398
75.9200,0.394
75.9600,0.394
76.0000,0.356
76.0400,0.410
76.0800,0.403
76.1200,0.436
76.1600,0.360
76.2000,0.394
76.2400,0.422
76.2800,0.415
76.3200,0.430
76.3600,0.462
76.4000,0.421
76.4400,0.423
76.4800,0.444
76.5200,0.482
76.5600,0.497
76.6000,0.534
76.6400,0.529
76.6800,0.550
76.7200,0.561
76.7600,0.544
76.8000,0.559
76.8400,0.600
76.8800,0.632
76.9200,0.618
76.9600,0.565
77.0000,0.567
77.0400,0.609
77.0800,0.580
77.1200,0.478
77.1600,0.514
77.2000,0.517
77.2400,0.495
77.2800,0.435
77.3200,0.459
77.3600,0.449
77.4000,0.409
77.4400,0.424
77.4800,0.393
77.5200,0.402
77.5600,0.382
77.6000,0.369
77.6400,0.386
77.6800,0.374
77.7200,0.392
77.7600,0.376
77.8000,0.346
77.8400,0.348
77.8800,0.371
77.9200,0.362
77.9600,0.328
78.0000,0.360
78.0400,0.308
78.0800,0.335
78.1200,0.333
78.1600,0.293
78.2000,0.337
78.2400,0.344
78.2800,0.343
78.3200,0.349
78.3600,0.325
78.4000,0.340
78.4400,0.347
78.4800,0.320
78.5200,0.341
78.5600,0.320
78.6000,0.342
78.6400,0.297
78.6800,0.306
78.7200,0.344
78.7600,0.289
78.8000,0.309
78.8400,0.317
78.8800,0.319
78.9200,0.342
78.9600,0.281
79.0000,0.340
79.0400,0.302
79.0800,0.304
79.1200,0.295
79.1600,0.302
79.2000,0.327
79.2400,0.318
79.2800,0.273
79.3200,0.302
79.3600,0.320
79.4000,0.315
79.4400,0.323
79.4800,0.286
79.5200,0.314
79.5600,0.313
79.6000,0.330
79.6400,0.310
79.6800,0.266
79.7200,0.311
79.7600,0.314
79.8000,0.317
79.8400,0.320
79.8800,0.296
79.9200,0.289
79.9600,0.299
80.0000,0.318
