theta,intensity
5.0000,5.854
5.0400,5.866
5.0800,5.635
5.1200,5.623
5.1600,5.706
5.2000,5.537
5.2400,5.510
5.2800,5.437
5.3200,5.435
5.3600,5.296
5.4000,5.269
5.4400,5.277
5.4800,5.298
5.5200,5.111
5.5600,5.087
5.6000,5.031
5.6400,4.939
5.6800,4.904
5.7200,4.676
5.7600,4.697
5.8000,4.666
5.8400,4.504
5.8800,4.603
5.9200,4.457
5.9600,4.416
6.0000,4.375
6.0400,4.420
6.0800,4.467
6.1200,4.355
6.1600,4.296
6.2000,4.369
6.2400,4.176
6.2800,4.209
6.3200,4.195
6.3600,4.233
6.4000,4.178
6.4400,4.275
6.4800,4.064
6.5200,4.161
6.5600,4.210
6.6000,4.218
6.6400,4.198
6.6800,4.028
6.7200,4.084
6.7600,4.100
6.8000,4.108
6.8400,4.102
6.8800,4.071
6.9200,4.123
6.9600,4.146
7.0000,4.150
7.0400,4.052
7.0800,4.027
7.1200,4.070
7.1600,4.057
7.2000,4.051
7.2400,4.051
7.2800,4.011
7.3200,3.985
7.3600,4.009
7.4000,4.044
7.4400,3.955
7.4800,3.996
7.5200,4.001
7.5600,4.062
7.6000,3.951
7.6400,4.057
7.6800,3.994
7.7200,3.978
7.7600,3.853
7.8000,3.866
7.8400,3.957
7.8800,3.876
7.9200,3.908
7.9600,3.868
8.0000,4.027
8.0400,3.830
8.0800,3.883
8.1200,3.959
8.1600,3.758
8.2000,3.902
8.2400,3.885
8.2800,3.897
8.3200,3.930
8.3600,3.954
8.4000,3.888
8.4400,3.826
8.4800,3.969
8.5200,3.881
8.5600,3.888
8.6000,3.814
8.6400,3.905
8.6800,3.760
8.7200,3.776
8.7600,3.719
8.8000,3.753
8.8400,3.780
8.8800,3.748
8.9200,3.915
8.9600,3.796
9.0000,3.738
9.0400,3.837
9.0800,3.897
9.1200,3.759
9.1600,3.777
9.2000,3.722
9.2400,3.756
9.2800,3.827
9.3200,3.803
9.3600,3.697
9.4000,3.770
9.4400,3.719
9.4800,3.685
9.5200,3.764
9.5600,3.654
9.6000,3.598
9.6400,3.686
9.6800,3.750
9.7200,3.714
9.7600,3.669
9.8000,3.983
9.8400,3.694
9.8800,3.675
9.9200,3.754
9.9600,3.696
10.0000,3.678
10.0400,3.631
10.0800,3.648
10.1200,3.647
10.1600,3.691
10.2000,3.661
10.2400,3.592
10.2800,3.557
10.3200,3.589
10.3600,3.570
10.4000,3.609
10.4400,3.583
10.4800,3.488
10.5200,3.697
10.5600,3.611
10.6000,3.593
10.6400,3.630
10.6800,3.505
10.7200,3.651
10.7600,3.622
10.8000,3.582
10.8400,3.544
10.8800,3.675
10.9200,3.592
10.9600,3.676
11.0000,3.703
11.0400,3.590
11.0800,3.555
11.1200,3.602
11.1600,3.560
11.2000,3.566
11.2400,3.576
11.2800,3.650
11.3200,3.576
11.3600,3.566
11.4000,3.453
11.4400,3.458
11.4800,3.586
11.5200,3.567
11.5600,3.523
11.6000,3.605
11.6400,3.542
11.6800,3.443
11.7200,3.534
11.7600,3.438
11.8000,3.565
11.8400,3.420
11.8800,3.479
11.9200,3.552
11.9600,3.497
12.0000,3.412
12.0400,3.493
12.0800,3.449
12.1200,3.452
12.1600,3.440
12.2000,3.384
12.2400,3.451
12.2800,3.502
12.3200,3.433
12.3600,3.479
12.4000,3.450
12.4400,3.407
12.4800,3.425
12.5200,3.406
12.5600,3.438
12.6000,3.425
12.6400,3.469
12.6800,3.404
12.7200,3.432
12.7600,3.383
12.8000,3.435
12.8400,3.441
12.8800,3.387
12.9200,3.337
12.9600,3.422
13.0000,3.441
13.0400,3.398
13.0800,3.412
13.1200,3.441
13.1600,3.356
13.2000,3.427
13.2400,3.440
13.2800,3.420
13.3200,3.374
13.3600,3.268
13.4000,3.385
13.4400,3.318
13.4800,3.237
13.5200,3.415
13.5600,3.390
13.6000,3.392
13.6400,3.274
13.6800,3.316
13.7200,3.321
13.7600,3.320
13.8000,3.335
13.8400,3.261
13.8800,3.276
13.9200,3.328
13.9600,3.312
14.0000,3.219
14.0400,3.253
14.0800,3.231
14.1200,3.245
14.1600,3.268
14.2000,3.273
14.2400,3.332
14.2800,3.242
14.3200,3.229
14.3600,3.164
14.4000,3.254
14.4400,3.266
14.4800,3.193
14.5200,3.268
14.5600,3.280
14.6000,3.290
14.6400,3.260
14.6800,3.169
14.7200,3.192
14.7600,3.178
14.8000,3.251
14.8400,3.297
14.8800,3.234
14.9200,3.222
14.9600,3.302
15.0000,3.152
15.0400,3.138
15.0800,3.229
15.1200,3.132
15.1600,3.180
15.2000,3.185
15.2400,3.161
15.2800,3.297
15.3200,3.179
15.3600,3.122
15.4000,3.115
15.4400,3.107
15.4800,3.197
15.5200,3.208
15.5600,3.100
15.6000,3.066
15.6400,3.141
15.6800,3.142
15.7200,3.067
15.7600,3.065
15.8000,3.138
15.8400,3.079
15.8800,3.114
15.9200,3.111
15.9600,2.971
16.0000,3.083
16.0400,3.023
16.0800,2.906
16.1200,3.088
16.1600,3.059
16.2000,2.964
16.2400,3.088
16.2800,3.030
16.3200,3.013
16.3600,3.045
16.4000,3.047
16.4400,3.093
16.4800,3.080
16.5200,3.072
16.5600,2.972
16.6000,3.050
16.6400,3.000
16.6800,3.093
16.7200,2.978
16.7600,3.040
16.8000,2.937
16.8400,3.009
16.8800,3.057
16.9200,3.006
16.9600,2.987
17.0000,2.930
17.0400,2.906
17.0800,2.981
17.1200,2.995
17.1600,2.963
17.2000,3.027
17.2400,3.000
17.2800,2.923
17.3200,2.890
17.3600,3.016
17.4000,2.888
17.4400,2.909
17.4800,2.940
17.5200,2.920
17.5600,2.997
17.6000,2.917
17.6400,2.854
17.6800,2.964
17.7200,3.019
17.7600,2.931
17.8000,2.954
17.8400,2.855
17.8800,2.926
17.9200,2.935
17.9600,2.953
18.0000,2.922
18.0400,2.858
18.0800,2.862
18.1200,2.939
18.1600,2.776
18.2000,2.824
18.2400,2.833
18.2800,2.947
18.3200,2.768
18.3600,2.958
18.4000,2.959
18.4400,2.818
18.4800,2.866
18.5200,2.889
18.5600,2.855
18.6000,2.891
18.6400,2.832
18.6800,2.714
18.7200,2.856
18.7600,2.823
18.8000,2.769
18.8400,2.765
18.8800,2.782
18.9200,2.856
18.9600,2.834
19.0000,2.798
19.0400,2.853
19.0800,2.865
19.1200,2.832
19.1600,2.695
19.2000,2.779
19.2400,2.716
19.2800,2.728
19.3200,2.695
19.3600,2.756
19.4000,2.675
19.4400,2.757
19.4800,2.760
19.5200,2.807
19.5600,2.683
19.6000,2.746
19.6400,2.776
19.6800,2.700
19.7200,2.661
19.7600,2.667
19.8000,2.702
19.8400,2.731
19.8800,2.749
19.9200,2.732
19.9600,2.777
20.0000,2.619
20.0400,2.675
20.0800,2.688
20.1200,2.669
20.1600,2.603
20.2000,2.664
20.2400,2.728
20.2800,2.718
20.3200,2.662
20.3600,2.693
20.4000,2.606
20.4400,2.672
20.4800,2.713
20.5200,2.649
20.5600,2.696
20.6000,2.662
20.6400,2.656
20.6800,2.630
20.7200,2.652
20.7600,2.579
20.8000,2.617
20.8400,2.667
20.8800,2.649
20.9200,2.538
20.9600,2.675
21.0000,2.706
21.0400,2.608
21.0800,2.576
21.1200,2.585
21.1600,2.616
21.2000,2.669
21.2400,2.649
21.2800,2.602
21.3200,2.596
21.3600,2.557
21.4000,2.566
21.4400,2.604
21.4800,2.614
21.5200,2.575
21.5600,2.602
21.6000,2.570
21.6400,2.502
21.6800,2.543
21.7200,2.559
21.7600,2.493
21.8000,2.513
21.8400,2.530
21.8800,2.555
21.9200,2.522
21.9600,2.467
22.0000,2.470
22.0400,2.576
22.0800,2.527
22.1200,2.445
22.1600,2.534
22.2000,2.550
22.2400,2.496
22.2800,2.469
22.3200,2.488
22.3600,2.542
22.4000,2.510
22.4400,2.476
22.4800,2.514
22.5200,2.374
22.5600,2.486
22.6000,2.493
22.6400,2.544
22.6800,2.370
22.7200,2.462
22.7600,2.461
22.8000,2.442
22.8400,2.443
22.8800,2.478
22.9200,2.388
22.9600,2.481
23.0000,2.504
23.0400,2.481
23.0800,2.454
23.1200,2.352
23.1600,2.455
23.2000,2.435
23.2400,2.404
23.2800,2.432
23.3200,2.394
23.3600,2.442
23.4000,2.387
23.4400,2.379
23.4800,2.412
23.5200,2.347
23.5600,2.381
23.6000,2.375
23.6400,2.354
23.6800,2.401
23.7200,2.379
23.7600,2.294
23.8000,2.373
23.8400,2.367
23.8800,2.376
23.9200,2.403
23.9600,2.323
24.0000,2.364
24.0400,2.308
24.0800,2.371
24.1200,2.233
24.1600,2.343
24.2000,2.409
24.2400,2.367
24.2800,2.320
24.3200,2.250
24.3600,2.281
24.4000,2.376
24.4400,2.308
24.4800,2.285
24.5200,2.310
24.5600,2.315
24.6000,2.221
24.6400,2.296
24.6800,2.327
24.7200,2.311
24.7600,2.260
24.8000,2.372
24.8400,2.291
24.8800,2.247
24.9200,2.256
24.9600,2.221
25.0000,2.212
25.0400,2.302
25.0800,2.176
25.1200,2.184
25.1600,2.200
25.2000,2.189
25.2400,2.228
25.2800,2.244
25.3200,2.190
25.3600,2.244
25.4000,2.298
25.4400,2.160
25.4800,2.284
25.5200,2.226
25.5600,2.201
25.6000,2.244
25.6400,2.197
25.6800,2.153
25.7200,2.235
25.7600,2.220
25.8000,2.173
25.8400,2.221
25.8800,2.165
25.9200,2.188
25.9600,2.168
26.0000,2.113
26.0400,2.151
26.0800,2.191
26.1200,2.104
26.1600,2.165
26.2000,2.113
26.2400,2.178
26.2800,2.132
26.3200,2.131
26.3600,2.261
26.4000,2.218
26.4400,2.178
26.4800,2.170
26.5200,2.165
26.5600,2.098
26.6000,2.146
26.6400,2.147
26.6800,2.162
26.7200,2.109
26.7600,2.114
26.8000,2.188
26.8400,2.115
26.8800,2.094
26.9200,2.113
26.9600,2.114
27.0000,2.119
27.0400,2.042
27.0800,2.057
27.1200,2.050
27.1600,2.105
27.2000,2.047
27.2400,2.161
27.2800,2.094
27.3200,2.114
27.3600,2.134
27.4000,2.067
27.4400,2.033
27.4800,2.108
27.5200,2.056
27.5600,2.063
27.6000,2.043
27.6400,2.120
27.6800,2.022
27.7200,2.075
27.7600,2.030
27.8000,2.031
27.8400,1.987
27.8800,1.957
27.9200,2.007
27.9600,2.012
28.0000,1.984
28.0400,1.966
28.0800,2.036
28.1200,2.050
28.1600,1.898
28.2000,1.936
28.2400,2.065
28.2800,2.039
28.3200,2.047
28.3600,1.977
28.4000,1.946
28.4400,1.953
28.4800,1.963
28.5200,1.974
28.5600,1.976
28.6000,2.006
28.6400,1.933
28.6800,1.961
28.7200,2.000
28.7600,1.956
28.8000,1.865
28.8400,1.963
28.8800,1.972
28.9200,2.003
28.9600,1.861
29.0000,1.934
29.0400,1.992
29.0800,1.956
29.1200,1.995
29.1600,1.946
29.2000,1.897
29.2400,1.937
29.2800,1.954
29.3200,1.881
29.3600,1.851
29.4000,1.941
29.4400,1.898
29.4800,1.940
29.5200,1.899
29.5600,1.906
29.6000,1.914
29.6400,1.793
29.6800,1.928
29.7200,1.934
29.7600,1.907
29.8000,1.860
29.8400,1.860
29.8800,1.808
29.9200,1.839
29.9600,1.889
30.0000,1.945
30.0400,1.829
30.0800,1.884
30.1200,1.891
30.1600,1.852
30.2000,1.850
30.2400,1.910
30.2800,1.863
30.3200,1.835
30.3600,1.815
30.4000,1.837
30.4400,1.848
30.4800,1.946
30.5200,1.854
30.5600,1.855
30.6000,1.880
30.6400,1.890
30.6800,1.851
30.7200,1.860
30.7600,1.935
30.8000,1.860
30.8400,1.919
30.8800,1.957
30.9200,1.940
30.9600,1.850
31.0000,1.822
31.0400,1.939
31.0800,1.890
31.1200,1.816
31.1600,1.867
31.2000,1.844
31.2400,1.838
31.2800,1.827
31.3200,1.729
31.3600,1.647
31.4000,1.809
31.4400,1.699
31.4800,1.742
31.5200,1.749
31.5600,1.770
31.6000,1.737
31.6400,1.800
31.6800,1.749
31.7200,1.791
31.7600,1.767
31.8000,1.730
31.8400,1.698
31.8800,1.721
31.9200,1.763
31.9600,1.721
32.0000,1.718
32.0400,1.758
32.0800,1.652
32.1200,1.754
32.1600,1.669
32.2000,1.728
32.2400,1.688
32.2800,1.745
32.3200,1.666
32.3600,1.657
32.4000,1.701
32.4400,1.749
32.4800,1.715
32.5200,1.647
32.5600,1.729
32.6000,1.668
32.6400,1.646
32.6800,1.662
32.7200,1.543
32.7600,1.647
32.8000,1.617
32.8400,1.680
32.8800,1.750
32.9200,1.596
32.9600,1.670
33.0000,1.841
33.0400,1.859
33.0800,1.778
33.1200,1.691
33.1600,1.724
33.2000,1.674
33.2400,1.672
33.2800,1.620
33.3200,1.584
33.3600,1.603
33.4000,1.571
33.4400,1.616
33.4800,1.617
33.5200,1.624
33.5600,1.584
33.6000,1.567
33.6400,1.651
33.6800,1.624
33.7200,1.644
33.7600,1.575
33.8000,1.581
33.8400,1.568
33.8800,1.583
33.9200,1.583
33.9600,1.621
34.0000,1.558
34.0400,1.617
34.0800,1.546
34.1200,1.549
34.1600,1.649
34.2000,1.605
34.2400,1.606
34.2800,1.579
34.3200,1.603
34.3600,1.543
34.4000,1.619
34.4400,1.520
34.4800,1.515
34.5200,1.526
34.5600,1.592
34.6000,1.514
34.6400,1.572
34.6800,1.594
34.7200,1.555
34.7600,1.483
34.8000,1.507
34.8400,1.500
34.8800,1.539
34.9200,1.542
34.9600,1.574
35.0000,1.531
35.0400,1.515
35.0800,1.503
35.1200,1.479
35.1600,1.468
35.2000,1.501
35.2400,1.475
35.2800,1.478
35.3200,1.419
35.3600,1.500
35.4000,1.470
35.4400,1.455
35.4800,1.543
35.5200,1.459
35.5600,1.487
35.6000,1.523
35.6400,1.426
35.6800,1.378
35.7200,1.524
35.7600,1.463
35.8000,1.467
35.8400,1.493
35.8800,1.412
35.9200,1.368
35.9600,1.437
36.0000,1.497
36.0400,1.432
36.0800,1.445
36.1200,1.438
36.1600,1.488
36.2000,1.471
36.2400,1.475
36.2800,1.468
36.3200,1.463
36.3600,1.441
36.4000,1.460
36.4400,1.458
36.4800,1.449
36.5200,1.461
36.5600,1.437
36.6000,1.384
36.6400,1.434
36.6800,1.326
36.7200,1.446
36.7600,1.446
36.8000,1.438
36.8400,1.337
36.8800,1.363
36.9200,1.413
36.9600,1.438
37.0000,1.439
37.0400,1.404
37.0800,1.415
37.1200,1.340
37.1600,1.355
37.2000,1.373
37.2400,1.393
37.2800,1.408
37.3200,1.407
37.3600,1.297
37.4000,1.369
37.4400,1.440
37.4800,1.387
37.5200,1.386
37.5600,1.361
37.6000,1.411
37.6400,1.359
37.6800,1.302
37.7200,1.379
37.7600,1.324
37.8000,1.311
37.8400,1.359
37.8800,1.365
37.9200,1.410
37.9600,1.358
38.0000,1.378
38.0400,1.349
38.0800,1.338
38.1200,1.298
38.1600,1.303
38.2000,1.388
38.2400,1.320
38.2800,1.361
38.3200,1.372
38.3600,1.403
38.4000,1.295
38.4400,1.346
38.4800,1.350
38.5200,1.331
38.5600,1.292
38.6000,1.338
38.6400,1.391
38.6800,1.312
38.7200,1.356
38.7600,1.405
38.8000,1.285
38.8400,1.359
38.8800,1.340
38.9200,1.284
38.9600,1.368
39.0000,1.314
39.0400,1.300
39.0800,1.340
39.1200,1.301
39.1600,1.355
39.2000,1.367
39.2400,1.417
39.2800,1.411
39.3200,1.416
39.3600,1.391
39.4000,1.354
39.4400,1.417
39.4800,1.421
39.5200,1.480
39.5600,1.460
39.6000,1.511
39.6400,1.516
39.6800,1.553
39.7200,1.521
39.7600,1.601
39.8000,1.687
39.8400,1.703
39.8800,1.708
39.9200,1.819
39.9600,1.885
40.0000,1.952
40.0400,2.039
40.0800,2.120
40.1200,2.126
40.1600,2.157
40.2000,2.175
40.2400,2.145
40.2800,2.122
40.3200,2.024
40.3600,2.009
40.4000,2.031
40.4400,2.043
40.4800,1.999
40.5200,1.873
40.5600,1.948
40.6000,1.929
40.6400,1.912
40.6800,1.897
40.7200,1.972
40.7600,2.041
40.8000,1.911
40.8400,2.039
40.8800,2.063
40.9200,2.045
40.9600,2.196
41.0000,2.171
41.0400,2.330
41.0800,2.474
41.1200,2.685
41.1600,2.698
41.2000,2.970
41.2400,2.989
41.2800,3.099
41.3200,3.035
41.3600,2.907
41.4000,2.806
41.4400,2.668
41.4800,2.439
41.5200,2.282
41.5600,2.318
41.6000,2.112
41.6400,2.023
41.6800,1.996
41.7200,1.854
41.7600,1.866
41.8000,1.812
41.8400,1.771
41.8800,1.642
41.9200,1.754
41.9600,1.665
42.0000,1.644
42.0400,1.618
42.0800,1.547
42.1200,1.615
42.1600,1.512
42.2000,1.435
42.2400,1.477
42.2800,1.440
42.3200,1.470
42.3600,1.437
42.4000,1.402
42.4400,1.473
42.4800,1.416
42.5200,1.421
42.5600,1.361
42.6000,1.402
42.6400,1.342
42.6800,1.380
42.7200,1.391
42.7600,1.390
42.8000,1.378
42.8400,1.328
42.8800,1.279
42.9200,1.406
42.9600,1.341
43.0000,1.350
43.0400,1.306
43.0800,1.358
43.1200,1.266
43.1600,1.255
43.2000,1.307
43.2400,1.298
43.2800,1.304
43.3200,1.266
43.3600,1.239
43.4000,1.310
43.4400,1.292
43.4800,1.340
43.5200,1.265
43.5600,1.292
43.6000,1.341
43.6400,1.275
43.6800,1.359
43.7200,1.341
43.7600,1.344
43.8000,1.390
43.8400,1.318
43.8800,1.399
43.9200,1.393
43.9600,1.419
44.0000,1.468
44.0400,1.526
44.0800,1.406
44.1200,1.502
44.1600,1.577
44.2000,1.486
44.2400,1.490
44.2800,1.427
44.3200,1.447
44.3600,1.329
44.4000,1.303
44.4400,1.242
44.4800,1.229
44.5200,1.203
44.5600,1.170
44.6000,1.127
44.6400,1.098
44.6800,1.180
44.7200,1.092
44.7600,1.167
44.8000,1.087
44.8400,1.158
44.8800,1.107
44.9200,1.058
44.9600,1.079
45.0000,1.040
45.0400,1.055
45.0800,1.061
45.1200,1.047
45.1600,1.073
45.2000,1.069
45.2400,1.025
45.2800,1.062
45.3200,1.015
45.3600,1.053
45.4000,1.027
45.4400,1.055
45.4800,1.023
45.5200,0.979
45.5600,1.001
45.6000,1.051
45.6400,1.014
45.6800,1.019
45.7200,1.052
45.7600,1.021
45.8000,1.073
45.8400,1.072
45.8800,1.000
45.9200,1.021
45.9600,0.969
46.0000,1.023
46.0400,1.043
46.0800,1.046
46.1200,1.035
46.1600,1.025
46.2000,1.036
46.2400,1.055
46.2800,1.067
46.3200,1.044
46.3600,1.059
46.4000,1.050
46.4400,1.094
46.4800,1.078
46.5200,1.063
46.5600,1.147
46.6000,1.114
46.6400,1.143
46.6800,1.134
46.7200,1.090
46.7600,1.060
46.8000,1.089
46.8400,1.097
46.8800,1.071
46.9200,1.051
46.9600,1.124
47.0000,1.019
47.0400,1.040
47.0800,0.980
47.1200,1.050
47.1600,0.963
47.2000,0.941
47.2400,0.998
47.2800,0.992
47.3200,0.947
47.3600,0.957
47.4000,0.921
47.4400,1.033
47.4800,0.980
47.5200,0.914
47.5600,0.984
47.6000,0.945
47.6400,0.939
47.6800,0.885
47.7200,0.966
47.7600,0.896
47.8000,0.909
47.8400,0.900
47.8800,0.911
47.9200,0.867
47.9600,0.881
48.0000,0.960
48.0400,0.911
48.0800,0.866
48.1200,0.874
48.1600,0.931
48.2000,0.850
48.2400,0.898
48.2800,0.890
48.3200,0.861
48.3600,0.821
48.4000,0.887
48.4400,0.897
48.4800,0.869
48.5200,0.870
48.5600,0.831
48.6000,0.862
48.6400,0.838
48.6800,0.867
48.7200,0.855
48.7600,0.899
48.8000,0.845
48.8400,0.810
48.8800,0.851
48.9200,0.832
48.9600,0.827
49.0000,0.847
49.0400,0.805
49.0800,0.802
49.1200,0.869
49.1600,0.849
49.2000,0.836
49.2400,0.832
49.2800,0.826
49.3200,0.871
49.3600,0.774
49.4000,0.814
49.4400,0.801
49.4800,0.886
49.5200,0.837
49.5600,0.819
49.6000,0.800
49.6400,0.807
49.6800,0.806
49.7200,0.833
49.7600,0.825
49.8000,0.794
49.8400,0.782
49.8800,0.785
49.9200,0.809
49.9600,0.791
50.0000,0.796
50.0400,0.783
50.0800,0.800
50.1200,0.814
50.1600,0.794
50.2000,0.763
50.2400,0.789
50.2800,0.801
50.3200,0.773
50.3600,0.769
50.4000,0.794
50.4400,0.789
50.4800,0.799
50.5200,0.836
50.5600,0.772
50.6000,0.798
50.6400,0.800
50.6800,0.770
50.7200,0.772
50.7600,0.797
50.8000,0.746
50.8400,0.772
50.8800,0.724
50.9200,0.786
50.9600,0.758
51.0000,0.782
51.0400,0.740
51.0800,0.743
51.1200,0.737
51.1600,0.788
51.2000,0.789
51.2400,0.715
51.2800,0.768
51.3200,0.745
51.3600,0.722
51.4000,0.730
51.4400,0.799
51.4800,0.733
51.5200,0.768
51.5600,0.748
51.6000,0.749
51.6400,0.746
51.6800,0.774
51.7200,0.783
51.7600,0.696
51.8000,0.737
51.8400,0.802
51.8800,0.778
51.9200,0.748
51.9600,0.771
52.0000,0.759
52.0400,0.818
52.0800,0.747
52.1200,0.748
52.1600,0.732
52.2000,0.737
52.2400,0.755
52.2800,0.762
52.3200,0.740
52.3600,0.767
52.4000,0.760
52.4400,0.702
52.4800,0.800
52.5200,0.765
52.5600,0.699
52.6000,0.719
52.6400,0.695
52.6800,0.696
52.7200,0.705
52.7600,0.718
52.8000,0.773
52.8400,0.742
52.8800,0.730
52.9200,0.703
52.9600,0.742
53.0000,0.724
53.0400,0.741
53.0800,0.695
53.1200,0.733
53.1600,0.743
53.2000,0.728
53.2400,0.709
53.2800,0.723
53.3200,0.689
53.3600,0.715
53.4000,0.642
53.4400,0.662
53.4800,0.672
53.5200,0.662
53.5600,0.685
53.6000,0.664
53.6400,0.675
53.6800,0.704
53.7200,0.670
53.7600,0.707
53.8000,0.696
53.8400,0.675
53.8800,0.734
53.9200,0.712
53.9600,0.703
54.0000,0.695
54.0400,0.690
54.0800,0.663
54.1200,0.688
54.1600,0.720
54.2000,0.711
54.2400,0.708
54.2800,0.673
54.3200,0.665
54.3600,0.699
54.4000,0.660
54.4400,0.692
54.4800,0.657
54.5200,0.691
54.5600,0.691
54.6000,0.732
54.6400,0.714
54.6800,0.671
54.7200,0.701
54.7600,0.709
54.8000,0.677
54.8400,0.715
54.8800,0.714
54.9200,0.695
54.9600,0.643
55.0000,0.709
55.0400,0.696
55.0800,0.740
55.1200,0.698
55.1600,0.744
55.2000,0.721
55.2400,0.684
55.2800,0.743
55.3200,0.684
55.3600,0.669
55.4000,0.724
55.4400,0.694
55.4800,0.688
55.5200,0.731
55.5600,0.676
55.6000,0.672
55.6400,0.692
55.6800,0.642
55.7200,0.691
55.7600,0.678
55.8000,0.642
55.8400,0.684
55.8800,0.690
55.9200,0.669
55.9600,0.645
56.0000,0.696
56.0400,0.662
56.0800,0.684
56.1200,0.706
56.1600,0.663
56.2000,0.664
56.2400,0.631
56.2800,0.694
56.3200,0.677
56.3600,0.631
56.4000,0.625
56.4400,0.631
56.4800,0.640
56.5200,0.690
56.5600,0.696
56.6000,0.679
56.6400,0.645
56.6800,0.649
56.7200,0.665
56.7600,0.668
56.8000,0.623
56.8400,0.672
56.8800,0.652
56.9200,0.619
56.9600,0.606
57.0000,0.634
57.0400,0.649
57.0800,0.663
57.1200,0.645
57.1600,0.595
57.2000,0.605
57.2400,0.601
57.2800,0.655
57.3200,0.661
57.3600,0.598
57.4000,0.622
57.4400,0.630
57.4800,0.616
57.5200,0.637
57.5600,0.628
57.6000,0.624
57.6400,0.618
57.6800,0.621
57.7200,0.610
57.7600,0.619
57.8000,0.650
57.8400,0.626
57.8800,0.656
57.9200,0.598
57.9600,0.575
58.0000,0.576
58.0400,0.576
58.0800,0.595
58.1200,0.644
58.1600,0.666
58.2000,0.623
58.2400,0.628
58.2800,0.598
58.3200,0.626
58.3600,0.657
58.4000,0.579
58.4400,0.607
58.4800,0.593
58.5200,0.581
58.5600,0.606
58.6000,0.571
58.6400,0.587
58.6800,0.588
58.7200,0.598
58.7600,0.626
58.8000,0.595
58.8400,0.570
58.8800,0.598
58.9200,0.613
58.9600,0.603
59.0000,0.630
59.0400,0.615
59.0800,0.608
59.1200,0.650
59.1600,0.551
59.2000,0.626
59.2400,0.635
59.2800,0.557
59.3200,0.573
59.3600,0.573
59.4000,0.565
59.4400,0.650
59.4800,0.580
59.5200,0.571
59.5600,0.613
59.6000,0.592
59.6400,0.618
59.6800,0.586
59.7200,0.603
59.7600,0.592
59.8000,0.597
59.8400,0.596
59.8800,0.609
59.9200,0.570
59.9600,0.548
60.0000,0.562
60.0400,0.619
60.0800,0.597
60.1200,0.649
60.1600,0.585
60.2000,0.581
60.2400,0.582
60.2800,0.576
60.3200,0.557
60.3600,0.548
60.4000,0.568
60.4400,0.602
60.4800,0.601
60.5200,0.543
60.5600,0.557
60.6000,0.583
60.6400,0.548
60.6800,0.545
60.7200,0.582
60.7600,0.592
60.8000,0.562
60.8400,0.573
60.8800,0.572
60.9200,0.545
60.9600,0.573
61.0000,0.553
61.0400,0.589
61.0800,0.552
61.1200,0.542
61.1600,0.556
61.2000,0.540
61.2400,0.527
61.2800,0.562
61.3200,0.568
61.3600,0.546
61.4000,0.507
61.4400,0.568
61.4800,0.587
61.5200,0.554
61.5600,0.553
61.6000,0.560
61.6400,0.590
61.6800,0.669
61.7200,0.657
61.7600,0.569
61.8000,0.624
61.8400,0.559
61.8800,0.597
61.9200,0.550
61.9600,0.597
62.0000,0.580
62.0400,0.511
62.0800,0.551
62.1200,0.535
62.1600,0.585
62.2000,0.578
62.2400,0.565
62.2800,0.588
62.3200,0.609
62.3600,0.545
62.4000,0.574
62.4400,0.522
62.4800,0.534
62.5200,0.549
62.5600,0.532
62.6000,0.545
62.6400,0.578
62.6800,0.569
62.7200,0.556
62.7600,0.545
62.8000,0.575
62.8400,0.603
62.8800,0.576
62.9200,0.555
62.9600,0.546
63.0000,0.587
63.0400,0.580
63.0800,0.568
63.1200,0.573
63.1600,0.557
63.2000,0.605
63.2400,0.582
63.2800,0.641
63.3200,0.600
63.3600,0.590
63.4000,0.563
63.4400,0.581
63.4800,0.570
63.5200,0.601
63.5600,0.618
63.6000,0.589
63.6400,0.578
63.6800,0.617
63.7200,0.568
63.7600,0.603
63.8000,0.607
63.8400,0.629
63.8800,0.596
63.9200,0.595
63.9600,0.634
64.0000,0.628
64.0400,0.654
64.0800,0.619
64.1200,0.636
64.1600,0.658
64.2000,0.616
64.2400,0.603
64.2800,0.631
64.3200,0.594
64.3600,0.647
64.4000,0.656
64.4400,0.634
64.4800,0.617
64.5200,0.601
64.5600,0.625
64.6000,0.614
64.6400,0.651
64.6800,0.630
64.7200,0.623
64.7600,0.593
64.8000,0.621
64.8400,0.640
64.8800,0.613
64.9200,0.665
64.9600,0.629
65.0000,0.595
65.0400,0.622
65.0800,0.613
65.1200,0.628
65.1600,0.635
65.2000,0.612
65.2400,0.631
65.2800,0.663
65.3200,0.653
65.3600,0.599
65.4000,0.608
65.4400,0.627
65.4800,0.660
65.5200,0.659
65.5600,0.674
65.6000,0.635
65.6400,0.675
65.6800,0.680
65.7200,0.675
65.7600,0.698
65.8000,0.690
65.8400,0.689
65.8800,0.728
65.9200,0.727
65.9600,0.735
66.0000,0.747
66.0400,0.714
66.0800,0.745
66.1200,0.797
66.1600,0.765
66.2000,0.746
66.2400,0.731
66.2800,0.824
66.3200,0.793
66.3600,0.809
66.4000,0.863
66.4400,0.815
66.4800,0.833
66.5200,0.845
66.5600,0.840
66.6000,0.890
66.6400,0.934
66.6800,0.940
66.7200,0.904
66.7600,0.892
66.8000,0.932
66.8400,0.983
66.8800,0.932
66.9200,1.003
66.9600,0.956
67.0000,1.059
67.0400,1.066
67.0800,1.005
67.1200,1.022
67.1600,1.097
67.2000,1.067
67.2400,1.098
67.2800,1.137
67.3200,1.173
67.3600,1.240
67.4000,1.254
67.4400,1.266
67.4800,1.328
67.5200,1.306
67.5600,1.301
67.6000,1.373
67.6400,1.450
67.6800,1.396
67.7200,1.508
67.7600,1.461
67.8000,1.542
67.8400,1.569
67.8800,1.555
67.9200,1.663
67.9600,1.736
68.0000,1.735
68.0400,1.787
68.0800,1.888
68.1200,1.990
68.1600,1.908
68.2000,2.033
68.2400,2.047
68.2800,2.177
68.3200,2.261
68.3600,2.283
68.4000,2.350
68.4400,2.495
68.4800,2.533
68.5200,2.647
68.5600,2.818
68.6000,2.931
68.6400,3.181
68.6800,3.655
68.7200,4.367
68.7600,5.686
68.8000,7.043
68.8400,7.803
68.8800,7.815
68.9200,8.128
68.9600,9.898
69.0000,13.884
69.0400,24.113
69.0800,69.403
69.1200,333.745
69.1600,545.418
69.2000,279.664
69.2400,69.192
69.2800,60.361
69.3200,190.139
69.3600,277.826
69.4000,136.880
69.4400,34.234
69.4800,14.832
69.5200,10.144
69.5600,7.685
69.6000,6.434
69.6400,5.380
69.6800,4.706
69.7200,4.233
69.7600,3.861
69.8000,3.694
69.8400,3.329
69.8800,3.202
69.9200,2.993
69.9600,2.848
70.0000,2.703
70.0400,2.585
70.0800,2.433
70.1200,2.339
70.1600,2.301
70.2000,2.268
70.2400,2.213
70.2800,2.045
70.3200,1.917
70.3600,1.931
70.4000,1.950
70.4400,1.789
70.4800,1.723
70.5200,1.645
70.5600,1.647
70.6000,1.577
70.6400,1.504
70.6800,1.540
70.7200,1.431
70.7600,1.425
70.8000,1.381
70.8400,1.446
70.8800,1.360
70.9200,1.307
70.9600,1.291
71.0000,1.245
71.0400,1.213
71.0800,1.182
71.1200,1.145
71.1600,1.113
71.2000,1.086
71.2400,1.046
71.2800,1.038
71.3200,1.082
71.3600,1.022
71.4000,0.975
71.4400,0.935
71.4800,0.921
71.5200,0.912
71.5600,0.906
71.6000,0.901
71.6400,0.916
71.6800,0.826
71.7200,0.874
71.7600,0.844
71.8000,0.789
71.8400,0.805
71.8800,0.768
71.9200,0.750
71.9600,0.753
72.0000,0.767
72.0400,0.779
72.0800,0.730
72.1200,0.686
72.1600,0.695
72.2000,0.698
72.2400,0.660
72.2800,0.665
72.3200,0.652
72.3600,0.624
72.4000,0.670
72.4400,0.659
72.4800,0.651
72.5200,0.668
72.5600,0.590
72.6000,0.615
72.6400,0.609
72.6800,0.602
72.7200,0.608
72.7600,0.632
72.8000,0.617
72.8400,0.606
72.8800,0.603
72.9200,0.562
72.9600,0.623
73.0000,0.591
73.0400,0.593
73.0800,0.582
73.1200,0.643
73.1600,0.599
73.2000,0.566
73.2400,0.578
73.2800,0.591
73.3200,0.587
73.3600,0.559
73.4000,0.565
73.4400,0.579
73.4800,0.542
73.5200,0.552
73.5600,0.549
73.6000,0.542
73.6400,0.568
73.6800,0.506
73.7200,0.497
73.7600,0.484
73.8000,0.479
73.8400,0.469
73.8800,0.478
73.9200,0.485
73.9600,0.479
74.0000,0.452
74.0400,0.448
74.0800,0.492
74.1200,0.485
74.1600,0.484
74.2000,0.464
74.2400,0.463
74.2800,0.446
74.3200,0.460
74.3600,0.449
74.4000,0.420
74.4400,0.474
74.4800,0.446
74.5200,0.439
74.5600,0.437
74.6000,0.431
74.6400,0.425
74.6800,0.437
74.7200,0.413
74.7600,0.440
74.8000,0.452
74.8400,0.412
74.8800,0.398
74.9200,0.408
74.9600,0.436
75.0000,0.401
75.0400,0.366
75.0800,0.393
75.1200,0.391
75.1600,0.406
75.2000,0.391
75.2400,0.424
75.2800,0.385
75.3200,0.443
75.3600,0.400
75.4000,0.437
75.4400,0.454
75.4800,0.407
75.5200,0.400
75.5600,0.385
75.6000,0.368
75.6400,0.409
75.6800,0.397
75.7200,0.371
75.7600,0.385
75.8000,0.374
75.8400,0.391
75.8800,0.382
75.9200,0.397
75.9600,0.390
76.0000,0.353
76.0400,0.386
76.0800,0.381
76.1200,0.376
76.1600,0.375
76.2000,0.382
76.2400,0.405
76.2800,0.413
76.3200,0.400
76.3600,0.354
76.4000,0.379
76.4400,0.373
76.4800,0.366
76.5200,0.378
76.5600,0.333
76.6000,0.339
76.6400,0.346
76.6800,0.322
76.7200,0.365
76.7600,0.369
76.8000,0.369
76.8400,0.378
76.8800,0.363
76.9200,0.375
76.9600,0.367
77.0000,0.362
77.0400,0.363
77.0800,0.389
77.1200,0.364
77.1600,0.384
77.2000,0.349
77.2400,0.370
77.2800,0.392
77.3200,0.360
77.3600,0.341
77.4000,0.378
77.4400,0.383
77.4800,0.377
77.5200,0.368
77.5600,0.312
77.6000,0.375
77.6400,0.370
77.6800,0.379
77.7200,0.384
77.7600,0.375
77.8000,0.361
77.8400,0.368
77.8800,0.358
77.9200,0.362
77.9600,0.348
78.0000,0.370
78.0400,0.327
78.0800,0.377
78.1200,0.379
78.1600,0.395
78.2000,0.398
78.2400,0.359
78.2800,0.338
78.3200,0.339
78.3600,0.354
78.4000,0.363
78.4400,0.354
78.4800,0.344
78.5200,0.354
78.5600,0.382
78.6000,0.367
78.6400,0.383
78.6800,0.356
78.7200,0.390
78.7600,0.394
78.8000,0.368
78.8400,0.406
78.8800,0.409
78.9200,0.386
78.9600,0.404
79.0000,0.408
79.0400,0.398
79.0800,0.402
79.1200,0.436
79.1600,0.415
79.2000,0.427
79.2400,0.436
79.2800,0.401
79.3200,0.436
79.3600,0.409
79.4000,0.419
79.4400,0.386
79.4800,0.363
79.5200,0.391
79.5600,0.401
79.6000,0.396
79.6400,0.390
79.6800,0.342
79.7200,0.379
79.7600,0.368
79.8000,0.354
79.8400,0.350
79.8800,0.337
79.9200,0.322
79.9600,0.323
80.0000,0.344
