theta,intensity
5.0000,6.090
5.0400,6.059
5.0800,5.927
5.1200,5.748
5.1600,5.771
5.2000,5.510
5.2400,5.527
5.2800,5.395
5.3200,5.271
5.3600,5.145
5.4000,5.073
5.4400,4.966
5.4800,4.802
5.5200,4.805
5.5600,4.672
5.6000,4.766
5.6400,4.582
5.6800,4.594
5.7200,4.507
5.7600,4.515
5.8000,4.428
5.8400,4.436
5.8800,4.460
5.9200,4.444
5.9600,4.428
6.0000,4.278
6.0400,4.416
6.0800,4.446
6.1200,4.334
6.1600,4.335
6.2000,4.268
6.2400,4.352
6.2800,4.285
6.3200,4.208
6.3600,4.426
6.4000,4.246
6.4400,4.248
6.4800,4.243
6.5200,4.330
6.5600,4.259
6.6000,4.213
6.6400,4.133
6.6800,4.140
6.7200,4.246
6.7600,4.244
6.8000,4.234
6.8400,4.122
6.8800,4.155
6.9200,4.162
6.9600,4.055
7.0000,4.144
7.0400,4.200
7.0800,4.010
7.1200,4.125
7.1600,4.087
7.2000,4.087
7.2400,4.077
7.2800,4.018
7.3200,4.102
7.3600,4.090
7.4000,4.006
7.4400,3.985
7.4800,3.996
7.5200,4.090
7.5600,4.118
7.6000,4.094
7.6400,3.918
7.6800,3.990
7.7200,4.002
7.7600,4.028
7.8000,4.039
7.8400,4.076
7.8800,4.020
7.9200,4.014
7.9600,4.000
8.0000,3.963
8.0400,4.151
8.0800,4.171
8.1200,4.106
8.1600,3.985
8.2000,3.987
8.2400,3.960
8.2800,3.993
8.3200,3.960
8.3600,3.948
8.4000,3.914
8.4400,3.852
8.4800,3.953
8.5200,3.904
8.5600,3.875
8.6000,3.922
8.6400,3.972
8.6800,3.882
8.7200,3.936
8.7600,3.790
8.8000,3.952
8.8400,3.840
8.8800,3.818
8.9200,3.879
8.9600,3.879
9.0000,3.861
9.0400,3.862
9.0800,3.809
9.1200,3.823
9.1600,3.845
9.2000,3.849
9.2400,3.864
9.2800,3.728
9.3200,3.932
9.3600,3.855
9.4000,3.884
9.4400,3.852
9.4800,3.795
9.5200,3.848
9.5600,3.872
9.6000,3.769
9.6400,3.756
9.6800,3.701
9.7200,3.834
9.7600,3.703
9.8000,3.774
9.8400,3.711
9.8800,3.634
9.9200,3.690
9.9600,3.829
10.0000,3.664
10.0400,3.657
10.0800,3.796
10.1200,3.687
10.1600,3.682
10.2000,3.569
10.2400,3.730
10.2800,3.741
10.3200,3.682
10.3600,3.689
10.4000,3.728
10.4400,3.651
10.4800,3.783
10.5200,3.684
10.5600,3.854
10.6000,3.694
10.6400,3.728
10.6800,3.652
10.7200,3.709
10.7600,3.741
10.8000,3.679
10.8400,3.660
10.8800,3.695
10.9200,3.639
10.9600,3.613
11.0000,3.831
11.0400,3.556
11.0800,3.575
11.1200,3.558
11.1600,3.696
11.2000,3.602
11.2400,3.646
11.2800,3.598
11.3200,3.566
11.3600,3.566
11.4000,3.561
11.4400,3.553
11.4800,3.543
11.5200,3.527
11.5600,3.657
11.6000,3.567
11.6400,3.504
11.6800,3.513
11.7200,3.631
11.7600,3.518
11.8000,3.522
11.8400,3.554
11.8800,3.507
11.9200,3.534
11.9600,3.533
12.0000,3.459
12.0400,3.540
12.0800,3.492
12.1200,3.531
12.1600,3.459
12.2000,3.440
12.2400,3.359
12.2800,3.479
12.3200,3.515
12.3600,3.409
12.4000,3.377
12.4400,3.485
12.4800,3.398
12.5200,3.388
12.5600,3.407
12.6000,3.446
12.6400,3.476
12.6800,3.413
12.7200,3.409
12.7600,3.425
12.8000,3.305
12.8400,3.484
12.8800,3.457
12.9200,3.387
12.9600,3.357
13.0000,3.433
13.0400,3.472
13.0800,3.354
13.1200,3.371
13.1600,3.482
13.2000,3.451
13.2400,3.412
13.2800,3.404
13.3200,3.245
13.3600,3.414
13.4000,3.349
13.4400,3.438
13.4800,3.340
13.5200,3.489
13.5600,3.384
13.6000,3.474
13.6400,3.369
13.6800,3.331
13.7200,3.370
13.7600,3.378
13.8000,3.421
13.8400,3.307
13.8800,3.362
13.9200,3.293
13.9600,3.206
14.0000,3.269
14.0400,3.316
14.0800,3.291
14.1200,3.290
14.1600,3.281
14.2000,3.322
14.2400,3.323
14.2800,3.338
14.3200,3.301
14.3600,3.269
14.4000,3.287
14.4400,3.336
14.4800,3.294
14.5200,3.219
14.5600,3.239
14.6000,3.198
14.6400,3.305
14.6800,3.313
14.7200,3.287
14.7600,3.192
14.8000,3.267
14.8400,3.207
14.8800,3.321
14.9200,3.302
14.9600,3.153
15.0000,3.244
15.0400,3.299
15.0800,3.187
15.1200,3.138
15.1600,3.193
15.2000,3.219
15.2400,3.233
15.2800,3.242
15.3200,3.150
15.3600,3.221
15.4000,3.195
15.4400,3.261
15.4800,3.167
15.5200,3.124
15.5600,3.079
15.6000,3.199
15.6400,3.174
15.6800,3.130
15.7200,3.070
15.7600,3.102
15.8000,3.155
15.8400,3.101
15.8800,3.123
15.9200,3.163
15.9600,3.201
16.0000,3.219
16.0400,3.170
16.0800,3.060
16.1200,3.201
16.1600,3.199
16.2000,3.166
16.2400,3.204
16.2800,3.181
16.3200,3.185
16.3600,3.125
16.4000,3.224
16.4400,3.057
16.4800,2.925
16.5200,3.161
16.5600,3.034
16.6000,3.056
16.6400,3.136
16.6800,3.076
16.7200,3.122
16.7600,3.024
16.8000,3.073
16.8400,3.097
16.8800,3.070
16.9200,3.033
16.9600,2.994
17.0000,3.059
17.0400,3.009
17.0800,3.021
17.1200,3.023
17.1600,3.129
17.2000,3.084
17.2400,3.031
17.2800,3.022
17.3200,3.006
17.3600,3.008
17.4000,2.953
17.4400,2.911
17.4800,2.946
17.5200,2.943
17.5600,3.005
17.6000,3.062
17.6400,3.038
17.6800,2.957
17.7200,3.007
17.7600,2.995
17.8000,2.875
17.8400,2.965
17.8800,3.002
17.9200,3.022
17.9600,2.955
18.0000,2.932
18.0400,3.026
18.0800,2.986
18.1200,3.002
18.1600,3.146
18.2000,3.055
18.2400,3.024
18.2800,3.071
18.3200,2.975
18.3600,2.970
18.4000,2.939
18.4400,2.871
18.4800,2.856
18.5200,2.877
18.5600,2.863
18.6000,2.835
18.6400,2.865
18.6800,2.950
18.7200,2.969
18.7600,2.993
18.8000,2.953
18.8400,2.857
18.8800,2.796
18.9200,2.839
18.9600,2.807
19.0000,2.815
19.0400,2.886
19.0800,2.855
19.1200,2.869
19.1600,2.875
19.2000,2.773
19.2400,2.769
19.2800,2.798
19.3200,2.828
19.3600,2.854
19.4000,2.760
19.4400,2.748
19.4800,2.857
19.5200,2.758
19.5600,2.756
19.6000,2.783
19.6400,2.745
19.6800,2.733
19.7200,2.759
19.7600,2.777
19.8000,2.733
19.8400,2.761
19.8800,2.769
19.9200,2.761
19.9600,2.807
20.0000,2.742
20.0400,2.708
20.0800,2.784
20.1200,2.766
20.1600,2.673
20.2000,2.742
20.2400,2.725
20.2800,2.668
20.3200,2.728
20.3600,2.726
20.4000,2.689
20.4400,2.802
20.4800,2.664
20.5200,2.687
20.5600,2.718
20.6000,2.616
20.6400,2.677
20.6800,2.656
20.7200,2.739
20.7600,2.706
20.8000,2.721
20.8400,2.630
20.8800,2.525
20.9200,2.664
20.9600,2.661
21.0000,2.639
21.0400,2.634
21.0800,2.561
21.1200,2.629
21.1600,2.644
21.2000,2.519
21.2400,2.726
21.2800,2.624
21.3200,2.574
21.3600,2.691
21.4000,2.578
21.4400,2.546
21.4800,2.521
21.5200,2.647
21.5600,2.624
21.6000,2.600
21.6400,2.614
21.6800,2.618
21.7200,2.626
21.7600,2.626
21.8000,2.624
21.8400,2.576
21.8800,2.640
21.9200,2.604
21.9600,2.647
22.0000,2.550
22.0400,2.452
22.0800,2.549
22.1200,2.550
22.1600,2.562
22.2000,2.562
22.2400,2.414
22.2800,2.634
22.3200,2.551
22.3600,2.583
22.4000,2.515
22.4400,2.530
22.4800,2.539
22.5200,2.526
22.5600,2.582
22.6000,2.539
22.6400,2.528
22.6800,2.565
22.7200,2.409
22.7600,2.483
22.8000,2.471
22.8400,2.464
22.8800,2.494
22.9200,2.458
22.9600,2.457
23.0000,2.464
23.0400,2.414
23.0800,2.526
23.1200,2.461
23.1600,2.454
23.2000,2.493
23.2400,2.465
23.2800,2.450
23.3200,2.432
23.3600,2.451
23.4000,2.425
23.4400,2.437
23.4800,2.404
23.5200,2.422
23.5600,2.418
23.6000,2.414
23.6400,2.464
23.6800,2.533
23.7200,2.317
23.7600,2.446
23.8000,2.474
23.8400,2.434
23.8800,2.477
23.9200,2.464
23.9600,2.490
24.0000,2.329
24.0400,2.367
24.0800,2.386
24.1200,2.403
24.1600,2.369
24.2000,2.355
24.2400,2.348
24.2800,2.347
24.3200,2.357
24.3600,2.325
24.4000,2.353
24.4400,2.382
24.4800,2.386
24.5200,2.333
24.5600,2.286
24.6000,2.345
24.6400,2.360
24.6800,2.246
24.7200,2.325
24.7600,2.288
24.8000,2.343
24.8400,2.332
24.8800,2.330
24.9200,2.374
24.9600,2.335
25.0000,2.358
25.0400,2.322
25.0800,2.236
25.1200,2.341
25.1600,2.362
25.2000,2.191
25.2400,2.267
25.2800,2.243
25.3200,2.246
25.3600,2.289
25.4000,2.333
25.4400,2.346
25.4800,2.273
25.5200,2.227
25.5600,2.257
25.6000,2.294
25.6400,2.258
25.6800,2.328
25.7200,2.335
25.7600,2.230
25.8000,2.208
25.8400,2.242
25.8800,2.260
25.9200,2.245
25.9600,2.197
26.0000,2.217
26.0400,2.176
26.0800,2.283
26.1200,2.316
26.1600,2.218
26.2000,2.280
26.2400,2.270
26.2800,2.169
26.3200,2.148
26.3600,2.293
26.4000,2.196
26.4400,2.252
26.4800,2.263
26.5200,2.261
26.5600,2.249
26.6000,2.316
26.6400,2.140
26.6800,2.212
26.7200,2.281
26.7600,2.261
26.8000,2.202
26.8400,2.157
26.8800,2.183
26.9200,2.193
26.9600,2.225
27.0000,2.176
27.0400,2.201
27.0800,2.174
27.1200,2.124
27.1600,2.146
27.2000,2.135
27.2400,2.121
27.2800,2.113
27.3200,2.151
27.3600,2.075
27.4000,2.170
27.4400,2.174
27.4800,2.117
27.5200,2.186
27.5600,2.124
27.6000,2.202
27.6400,2.134
27.6800,2.136
27.7200,2.114
27.7600,2.114
27.8000,2.236
27.8400,2.050
27.8800,2.114
27.9200,2.104
27.9600,2.085
28.0000,2.115
28.0400,2.183
28.0800,2.061
28.1200,2.098
28.1600,2.058
28.2000,2.138
28.2400,1.996
28.2800,2.155
28.3200,2.077
28.3600,2.069
28.4000,2.106
28.4400,2.109
28.4800,2.064
28.5200,2.057
28.5600,2.019
28.6000,2.046
28.6400,2.089
28.6800,2.077
28.7200,1.944
28.7600,2.128
28.8000,1.970
28.8400,2.057
28.8800,2.157
28.9200,2.129
28.9600,2.078
29.0000,2.183
29.0400,2.035
29.0800,2.119
29.1200,2.057
29.1600,2.046
29.2000,2.136
29.2400,2.065
29.2800,2.132
29.3200,2.085
29.3600,2.122
29.4000,2.203
29.4400,2.277
29.4800,2.347
29.5200,2.378
29.5600,2.498
29.6000,2.720
29.6400,2.918
29.6800,3.332
29.7200,3.551
29.7600,3.724
29.8000,3.839
29.8400,3.726
29.8800,3.371
29.9200,3.158
29.9600,2.761
30.0000,2.639
30.0400,2.557
30.0800,2.415
30.1200,2.379
30.1600,2.350
30.2000,2.283
30.2400,2.343
30.2800,2.347
30.3200,2.407
30.3600,2.533
30.4000,2.737
30.4400,2.910
30.4800,3.217
30.5200,3.717
30.5600,4.788
30.6000,5.572
30.6400,5.014
30.6800,4.686
30.7200,3.767
30.7600,3.223
30.8000,2.939
30.8400,2.710
30.8800,2.527
30.9200,2.386
30.9600,2.382
31.0000,2.360
31.0400,2.265
31.0800,2.261
31.1200,2.386
31.1600,2.258
31.2000,2.400
31.2400,2.332
31.2800,2.408
31.3200,2.431
31.3600,2.507
31.4000,2.613
31.4400,2.664
31.4800,2.802
31.5200,2.887
31.5600,3.207
31.6000,3.360
31.6400,3.630
31.6800,3.900
31.7200,4.028
31.7600,4.198
31.8000,4.511
31.8400,4.716
31.8800,5.075
31.9200,5.473
31.9600,6.156
32.0000,5.949
32.0400,5.558
32.0800,4.745
32.1200,3.990
32.1600,3.434
32.2000,3.226
32.2400,2.938
32.2800,2.703
32.3200,2.437
32.3600,2.362
32.4000,2.254
32.4400,2.273
32.4800,2.223
32.5200,2.188
32.5600,2.108
32.6000,2.104
32.6400,2.076
32.6800,2.065
32.7200,2.022
32.7600,2.072
32.8000,1.979
32.8400,1.963
32.8800,1.958
32.9200,1.963
32.9600,1.950
33.0000,2.014
33.0400,2.076
33.0800,2.007
33.1200,1.971
33.1600,2.075
33.2000,2.346
33.2400,2.478
33.2800,2.512
33.3200,2.465
33.3600,2.424
33.4000,2.199
33.4400,2.159
33.4800,2.010
33.5200,2.000
33.5600,1.885
33.6000,1.994
33.6400,1.980
33.6800,2.043
33.7200,2.031
33.7600,2.065
33.8000,2.063
33.8400,2.050
33.8800,2.218
33.9200,2.213
33.9600,2.274
34.0000,2.295
34.0400,2.280
34.0800,2.385
34.1200,2.427
34.1600,2.604
34.2000,2.724
34.2400,2.676
34.2800,2.783
34.3200,2.806
34.3600,2.661
34.4000,2.859
34.4400,2.785
34.4800,2.610
34.5200,2.614
34.5600,2.583
34.6000,2.602
34.6400,2.444
34.6800,2.329
34.7200,2.275
34.7600,2.252
34.8000,2.182
34.8400,2.092
34.8800,2.099
34.9200,2.061
34.9600,2.116
35.0000,2.044
35.0400,1.980
35.0800,1.915
35.1200,1.931
35.1600,1.879
35.2000,1.929
35.2400,1.998
35.2800,1.970
35.3200,1.992
35.3600,1.964
35.4000,2.008
35.4400,2.058
35.4800,2.060
35.5200,2.036
35.5600,2.187
35.6000,2.158
35.6400,2.154
35.6800,2.182
35.7200,2.236
35.7600,2.222
35.8000,2.445
35.8400,2.538
35.8800,2.757
35.9200,2.702
35.9600,2.990
36.0000,3.020
36.0400,3.184
36.0800,3.378
36.1200,3.499
36.1600,3.489
36.2000,3.678
36.2400,3.716
36.2800,3.682
36.3200,3.530
36.3600,3.428
36.4000,3.284
36.4400,3.141
36.4800,2.981
36.5200,2.968
36.5600,2.762
36.6000,2.586
36.6400,2.470
36.6800,2.286
36.7200,2.242
36.7600,2.222
36.8000,2.140
36.8400,2.124
36.8800,1.987
36.9200,1.967
36.9600,1.965
37.0000,1.908
37.0400,1.881
37.0800,1.809
37.1200,1.773
37.1600,1.693
37.2000,1.636
37.2400,1.555
37.2800,1.609
37.3200,1.628
37.3600,1.616
37.4000,1.510
37.4400,1.487
37.4800,1.482
37.5200,1.546
37.5600,1.560
37.6000,1.453
37.6400,1.508
37.6800,1.481
37.7200,1.499
37.7600,1.441
37.8000,1.463
37.8400,1.497
37.8800,1.459
37.9200,1.454
37.9600,1.378
38.0000,1.397
38.0400,1.420
38.0800,1.423
38.1200,1.375
38.1600,1.367
38.2000,1.409
38.2400,1.372
38.2800,1.359
38.3200,1.400
38.3600,1.377
38.4000,1.368
38.4400,1.402
38.4800,1.445
38.5200,1.370
38.5600,1.404
38.6000,1.357
38.6400,1.380
38.6800,1.311
38.7200,1.319
38.7600,1.271
38.8000,1.324
38.8400,1.344
38.8800,1.316
38.9200,1.284
38.9600,1.338
39.0000,1.225
39.0400,1.352
39.0800,1.290
39.1200,1.290
39.1600,1.346
39.2000,1.342
39.2400,1.292
39.2800,1.309
39.3200,1.242
39.3600,1.332
39.4000,1.279
39.4400,1.269
39.4800,1.247
39.5200,1.306
39.5600,1.262
39.6000,1.258
39.6400,1.290
39.6800,1.254
39.7200,1.246
39.7600,1.296
39.8000,1.258
39.8400,1.287
39.8800,1.260
39.9200,1.247
39.9600,1.251
40.0000,1.221
40.0400,1.258
40.0800,1.257
40.1200,1.252
40.1600,1.191
40.2000,1.235
40.2400,1.204
40.2800,1.281
40.3200,1.205
40.3600,1.149
40.4000,1.181
40.4400,1.204
40.4800,1.156
40.5200,1.184
40.5600,1.239
40.6000,1.283
40.6400,1.208
40.6800,1.162
40.7200,1.170
40.7600,1.200
40.8000,1.150
40.8400,1.150
40.8800,1.231
40.9200,1.254
40.9600,1.217
41.0000,1.177
41.0400,1.191
41.0800,1.184
41.1200,1.184
41.1600,1.190
41.2000,1.200
41.2400,1.162
41.2800,1.177
41.3200,1.178
41.3600,1.166
41.4000,1.179
41.4400,1.169
41.4800,1.176
41.5200,1.157
41.5600,1.146
41.6000,1.110
41.6400,1.177
41.6800,1.088
41.7200,1.122
41.7600,1.180
41.8000,1.188
41.8400,1.187
41.8800,1.125
41.9200,1.177
41.9600,1.149
42.0000,1.168
42.0400,1.166
42.0800,1.170
42.1200,1.098
42.1600,1.128
42.2000,1.167
42.2400,1.138
42.2800,1.094
42.3200,1.105
42.3600,1.101
42.4000,1.080
42.4400,1.114
42.4800,1.143
42.5200,1.130
42.5600,1.078
42.6000,1.166
42.6400,1.060
42.6800,1.128
42.7200,1.121
42.7600,1.143
42.8000,1.104
42.8400,1.119
42.8800,1.094
42.9200,1.112
42.9600,1.112
43.0000,1.085
43.0400,1.106
43.0800,1.122
43.1200,1.052
43.1600,1.055
43.2000,1.046
43.2400,1.086
43.2800,1.082
43.3200,1.111
43.3600,1.086
43.4000,1.091
43.4400,1.077
43.4800,1.078
43.5200,1.139
43.5600,1.121
43.6000,1.191
43.6400,1.188
43.6800,1.204
43.7200,1.347
43.7600,1.346
43.8000,1.576
43.8400,1.627
43.8800,1.727
43.9200,1.550
43.9600,1.497
44.0000,1.364
44.0400,1.252
44.0800,1.301
44.1200,1.209
44.1600,1.240
44.2000,1.142
44.2400,1.136
44.2800,1.134
44.3200,1.188
44.3600,1.120
44.4000,1.141
44.4400,1.187
44.4800,1.143
44.5200,1.099
44.5600,1.172
44.6000,1.270
44.6400,1.263
44.6800,1.366
44.7200,1.457
44.7600,1.650
44.8000,1.947
44.8400,2.398
44.8800,2.507
44.9200,2.186
44.9600,2.113
45.0000,1.953
45.0400,1.612
45.0800,1.415
45.1200,1.283
45.1600,1.259
45.2000,1.211
45.2400,1.126
45.2800,1.088
45.3200,1.096
45.3600,1.022
45.4000,1.044
45.4400,1.058
45.4800,1.029
45.5200,1.035
45.5600,1.075
45.6000,1.064
45.6400,1.030
45.6800,1.045
45.7200,1.004
45.7600,1.026
45.8000,0.980
45.8400,0.983
45.8800,1.004
45.9200,0.997
45.9600,0.986
46.0000,0.982
46.0400,1.050
46.0800,0.976
46.1200,1.001
46.1600,0.971
46.2000,1.041
46.2400,0.993
46.2800,0.979
46.3200,1.021
46.3600,1.015
46.4000,0.988
46.4400,1.021
46.4800,1.017
46.5200,1.018
46.5600,0.988
46.6000,1.025
46.6400,0.971
46.6800,1.018
46.7200,0.977
46.7600,1.004
46.8000,1.045
46.8400,1.026
46.8800,1.053
46.9200,1.022
46.9600,1.070
47.0000,1.083
47.0400,1.032
47.0800,1.078
47.1200,1.074
47.1600,1.021
47.2000,1.070
47.2400,1.076
47.2800,1.081
47.3200,1.182
47.3600,1.173
47.4000,1.173
47.4400,1.074
47.4800,1.129
47.5200,1.109
47.5600,1.123
47.6000,1.114
47.6400,1.135
47.6800,1.172
47.7200,1.135
47.7600,1.175
47.8000,1.204
47.8400,1.172
47.8800,1.162
47.9200,1.078
47.9600,1.123
48.0000,1.093
48.0400,1.072
48.0800,1.068
48.1200,1.032
48.1600,1.050
48.2000,1.047
48.2400,1.029
48.2800,0.936
48.3200,0.979
48.3600,0.972
48.4000,0.999
48.4400,0.960
48.4800,0.955
48.5200,0.912
48.5600,0.969
48.6000,0.972
48.6400,0.860
48.6800,0.890
48.7200,0.891
48.7600,0.841
48.8000,0.849
48.8400,0.937
48.8800,0.901
48.9200,0.865
48.9600,0.871
49.0000,0.864
49.0400,0.879
49.0800,0.869
49.1200,0.901
49.1600,0.904
49.2000,0.876
49.2400,0.854
49.2800,0.898
49.3200,0.870
49.3600,0.899
49.4000,0.860
49.4400,0.869
49.4800,0.857
49.5200,0.913
49.5600,0.870
49.6000,0.879
49.6400,0.835
49.6800,0.812
49.7200,0.828
49.7600,0.834
49.8000,0.832
49.8400,0.904
49.8800,0.867
49.9200,0.835
49.9600,0.854
50.0000,0.825
50.0400,0.832
50.0800,0.854
50.1200,0.881
50.1600,0.823
50.2000,0.837
50.2400,0.874
50.2800,0.926
50.3200,0.941
50.3600,1.017
50.4000,0.985
50.4400,0.998
50.4800,1.028
50.5200,1.066
50.5600,1.090
50.6000,1.076
50.6400,1.071
50.6800,1.009
50.7200,1.016
50.7600,0.988
50.8000,0.902
50.8400,0.941
50.8800,0.916
50.9200,0.867
50.9600,0.849
51.0000,0.804
51.0400,0.832
51.0800,0.833
51.1200,0.788
51.1600,0.785
51.2000,0.808
51.2400,0.798
51.2800,0.821
51.3200,0.783
51.3600,0.769
51.4000,0.808
51.4400,0.784
51.4800,0.763
51.5200,0.819
51.5600,0.818
51.6000,0.826
51.6400,0.814
51.6800,0.742
51.7200,0.760
51.7600,0.784
51.8000,0.755
51.8400,0.780
51.8800,0.759
51.9200,0.832
51.9600,0.777
52.0000,0.765
52.0400,0.727
52.0800,0.753
52.1200,0.755
52.1600,0.756
52.2000,0.789
52.2400,0.781
52.2800,0.738
52.3200,0.752
52.3600,0.740
52.4000,0.768
52.4400,0.755
52.4800,0.739
52.5200,0.793
52.5600,0.782
52.6000,0.789
52.6400,0.798
52.6800,0.746
52.7200,0.753
52.7600,0.756
52.8000,0.755
52.8400,0.740
52.8800,0.727
52.9200,0.732
52.9600,0.733
53.0000,0.792
53.0400,0.736
53.0800,0.745
53.1200,0.747
53.1600,0.731
53.2000,0.721
53.2400,0.748
53.2800,0.738
53.3200,0.741
53.3600,0.730
53.4000,0.775
53.4400,0.761
53.4800,0.728
53.5200,0.759
53.5600,0.717
53.6000,0.712
53.6400,0.727
53.6800,0.680
53.7200,0.722
53.7600,0.699
53.8000,0.710
53.8400,0.779
53.8800,0.735
53.9200,0.690
53.9600,0.719
54.0000,0.739
54.0400,0.726
54.0800,0.718
54.1200,0.749
54.1600,0.730
54.2000,0.757
54.2400,0.716
54.2800,0.709
54.3200,0.738
54.3600,0.735
54.4000,0.730
54.4400,0.719
54.4800,0.689
54.5200,0.706
54.5600,0.742
54.6000,0.724
54.6400,0.700
54.6800,0.743
54.7200,0.750
54.7600,0.757
54.8000,0.722
54.8400,0.723
54.8800,0.691
54.9200,0.709
54.9600,0.722
55.0000,0.758
55.0400,0.742
55.0800,0.787
55.1200,0.808
55.1600,0.807
55.2000,0.853
55.2400,0.848
55.2800,0.944
55.3200,0.905
55.3600,0.901
55.4000,0.854
55.4400,0.892
55.4800,0.932
55.5200,0.828
55.5600,0.781
55.6000,0.802
55.6400,0.796
55.6800,0.763
55.7200,0.783
55.7600,0.776
55.8000,0.781
55.8400,0.801
55.8800,0.844
55.9200,0.812
55.9600,0.846
56.0000,0.897
56.0400,0.849
56.0800,0.864
56.1200,0.854
56.1600,0.865
56.2000,0.887
56.2400,0.950
56.2800,0.954
56.3200,1.012
56.3600,1.034
56.4000,1.063
56.4400,1.145
56.4800,1.149
56.5200,1.139
56.5600,1.144
56.6000,1.260
56.6400,1.241
56.6800,1.271
56.7200,1.217
56.7600,1.179
56.8000,1.177
56.8400,1.114
56.8800,1.084
56.9200,1.057
56.9600,0.982
57.0000,0.978
57.0400,0.953
57.0800,0.905
57.1200,0.938
57.1600,0.924
57.2000,0.956
57.2400,0.950
57.2800,1.008
57.3200,0.965
57.3600,1.022
57.4000,0.926
57.4400,0.922
57.4800,0.935
57.5200,0.888
57.5600,0.939
57.6000,0.866
57.6400,0.838
57.6800,0.777
57.7200,0.809
57.7600,0.748
57.8000,0.711
57.8400,0.640
57.8800,0.691
57.9200,0.729
57.9600,0.682
58.0000,0.713
58.0400,0.669
58.0800,0.674
58.1200,0.669
58.1600,0.703
58.2000,0.623
58.2400,0.707
58.2800,0.658
58.3200,0.672
58.3600,0.669
58.4000,0.686
58.4400,0.662
58.4800,0.638
58.5200,0.594
58.5600,0.632
58.6000,0.684
58.6400,0.645
58.6800,0.647
58.7200,0.636
58.7600,0.686
58.8000,0.629
58.8400,0.638
58.8800,0.637
58.9200,0.636
58.9600,0.604
59.0000,0.618
59.0400,0.679
59.0800,0.655
59.1200,0.651
59.1600,0.647
59.2000,0.700
59.2400,0.623
59.2800,0.660
59.3200,0.611
59.3600,0.621
59.4000,0.670
59.4400,0.654
59.4800,0.652
59.5200,0.586
59.5600,0.620
59.6000,0.615
59.6400,0.624
59.6800,0.649
59.7200,0.641
59.7600,0.617
59.8000,0.620
59.8400,0.609
59.8800,0.612
59.9200,0.627
59.9600,0.633
60.0000,0.622
60.0400,0.593
60.0800,0.587
60.1200,0.620
60.1600,0.636
60.2000,0.602
60.2400,0.585
60.2800,0.581
60.3200,0.616
60.3600,0.628
60.4000,0.620
60.4400,0.627
60.4800,0.604
60.5200,0.639
60.5600,0.647
60.6000,0.593
60.6400,0.639
60.6800,0.646
60.7200,0.618
60.7600,0.657
60.8000,0.625
60.8400,0.613
60.8800,0.602
60.9200,0.653
60.9600,0.607
61.0000,0.621
61.0400,0.646
61.0800,0.608
61.1200,0.660
61.1600,0.629
61.2000,0.636
61.2400,0.596
61.2800,0.581
61.3200,0.615
61.3600,0.634
61.4000,0.633
61.4400,0.665
61.4800,0.636
61.5200,0.674
61.5600,0.665
61.6000,0.743
61.6400,0.797
61.6800,0.810
61.7200,0.736
61.7600,0.718
61.8000,0.720
61.8400,0.741
61.8800,0.712
61.9200,0.792
61.9600,0.730
62.0000,0.769
62.0400,0.785
62.0800,0.763
62.1200,0.809
62.1600,0.805
62.2000,0.785
62.2400,0.849
62.2800,0.862
62.3200,0.890
62.3600,0.905
62.4000,0.934
62.4400,0.977
62.4800,1.017
62.5200,1.056
62.5600,1.008
62.6000,1.030
62.6400,1.006
62.6800,0.955
62.7200,0.919
62.7600,0.903
62.8000,0.859
62.8400,0.870
62.8800,0.797
62.9200,0.903
62.9600,0.890
63.0000,0.868
63.0400,0.805
63.0800,0.761
63.1200,0.817
63.1600,0.843
63.2000,0.756
63.2400,0.749
63.2800,0.733
63.3200,0.736
63.3600,0.766
63.4000,0.740
63.4400,0.691
63.4800,0.708
63.5200,0.745
63.5600,0.748
63.6000,0.733
63.6400,0.737
63.6800,0.728
63.7200,0.750
63.7600,0.733
63.8000,0.719
63.8400,0.684
63.8800,0.687
63.9200,0.702
63.9600,0.722
64.0000,0.655
64.0400,0.687
64.0800,0.671
64.1200,0.679
64.1600,0.664
64.2000,0.676
64.2400,0.676
64.2800,0.692
64.3200,0.688
64.3600,0.669
64.4000,0.693
64.4400,0.675
64.4800,0.768
64.5200,0.771
64.5600,0.798
64.6000,0.780
64.6400,0.810
64.6800,0.758
64.7200,0.715
64.7600,0.701
64.8000,0.723
64.8400,0.700
64.8800,0.709
64.9200,0.663
64.9600,0.674
65.0000,0.692
65.0400,0.677
65.0800,0.691
65.1200,0.680
65.1600,0.634
65.2000,0.685
65.2400,0.656
65.2800,0.661
65.3200,0.663
65.3600,0.656
65.4000,0.666
65.4400,0.719
65.4800,0.713
65.5200,0.700
65.5600,0.744
65.6000,0.694
65.6400,0.729
65.6800,0.717
65.7200,0.754
65.7600,0.761
65.8000,0.734
65.8400,0.738
65.8800,0.765
65.9200,0.753
65.9600,0.693
66.0000,0.751
66.0400,0.795
66.0800,0.793
66.1200,0.835
66.1600,0.806
66.2000,0.836
66.2400,0.831
66.2800,0.798
66.3200,0.900
66.3600,0.854
66.4000,0.909
66.4400,0.895
66.4800,0.954
66.5200,0.910
66.5600,0.910
66.6000,0.915
66.6400,0.934
66.6800,0.961
66.7200,1.004
66.7600,0.947
66.8000,0.960
66.8400,1.039
66.8800,0.995
66.9200,1.026
66.9600,1.055
67.0000,1.092
67.0400,1.067
67.0800,1.107
67.1200,1.111
67.1600,1.187
67.2000,1.211
67.2400,1.214
67.2800,1.264
67.3200,1.204
67.3600,1.286
67.4000,1.282
67.4400,1.269
67.4800,1.392
67.5200,1.393
67.5600,1.485
67.6000,1.465
67.6400,1.518
67.6800,1.537
67.7200,1.637
67.7600,1.645
67.8000,1.726
67.8400,1.747
67.8800,1.772
67.9200,1.806
67.9600,1.963
68.0000,1.872
68.0400,1.979
68.0800,1.919
68.1200,1.988
68.1600,2.076
68.2000,2.014
68.2400,2.149
68.2800,2.217
68.3200,2.237
68.3600,2.251
68.4000,2.403
68.4400,2.500
68.4800,2.703
68.5200,2.655
68.5600,2.919
68.6000,3.095
68.6400,3.493
68.6800,4.154
68.7200,5.400
68.7600,6.682
68.8000,7.319
68.8400,7.243
68.8800,7.621
68.9200,9.243
68.9600,12.995
69.0000,22.629
69.0400,67.296
69.0800,320.948
69.1200,509.876
69.1600,255.859
69.2000,62.888
69.2400,57.806
69.2800,183.562
69.3200,258.320
69.3600,126.014
69.4000,31.244
69.4400,13.983
69.4800,9.390
69.5200,7.220
69.5600,5.963
69.6000,5.099
69.6400,4.536
69.6800,3.993
69.7200,3.734
69.7600,3.395
69.8000,3.137
69.8400,3.044
69.8800,2.817
69.9200,2.704
69.9600,2.678
70.0000,2.553
70.0400,2.364
70.0800,2.345
70.1200,2.187
70.1600,2.090
70.2000,2.109
70.2400,1.963
70.2800,1.863
70.3200,1.847
70.3600,1.833
70.4000,1.730
70.4400,1.656
70.4800,1.670
70.5200,1.577
70.5600,1.479
70.6000,1.483
70.6400,1.452
70.6800,1.339
70.7200,1.333
70.7600,1.322
70.8000,1.267
70.8400,1.254
70.8800,1.251
70.9200,1.267
70.9600,1.196
71.0000,1.097
71.0400,1.118
71.0800,1.079
71.1200,1.105
71.1600,1.049
71.2000,1.044
71.2400,0.955
71.2800,1.002
71.3200,0.928
71.3600,0.918
71.4000,0.877
71.4400,0.914
71.4800,0.871
71.5200,0.884
71.5600,0.870
71.6000,0.901
71.6400,0.840
71.6800,0.806
71.7200,0.804
71.7600,0.789
71.8000,0.795
71.8400,0.751
71.8800,0.757
71.9200,0.722
71.9600,0.744
72.0000,0.704
72.0400,0.720
72.0800,0.693
72.1200,0.732
72.1600,0.750
72.2000,0.747
72.2400,0.703
72.2800,0.710
72.3200,0.741
72.3600,0.698
72.4000,0.732
72.4400,0.683
72.4800,0.704
72.5200,0.670
72.5600,0.635
72.6000,0.625
72.6400,0.636
72.6800,0.636
72.7200,0.661
72.7600,0.615
72.8000,0.543
72.8400,0.568
72.8800,0.545
72.9200,0.600
72.9600,0.592
73.0000,0.635
73.0400,0.580
73.0800,0.608
73.1200,0.635
73.1600,0.595
73.2000,0.585
73.2400,0.582
73.2800,0.562
73.3200,0.562
73.3600,0.543
73.4000,0.524
73.4400,0.511
73.4800,0.478
73.5200,0.506
73.5600,0.495
73.6000,0.474
73.6400,0.434
73.6800,0.481
73.7200,0.448
73.7600,0.438
73.8000,0.444
73.8400,0.468
73.8800,0.471
73.9200,0.435
73.9600,0.408
74.0000,0.454
74.0400,0.425
74.0800,0.417
74.1200,0.459
74.1600,0.425
74.2000,0.442
74.2400,0.452
74.2800,0.433
74.3200,0.398
74.3600,0.434
74.4000,0.408
74.4400,0.429
74.4800,0.414
74.5200,0.436
74.5600,0.433
74.6000,0.420
74.6400,0.398
74.6800,0.404
74.7200,0.387
74.7600,0.396
74.8000,0.466
74.8400,0.425
74.8800,0.443
74.9200,0.405
74.9600,0.423
75.0000,0.395
75.0400,0.410
75.0800,0.395
75.1200,0.398
75.1600,0.382
75.2000,0.369
75.2400,0.373
75.2800,0.372
75.3200,0.372
75.3600,0.384
75.4000,0.368
75.4400,0.398
75.4800,0.391
75.5200,0.390
75.5600,0.382
75.6000,0.388
75.6400,0.354
75.6800,0.350
75.7200,0.387
75.7600,0.354
75.8000,0.348
75.8400,0.416
75.8800,0.353
75.9200,0.358
75.9600,0.386
76.0000,0.333
76.0400,0.341
76.0800,0.378
76.1200,0.357
76.1600,0.335
76.2000,0.335
76.2400,0.365
76.2800,0.351
76.3200,0.363
76.3600,0.338
76.4000,0.342
76.4400,0.378
76.4800,0.381
76.5200,0.355
76.5600,0.349
76.6000,0.347
76.6400,0.373
76.6800,0.355
76.7200,0.364
76.7600,0.364
76.8000,0.348
76.8400,0.333
76.8800,0.366
76.9200,0.362
76.9600,0.349
77.0000,0.378
77.0400,0.383
77.0800,0.348
77.1200,0.333
77.1600,0.343
77.2000,0.359
77.2400,0.372
77.2800,0.382
77.3200,0.352
77.3600,0.392
77.4000,0.364
77.4400,0.360
77.4800,0.356
77.5200,0.347
77.5600,0.373
77.6000,0.365
77.6400,0.366
77.6800,0.338
77.7200,0.345
77.7600,0.339
77.8000,0.344
77.8400,0.339
77.8800,0.362
77.9200,0.365
77.9600,0.378
78.0000,0.335
78.0400,0.333
78.0800,0.336
78.1200,0.310
78.1600,0.334
78.2000,0.356
78.2400,0.348
78.2800,0.338
78.3200,0.352
78.3600,0.344
78.4000,0.348
78.4400,0.333
78.4800,0.309
78.5200,0.330
78.5600,0.317
78.6000,0.320
78.6400,0.317
78.6800,0.330
78.7200,0.342
78.7600,0.330
78.8000,0.326
78.8400,0.340
78.8800,0.318
78.9200,0.324
78.9600,0.330
79.0000,0.334
79.0400,0.343
79.0800,0.358
79.1200,0.346
79.1600,0.354
79.2000,0.318
79.2400,0.328
79.2800,0.351
79.3200,0.388
79.3600,0.388
79.4000,0.419
79.4400,0.461
79.4800,0.484
79.5200,0.410
79.5600,0.378
79.6000,0.436
79.6400,0.394
79.6800,0.406
79.7200,0.427
79.7600,0.384
79.8000,0.377
79.8400,0.357
79.8800,0.330
79.9200,0.340
79.9600,0.328
80.0000,0.305
