theta,intensity
5.0000,5.644
5.0400,5.537
5.0800,5.453
5.1200,5.346
5.1600,5.206
5.2000,5.298
5.2400,5.199
5.2800,5.109
5.3200,5.057
5.3600,5.047
5.4000,5.018
5.4400,4.951
5.4800,4.890
5.5200,4.745
5.5600,4.747
5.6000,4.769
5.6400,4.694
5.6800,4.673
5.7200,4.576
5.7600,4.425
5.8000,4.547
5.8400,4.550
5.8800,4.429
5.9200,4.319
5.9600,4.319
6.0000,4.416
6.0400,4.414
6.0800,4.380
6.1200,4.140
6.1600,4.340
6.2000,4.296
6.2400,4.182
6.2800,4.254
6.3200,4.124
6.3600,4.119
6.4000,4.104
6.4400,4.227
6.4800,4.181
6.5200,4.059
6.5600,4.079
6.6000,4.130
6.6400,4.069
6.6800,4.061
6.7200,4.039
6.7600,4.117
6.8000,4.049
6.8400,4.165
6.8800,4.031
6.9200,3.933
6.9600,3.983
7.0000,4.046
7.0400,4.167
7.0800,3.934
7.1200,4.040
7.1600,4.025
7.2000,3.983
7.2400,3.953
7.2800,3.920
7.3200,3.937
7.3600,4.058
7.4000,4.028
7.4400,4.003
7.4800,3.988
7.5200,3.977
7.5600,3.994
7.6000,3.996
7.6400,3.850
7.6800,3.992
7.7200,3.774
7.7600,3.959
7.8000,3.839
7.8400,3.810
7.8800,4.012
7.9200,4.004
7.9600,3.939
8.0000,3.949
8.0400,3.995
8.0800,3.968
8.1200,3.770
8.1600,3.721
8.2000,3.861
8.2400,3.956
8.2800,3.872
8.3200,3.809
8.3600,3.802
8.4000,3.877
8.4400,3.855
8.4800,3.895
8.5200,3.926
8.5600,3.829
8.6000,3.862
8.6400,3.894
8.6800,3.854
8.7200,3.861
8.7600,3.862
8.8000,3.762
8.8400,3.893
8.8800,3.732
8.9200,3.799
8.9600,3.765
9.0000,3.952
9.0400,3.840
9.0800,3.785
9.1200,3.774
9.1600,3.791
9.2000,3.812
9.2400,3.744
9.2800,3.727
9.3200,3.815
9.3600,3.775
9.4000,3.784
9.4400,3.669
9.4800,3.756
9.5200,3.727
9.5600,3.723
9.6000,3.766
9.6400,3.718
9.6800,3.738
9.7200,3.789
9.7600,3.737
9.8000,3.753
9.8400,3.725
9.8800,3.672
9.9200,3.706
9.9600,3.639
10.0000,3.652
10.0400,3.679
10.0800,3.662
10.1200,3.654
10.1600,3.670
10.2000,3.640
10.2400,3.642
10.2800,3.682
10.3200,3.642
10.3600,3.630
10.4000,3.673
10.4400,3.586
10.4800,3.677
10.5200,3.583
10.5600,3.657
10.6000,3.656
10.6400,3.683
10.6800,3.554
10.7200,3.616
10.7600,3.526
10.8000,3.554
10.8400,3.557
10.8800,3.552
10.9200,3.555
10.9600,3.648
11.0000,3.550
11.0400,3.484
11.0800,3.542
11.1200,3.618
11.1600,3.602
11.2000,3.587
11.2400,3.634
11.2800,3.574
11.3200,3.466
11.3600,3.493
11.4000,3.418
11.4400,3.424
11.4800,3.484
11.5200,3.590
11.5600,3.467
11.6000,3.486
11.6400,3.475
11.6800,3.378
11.7200,3.459
11.7600,3.492
11.8000,3.429
11.8400,3.425
11.8800,3.587
11.9200,3.417
11.9600,3.498
12.0000,3.409
12.0400,3.514
12.0800,3.506
12.1200,3.443
12.1600,3.455
12.2000,3.476
12.2400,3.455
12.2800,3.402
12.3200,3.422
12.3600,3.494
12.4000,3.392
12.4400,3.492
12.4800,3.438
12.5200,3.398
12.5600,3.522
12.6000,3.422
12.6400,3.377
12.6800,3.419
12.7200,3.378
12.7600,3.540
12.8000,3.293
12.8400,3.284
12.8800,3.343
12.9200,3.358
12.9600,3.370
13.0000,3.390
13.0400,3.385
13.0800,3.350
13.1200,3.349
13.1600,3.488
13.2000,3.323
13.2400,3.343
13.2800,3.380
13.3200,3.356
13.3600,3.346
13.4000,3.400
13.4400,3.353
13.4800,3.297
13.5200,3.299
13.5600,3.358
13.6000,3.313
13.6400,3.233
13.6800,3.327
13.7200,3.254
13.7600,3.335
13.8000,3.315
13.8400,3.300
13.8800,3.315
13.9200,3.209
13.9600,3.288
14.0000,3.233
14.0400,3.199
14.0800,3.310
14.1200,3.325
14.1600,3.251
14.2000,3.210
14.2400,3.194
14.2800,3.204
14.3200,3.207
14.3600,3.255
14.4000,3.241
14.4400,3.132
14.4800,3.210
14.5200,3.178
14.5600,3.288
14.6000,3.230
14.6400,3.201
14.6800,3.295
14.7200,3.282
14.7600,3.283
14.8000,3.091
14.8400,3.196
14.8800,3.232
14.9200,3.218
14.9600,3.258
15.0000,3.158
15.0400,3.029
15.0800,3.239
15.1200,3.152
15.1600,3.144
15.2000,3.206
15.2400,3.186
15.2800,3.248
15.3200,3.173
15.3600,3.112
15.4000,3.109
15.4400,3.190
15.4800,3.103
15.5200,3.176
15.5600,3.078
15.6000,3.068
15.6400,3.121
15.6800,3.202
15.7200,3.108
15.7600,3.096
15.8000,3.090
15.8400,3.172
15.8800,3.077
15.9200,3.072
15.9600,3.067
16.0000,3.074
16.0400,3.056
16.0800,3.143
16.1200,3.075
16.1600,3.027
16.2000,3.108
16.2400,3.100
16.2800,3.154
16.3200,3.047
16.3600,3.039
16.4000,3.064
16.4400,3.003
16.4800,3.010
16.5200,3.094
16.5600,3.029
16.6000,3.007
16.6400,2.970
16.6800,3.105
16.7200,2.932
16.7600,3.154
16.8000,3.042
16.8400,3.051
16.8800,2.961
16.9200,3.050
16.9600,3.069
17.0000,2.993
17.0400,2.952
17.0800,3.001
17.1200,2.916
17.1600,2.978
17.2000,3.058
17.2400,2.882
17.2800,3.004
17.3200,2.888
17.3600,2.978
17.4000,3.013
17.4400,3.089
17.4800,2.881
17.5200,2.950
17.5600,3.024
17.6000,2.826
17.6400,2.888
17.6800,3.006
17.7200,2.972
17.7600,2.949
17.8000,2.835
17.8400,2.867
17.8800,2.839
17.9200,2.976
17.9600,2.982
18.0000,2.887
18.0400,2.964
18.0800,2.956
18.1200,3.131
18.1600,3.139
18.2000,3.110
18.2400,2.998
18.2800,3.127
18.3200,3.030
18.3600,3.002
18.4000,3.001
18.4400,2.952
18.4800,2.872
18.5200,2.903
18.5600,2.870
18.6000,2.834
18.6400,2.842
18.6800,2.924
18.7200,2.880
18.7600,2.840
18.8000,2.919
18.8400,2.789
18.8800,2.698
18.9200,2.838
18.9600,2.791
19.0000,2.800
19.0400,2.885
19.0800,2.840
19.1200,2.799
19.1600,2.903
19.2000,2.773
19.2400,2.724
19.2800,2.761
19.3200,2.740
19.3600,2.736
19.4000,2.793
19.4400,2.838
19.4800,2.802
19.5200,2.763
19.5600,2.790
19.6000,2.721
19.6400,2.874
19.6800,2.757
19.7200,2.920
19.7600,2.684
19.8000,2.714
19.8400,2.707
19.8800,2.643
19.9200,2.621
19.9600,2.699
20.0000,2.702
20.0400,2.702
20.0800,2.672
20.1200,2.749
20.1600,2.680
20.2000,2.624
20.2400,2.700
20.2800,2.677
20.3200,2.628
20.3600,2.697
20.4000,2.690
20.4400,2.637
20.4800,2.715
20.5200,2.697
20.5600,2.647
20.6000,2.666
20.6400,2.691
20.6800,2.764
20.7200,2.657
20.7600,2.706
20.8000,2.581
20.8400,2.599
20.8800,2.587
20.9200,2.612
20.9600,2.612
21.0000,2.641
21.0400,2.615
21.0800,2.680
21.1200,2.744
21.1600,2.561
21.2000,2.677
21.2400,2.622
21.2800,2.661
21.3200,2.570
21.3600,2.621
21.4000,2.553
21.4400,2.579
21.4800,2.639
21.5200,2.554
21.5600,2.569
21.6000,2.625
21.6400,2.569
21.6800,2.546
21.7200,2.581
21.7600,2.562
21.8000,2.654
21.8400,2.554
21.8800,2.484
21.9200,2.571
21.9600,2.494
22.0000,2.622
22.0400,2.537
22.0800,2.514
22.1200,2.550
22.1600,2.469
22.2000,2.550
22.2400,2.585
22.2800,2.444
22.3200,2.454
22.3600,2.492
22.4000,2.514
22.4400,2.557
22.4800,2.548
22.5200,2.513
22.5600,2.470
22.6000,2.548
22.6400,2.465
22.6800,2.423
22.7200,2.445
22.7600,2.398
22.8000,2.509
22.8400,2.532
22.8800,2.453
22.9200,2.438
22.9600,2.467
23.0000,2.511
23.0400,2.399
23.0800,2.447
23.1200,2.458
23.1600,2.427
23.2000,2.422
23.2400,2.413
23.2800,2.465
23.3200,2.384
23.3600,2.398
23.4000,2.412
23.4400,2.340
23.4800,2.382
23.5200,2.318
23.5600,2.380
23.6000,2.313
23.6400,2.368
23.6800,2.478
23.7200,2.428
23.7600,2.403
23.8000,2.434
23.8400,2.403
23.8800,2.474
23.9200,2.312
23.9600,2.313
24.0000,2.402
24.0400,2.330
24.0800,2.401
24.1200,2.414
24.1600,2.384
24.2000,2.419
24.2400,2.350
24.2800,2.324
24.3200,2.315
24.3600,2.334
24.4000,2.320
24.4400,2.306
24.4800,2.373
24.5200,2.379
24.5600,2.345
24.6000,2.352
24.6400,2.332
24.6800,2.416
24.7200,2.413
24.7600,2.328
24.8000,2.314
24.8400,2.287
24.8800,2.259
24.9200,2.286
24.9600,2.285
25.0000,2.250
25.0400,2.221
25.0800,2.234
25.1200,2.255
25.1600,2.307
25.2000,2.212
25.2400,2.342
25.2800,2.350
25.3200,2.216
25.3600,2.275
25.4000,2.195
25.4400,2.202
25.4800,2.303
25.5200,2.274
25.5600,2.246
25.6000,2.278
25.6400,2.253
25.6800,2.281
25.7200,2.274
25.7600,2.200
25.8000,2.187
25.8400,2.167
25.8800,2.227
25.9200,2.189
25.9600,2.223
26.0000,2.195
26.0400,2.181
26.0800,2.188
26.1200,2.240
26.1600,2.217
26.2000,2.187
26.2400,2.198
26.2800,2.283
26.3200,2.173
26.3600,2.246
26.4000,2.200
26.4400,2.225
26.4800,2.201
26.5200,2.249
26.5600,2.144
26.6000,2.230
26.6400,2.194
26.6800,2.278
26.7200,2.237
26.7600,2.172
26.8000,2.195
26.8400,2.127
26.8800,2.248
26.9200,2.176
26.9600,2.121
27.0000,2.175
27.0400,2.203
27.0800,2.180
27.1200,2.099
27.1600,2.113
27.2000,2.136
27.2400,2.178
27.2800,2.029
27.3200,2.127
27.3600,2.167
27.4000,2.138
27.4400,2.124
27.4800,2.174
27.5200,2.126
27.5600,2.055
27.6000,2.151
27.6400,2.144
27.6800,2.063
27.7200,2.024
27.7600,2.088
27.8000,2.122
27.8400,2.110
27.8800,2.027
27.9200,2.135
27.9600,2.092
28.0000,2.113
28.0400,2.198
28.0800,2.082
28.1200,2.141
28.1600,2.101
28.2000,2.046
28.2400,2.041
28.2800,2.035
28.3200,2.013
28.3600,1.992
28.4000,2.116
28.4400,2.154
28.4800,2.026
28.5200,2.121
28.5600,2.096
28.6000,2.121
28.6400,2.049
28.6800,2.042
28.7200,1.980
28.7600,1.972
28.8000,2.040
28.8400,2.064
28.8800,2.083
28.9200,2.016
28.9600,2.012
29.0000,2.093
29.0400,2.025
29.0800,2.142
29.1200,2.109
29.1600,2.042
29.2000,2.123
29.2400,2.092
29.2800,2.103
29.3200,2.113
29.3600,2.110
29.4000,2.202
29.4400,2.229
29.4800,2.202
29.5200,2.283
29.5600,2.477
29.6000,2.660
29.6400,2.979
29.6800,3.392
29.7200,3.983
29.7600,4.302
29.8000,4.824
29.8400,5.174
29.8800,4.850
29.9200,4.294
29.9600,3.827
30.0000,3.306
30.0400,2.988
30.0800,2.748
30.1200,2.508
30.1600,2.537
30.2000,2.375
30.2400,2.387
30.2800,2.245
30.3200,2.377
30.3600,2.286
30.4000,2.430
30.4400,2.548
30.4800,2.628
30.5200,2.865
30.5600,3.241
30.6000,4.133
30.6400,5.955
30.6800,7.161
30.7200,5.498
30.7600,4.838
30.8000,3.372
30.8400,2.882
30.8800,2.610
30.9200,2.490
30.9600,2.441
31.0000,2.223
31.0400,2.216
31.0800,2.246
31.1200,2.223
31.1600,2.192
31.2000,2.209
31.2400,2.253
31.2800,2.331
31.3200,2.280
31.3600,2.309
31.4000,2.352
31.4400,2.412
31.4800,2.547
31.5200,2.714
31.5600,2.784
31.6000,3.060
31.6400,3.107
31.6800,3.310
31.7200,3.468
31.7600,3.761
31.8000,3.881
31.8400,4.095
31.8800,4.141
31.9200,4.412
31.9600,4.668
32.0000,5.235
32.0400,5.346
32.0800,4.911
32.1200,4.279
32.1600,3.637
32.2000,3.181
32.2400,2.896
32.2800,2.592
32.3200,2.515
32.3600,2.397
32.4000,2.352
32.4400,2.175
32.4800,2.152
32.5200,2.153
32.5600,2.058
32.6000,2.075
32.6400,2.060
32.6800,2.064
32.7200,2.099
32.7600,1.999
32.8000,1.914
32.8400,1.969
32.8800,1.948
32.9200,1.948
32.9600,1.956
33.0000,1.933
33.0400,1.870
33.0800,1.970
33.1200,2.060
33.1600,1.959
33.2000,2.147
33.2400,2.330
33.2800,2.745
33.3200,2.898
33.3600,2.803
33.4000,2.565
33.4400,2.397
33.4800,2.218
33.5200,2.021
33.5600,1.936
33.6000,1.948
33.6400,1.946
33.6800,1.883
33.7200,1.964
33.7600,1.980
33.8000,2.024
33.8400,2.007
33.8800,2.028
33.9200,2.000
33.9600,2.129
34.0000,2.117
34.0400,2.130
34.0800,2.223
34.1200,2.277
34.1600,2.284
34.2000,2.337
34.2400,2.536
34.2800,2.537
34.3200,2.654
34.3600,2.644
34.4000,2.734
34.4400,2.680
34.4800,2.589
34.5200,2.547
34.5600,2.516
34.6000,2.460
34.6400,2.416
34.6800,2.261
34.7200,2.192
34.7600,2.162
34.8000,2.074
34.8400,1.994
34.8800,1.964
34.9200,1.970
34.9600,2.021
35.0000,1.914
35.0400,1.980
35.0800,1.982
35.1200,1.847
35.1600,1.884
35.2000,1.847
35.2400,1.865
35.2800,1.801
35.3200,1.875
35.3600,1.896
35.4000,1.918
35.4400,1.989
35.4800,2.050
35.5200,1.968
35.5600,2.018
35.6000,2.027
35.6400,2.107
35.6800,2.075
35.7200,2.131
35.7600,2.209
35.8000,2.267
35.8400,2.268
35.8800,2.407
35.9200,2.435
35.9600,2.519
36.0000,2.732
36.0400,2.872
36.0800,3.029
36.1200,3.173
36.1600,3.210
36.2000,3.427
36.2400,3.476
36.2800,3.512
36.3200,3.400
36.3600,3.437
36.4000,3.288
36.4400,3.213
36.4800,3.019
36.5200,2.917
36.5600,2.664
36.6000,2.541
36.6400,2.533
36.6800,2.402
36.7200,2.301
36.7600,2.235
36.8000,2.162
36.8400,2.121
36.8800,2.037
36.9200,1.935
36.9600,1.981
37.0000,2.029
37.0400,1.920
37.0800,1.941
37.1200,1.869
37.1600,1.686
37.2000,1.698
37.2400,1.667
37.2800,1.547
37.3200,1.596
37.3600,1.597
37.4000,1.544
37.4400,1.514
37.4800,1.505
37.5200,1.519
37.5600,1.489
37.6000,1.520
37.6400,1.470
37.6800,1.433
37.7200,1.497
37.7600,1.513
37.8000,1.405
37.8400,1.386
37.8800,1.416
37.9200,1.404
37.9600,1.389
38.0000,1.396
38.0400,1.467
38.0800,1.318
38.1200,1.332
38.1600,1.374
38.2000,1.376
38.2400,1.376
38.2800,1.445
38.3200,1.453
38.3600,1.407
38.4000,1.329
38.4400,1.326
38.4800,1.291
38.5200,1.311
38.5600,1.311
38.6000,1.397
38.6400,1.365
38.6800,1.250
38.7200,1.337
38.7600,1.341
38.8000,1.286
38.8400,1.305
38.8800,1.349
38.9200,1.299
38.9600,1.332
39.0000,1.341
39.0400,1.313
39.0800,1.299
39.1200,1.369
39.1600,1.303
39.2000,1.283
39.2400,1.288
39.2800,1.288
39.3200,1.273
39.3600,1.249
39.4000,1.288
39.4400,1.294
39.4800,1.267
39.5200,1.313
39.5600,1.277
39.6000,1.283
39.6400,1.240
39.6800,1.179
39.7200,1.250
39.7600,1.216
39.8000,1.211
39.8400,1.238
39.8800,1.276
39.9200,1.253
39.9600,1.263
40.0000,1.210
40.0400,1.222
40.0800,1.222
40.1200,1.219
40.1600,1.269
40.2000,1.267
40.2400,1.215
40.2800,1.210
40.3200,1.175
40.3600,1.211
40.4000,1.209
40.4400,1.156
40.4800,1.214
40.5200,1.181
40.5600,1.162
40.6000,1.196
40.6400,1.151
40.6800,1.189
40.7200,1.195
40.7600,1.184
40.8000,1.247
40.8400,1.185
40.8800,1.127
40.9200,1.195
40.9600,1.186
41.0000,1.169
41.0400,1.195
41.0800,1.189
41.1200,1.126
41.1600,1.158
41.2000,1.222
41.2400,1.149
41.2800,1.103
41.3200,1.113
41.3600,1.156
41.4000,1.137
41.4400,1.140
41.4800,1.153
41.5200,1.146
41.5600,1.093
41.6000,1.172
41.6400,1.165
41.6800,1.146
41.7200,1.142
41.7600,1.152
41.8000,1.185
41.8400,1.122
41.8800,1.110
41.9200,1.138
41.9600,1.180
42.0000,1.041
42.0400,1.128
42.0800,1.114
42.1200,1.134
42.1600,1.113
42.2000,1.042
42.2400,1.098
42.2800,1.119
42.3200,1.090
42.3600,1.099
42.4000,1.123
42.4400,1.119
42.4800,1.044
42.5200,1.124
42.5600,1.124
42.6000,1.034
42.6400,1.098
42.6800,1.128
42.7200,1.097
42.7600,1.125
42.8000,1.119
42.8400,1.079
42.8800,1.085
42.9200,1.101
42.9600,1.089
43.0000,1.087
43.0400,1.052
43.0800,1.067
43.1200,1.120
43.1600,1.101
43.2000,1.097
43.2400,1.071
43.2800,1.143
43.3200,1.095
43.3600,1.058
43.4000,1.063
43.4400,1.077
43.4800,1.101
43.5200,1.091
43.5600,1.085
43.6000,1.083
43.6400,1.090
43.6800,1.132
43.7200,1.125
43.7600,1.182
43.8000,1.239
43.8400,1.436
43.8800,1.589
43.9200,1.528
43.9600,1.473
44.0000,1.470
44.0400,1.297
44.0800,1.271
44.1200,1.169
44.1600,1.222
44.2000,1.164
44.2400,1.093
44.2800,1.149
44.3200,1.162
44.3600,1.101
44.4000,1.078
44.4400,1.094
44.4800,1.052
44.5200,1.122
44.5600,1.085
44.6000,1.129
44.6400,1.173
44.6800,1.281
44.7200,1.170
44.7600,1.274
44.8000,1.460
44.8400,1.637
44.8800,1.798
44.9200,1.855
44.9600,1.805
45.0000,1.811
45.0400,1.726
45.0800,1.503
45.1200,1.360
45.1600,1.269
45.2000,1.202
45.2400,1.115
45.2800,1.080
45.3200,1.024
45.3600,1.051
45.4000,1.012
45.4400,1.073
45.4800,1.008
45.5200,1.030
45.5600,1.090
45.6000,1.038
45.6400,1.017
45.6800,0.985
45.7200,1.009
45.7600,1.007
45.8000,0.952
45.8400,0.976
45.8800,0.956
45.9200,0.947
45.9600,0.933
46.0000,0.960
46.0400,0.955
46.0800,0.953
46.1200,0.950
46.1600,1.008
46.2000,0.985
46.2400,0.964
46.2800,1.054
46.3200,1.004
46.3600,0.958
46.4000,0.931
46.4400,1.020
46.4800,0.927
46.5200,0.984
46.5600,1.005
46.6000,0.950
46.6400,1.008
46.6800,0.948
46.7200,0.964
46.7600,0.967
46.8000,0.966
46.8400,1.004
46.8800,0.933
46.9200,0.974
46.9600,1.048
47.0000,1.026
47.0400,1.020
47.0800,1.020
47.1200,1.016
47.1600,1.053
47.2000,1.085
47.2400,1.064
47.2800,0.982
47.3200,1.015
47.3600,1.037
47.4000,1.069
47.4400,1.136
47.4800,1.108
47.5200,1.127
47.5600,1.155
47.6000,1.180
47.6400,1.143
47.6800,1.186
47.7200,1.232
47.7600,1.188
47.8000,1.223
47.8400,1.203
47.8800,1.169
47.9200,1.134
47.9600,1.130
48.0000,1.090
48.0400,1.096
48.0800,1.067
48.1200,1.050
48.1600,1.009
48.2000,1.000
48.2400,0.976
48.2800,0.919
48.3200,0.976
48.3600,1.011
48.4000,0.967
48.4400,0.933
48.4800,0.932
48.5200,0.911
48.5600,0.912
48.6000,0.892
48.6400,0.933
48.6800,0.965
48.7200,0.907
48.7600,0.897
48.8000,0.940
48.8400,0.898
48.8800,0.880
48.9200,0.880
48.9600,0.858
49.0000,0.891
49.0400,0.887
49.0800,0.901
49.1200,0.876
49.1600,0.898
49.2000,0.877
49.2400,0.817
49.2800,0.846
49.3200,0.802
49.3600,0.866
49.4000,0.883
49.4400,0.822
49.4800,0.857
49.5200,0.847
49.5600,0.863
49.6000,0.839
49.6400,0.813
49.6800,0.874
49.7200,0.814
49.7600,0.796
49.8000,0.842
49.8400,0.870
49.8800,0.842
49.9200,0.839
49.9600,0.806
50.0000,0.811
50.0400,0.932
50.0800,0.855
50.1200,0.798
50.1600,0.866
50.2000,0.948
50.2400,0.844
50.2800,0.937
50.3200,0.943
50.3600,0.996
50.4000,1.022
50.4400,1.055
50.4800,1.131
50.5200,1.150
50.5600,1.268
50.6000,1.252
50.6400,1.215
50.6800,1.199
50.7200,1.241
50.7600,1.121
50.8000,1.088
50.8400,0.988
50.8800,0.956
50.9200,0.901
50.9600,0.874
51.0000,0.872
51.0400,0.757
51.0800,0.834
51.1200,0.799
51.1600,0.811
51.2000,0.831
51.2400,0.781
51.2800,0.766
51.3200,0.812
51.3600,0.853
51.4000,0.810
51.4400,0.809
51.4800,0.764
51.5200,0.807
51.5600,0.775
51.6000,0.806
51.6400,0.799
51.6800,0.787
51.7200,0.797
51.7600,0.771
51.8000,0.799
51.8400,0.737
51.8800,0.792
51.9200,0.753
51.9600,0.776
52.0000,0.776
52.0400,0.779
52.0800,0.779
52.1200,0.782
52.1600,0.768
52.2000,0.773
52.2400,0.762
52.2800,0.736
52.3200,0.773
52.3600,0.762
52.4000,0.775
52.4400,0.758
52.4800,0.766
52.5200,0.735
52.5600,0.697
52.6000,0.717
52.6400,0.752
52.6800,0.729
52.7200,0.721
52.7600,0.783
52.8000,0.742
52.8400,0.746
52.8800,0.768
52.9200,0.753
52.9600,0.713
53.0000,0.692
53.0400,0.728
53.0800,0.740
53.1200,0.700
53.1600,0.724
53.2000,0.766
53.2400,0.702
53.2800,0.698
53.3200,0.729
53.3600,0.729
53.4000,0.751
53.4400,0.730
53.4800,0.731
53.5200,0.758
53.5600,0.715
53.6000,0.751
53.6400,0.707
53.6800,0.719
53.7200,0.714
53.7600,0.755
53.8000,0.695
53.8400,0.728
53.8800,0.661
53.9200,0.695
53.9600,0.717
54.0000,0.694
54.0400,0.689
54.0800,0.743
54.1200,0.748
54.1600,0.738
54.2000,0.752
54.2400,0.680
54.2800,0.676
54.3200,0.706
54.3600,0.710
54.4000,0.764
54.4400,0.702
54.4800,0.693
54.5200,0.755
54.5600,0.759
54.6000,0.745
54.6400,0.721
54.6800,0.705
54.7200,0.731
54.7600,0.748
54.8000,0.695
54.8400,0.708
54.8800,0.702
54.9200,0.742
54.9600,0.677
55.0000,0.725
55.0400,0.762
55.0800,0.756
55.1200,0.757
55.1600,0.713
55.2000,0.759
55.2400,0.770
55.2800,0.801
55.3200,0.851
55.3600,0.917
55.4000,0.842
55.4400,0.802
55.4800,0.809
55.5200,0.813
55.5600,0.763
55.6000,0.794
55.6400,0.774
55.6800,0.742
55.7200,0.831
55.7600,0.736
55.8000,0.767
55.8400,0.762
55.8800,0.769
55.9200,0.749
55.9600,0.805
56.0000,0.759
56.0400,0.813
56.0800,0.818
56.1200,0.775
56.1600,0.785
56.2000,0.882
56.2400,0.873
56.2800,0.903
56.3200,0.950
56.3600,0.937
56.4000,0.976
56.4400,0.948
56.4800,1.060
56.5200,1.127
56.5600,1.151
56.6000,1.141
56.6400,1.167
56.6800,1.192
56.7200,1.186
56.7600,1.170
56.8000,1.155
56.8400,1.155
56.8800,1.081
56.9200,1.024
56.9600,1.070
57.0000,1.006
57.0400,1.002
57.0800,0.947
57.1200,0.963
57.1600,0.964
57.2000,0.969
57.2400,1.002
57.2800,1.100
57.3200,1.053
57.3600,1.057
57.4000,1.083
57.4400,1.051
57.4800,1.073
57.5200,0.992
57.5600,0.962
57.6000,0.891
57.6400,0.856
57.6800,0.865
57.7200,0.796
57.7600,0.770
57.8000,0.803
57.8400,0.764
57.8800,0.750
57.9200,0.692
57.9600,0.697
58.0000,0.691
58.0400,0.691
58.0800,0.706
58.1200,0.715
58.1600,0.650
58.2000,0.701
58.2400,0.631
58.2800,0.643
58.3200,0.644
58.3600,0.647
58.4000,0.628
58.4400,0.686
58.4800,0.637
58.5200,0.619
58.5600,0.654
58.6000,0.647
58.6400,0.636
58.6800,0.640
58.7200,0.665
58.7600,0.647
58.8000,0.588
58.8400,0.614
58.8800,0.620
58.9200,0.638
58.9600,0.650
59.0000,0.690
59.0400,0.617
59.0800,0.661
59.1200,0.653
59.1600,0.631
59.2000,0.604
59.2400,0.640
59.2800,0.634
59.3200,0.654
59.3600,0.598
59.4000,0.621
59.4400,0.630
59.4800,0.594
59.5200,0.616
59.5600,0.596
59.6000,0.610
59.6400,0.618
59.6800,0.654
59.7200,0.584
59.7600,0.605
59.8000,0.594
59.8400,0.645
59.8800,0.605
59.9200,0.596
59.9600,0.573
60.0000,0.645
60.0400,0.649
60.0800,0.603
60.1200,0.586
60.1600,0.630
60.2000,0.611
60.2400,0.596
60.2800,0.606
60.3200,0.655
60.3600,0.647
60.4000,0.611
60.4400,0.628
60.4800,0.641
60.5200,0.584
60.5600,0.614
60.6000,0.583
60.6400,0.617
60.6800,0.587
60.7200,0.644
60.7600,0.608
60.8000,0.581
60.8400,0.613
60.8800,0.603
60.9200,0.591
60.9600,0.597
61.0000,0.583
61.0400,0.625
61.0800,0.624
61.1200,0.617
61.1600,0.606
61.2000,0.620
61.2400,0.571
61.2800,0.634
61.3200,0.624
61.3600,0.622
61.4000,0.602
61.4400,0.629
61.4800,0.640
61.5200,0.626
61.5600,0.619
61.6000,0.685
61.6400,0.727
61.6800,0.782
61.7200,0.700
61.7600,0.735
61.8000,0.731
61.8400,0.711
61.8800,0.745
61.9200,0.736
61.9600,0.855
62.0000,0.804
62.0400,0.778
62.0800,0.775
62.1200,0.798
62.1600,0.783
62.2000,0.800
62.2400,0.815
62.2800,0.817
62.3200,0.831
62.3600,0.868
62.4000,0.910
62.4400,0.906
62.4800,0.945
62.5200,0.930
62.5600,0.971
62.6000,0.925
62.6400,0.958
62.6800,0.958
62.7200,0.990
62.7600,0.916
62.8000,0.859
62.8400,0.863
62.8800,0.830
62.9200,0.848
62.9600,0.877
63.0000,0.764
63.0400,0.775
63.0800,0.790
63.1200,0.783
63.1600,0.725
63.2000,0.744
63.2400,0.787
63.2800,0.709
63.3200,0.715
63.3600,0.717
63.4000,0.686
63.4400,0.716
63.4800,0.655
63.5200,0.698
63.5600,0.694
63.6000,0.684
63.6400,0.716
63.6800,0.684
63.7200,0.698
63.7600,0.743
63.8000,0.695
63.8400,0.655
63.8800,0.725
63.9200,0.663
63.9600,0.661
64.0000,0.665
64.0400,0.662
64.0800,0.620
64.1200,0.639
64.1600,0.637
64.2000,0.667
64.2400,0.656
64.2800,0.607
64.3200,0.591
64.3600,0.619
64.4000,0.656
64.4400,0.627
64.4800,0.664
64.5200,0.734
64.5600,0.729
64.6000,0.765
64.6400,0.737
64.6800,0.669
64.7200,0.729
64.7600,0.747
64.8000,0.740
64.8400,0.699
64.8800,0.673
64.9200,0.660
64.9600,0.667
65.0000,0.679
65.0400,0.681
65.0800,0.681
65.1200,0.692
65.1600,0.668
65.2000,0.628
65.2400,0.635
65.2800,0.656
65.3200,0.659
65.3600,0.739
65.4000,0.666
65.4400,0.681
65.4800,0.681
65.5200,0.668
65.5600,0.694
65.6000,0.745
65.6400,0.676
65.6800,0.694
65.7200,0.735
65.7600,0.737
65.8000,0.735
65.8400,0.724
65.8800,0.732
65.9200,0.746
65.9600,0.756
66.0000,0.753
66.0400,0.717
66.0800,0.719
66.1200,0.833
66.1600,0.802
66.2000,0.778
66.2400,0.801
66.2800,0.802
66.3200,0.820
66.3600,0.881
66.4000,0.867
66.4400,0.885
66.4800,0.929
66.5200,0.898
66.5600,0.920
66.6000,0.931
66.6400,0.907
66.6800,0.968
66.7200,0.963
66.7600,0.941
66.8000,0.982
66.8400,1.002
66.8800,1.002
66.9200,0.984
66.9600,1.072
67.0000,1.044
67.0400,1.021
67.0800,1.042
67.1200,1.091
67.1600,1.115
67.2000,1.141
67.2400,1.087
67.2800,1.133
67.3200,1.198
67.3600,1.219
67.4000,1.274
67.4400,1.273
67.4800,1.321
67.5200,1.305
67.5600,1.365
67.6000,1.408
67.6400,1.470
67.6800,1.480
67.7200,1.472
67.7600,1.533
67.8000,1.610
67.8400,1.618
67.8800,1.672
67.9200,1.755
67.9600,1.740
68.0000,1.825
68.0400,1.866
68.0800,1.912
68.1200,1.935
68.1600,1.991
68.2000,2.003
68.2400,1.974
68.2800,2.085
68.3200,2.153
68.3600,2.292
68.4000,2.406
68.4400,2.351
68.4800,2.579
68.5200,2.657
68.5600,2.690
68.6000,2.889
68.6400,3.104
68.6800,3.517
68.7200,4.236
68.7600,5.448
68.8000,6.695
68.8400,7.453
68.8800,7.456
68.9200,7.624
68.9600,9.558
69.0000,14.050
69.0400,25.691
69.0800,77.054
69.1200,346.175
69.1600,517.236
69.2000,249.872
69.2400,63.269
69.2800,63.581
69.3200,195.500
69.3600,262.610
69.4000,123.009
69.4400,30.848
69.4800,13.624
69.5200,9.242
69.5600,7.185
69.6000,5.916
69.6400,5.141
69.6800,4.508
69.7200,4.062
69.7600,3.709
69.8000,3.542
69.8400,3.168
69.8800,2.943
69.9200,2.787
69.9600,2.695
70.0000,2.627
70.0400,2.464
70.0800,2.447
70.1200,2.354
70.1600,2.253
70.2000,2.118
70.2400,2.113
70.2800,2.030
70.3200,1.870
70.3600,1.798
70.4000,1.689
70.4400,1.675
70.4800,1.642
70.5200,1.721
70.5600,1.534
70.6000,1.551
70.6400,1.525
70.6800,1.455
70.7200,1.442
70.7600,1.382
70.8000,1.357
70.8400,1.263
70.8800,1.238
70.9200,1.295
70.9600,1.236
71.0000,1.151
71.0400,1.126
71.0800,1.167
71.1200,1.063
71.1600,1.048
71.2000,1.053
71.2400,1.025
71.2800,1.005
71.3200,1.002
71.3600,0.933
71.4000,0.904
71.4400,0.933
71.4800,0.958
71.5200,0.861
71.5600,0.887
71.6000,0.879
71.6400,0.871
71.6800,0.827
71.7200,0.815
71.7600,0.812
71.8000,0.748
71.8400,0.784
71.8800,0.777
71.9200,0.746
71.9600,0.726
72.0000,0.697
72.0400,0.686
72.0800,0.722
72.1200,0.719
72.1600,0.716
72.2000,0.717
72.2400,0.747
72.2800,0.696
72.3200,0.712
72.3600,0.753
72.4000,0.924
72.4400,1.177
72.4800,0.839
72.5200,0.690
72.5600,0.652
72.6000,0.765
72.6400,0.854
72.6800,0.786
72.7200,0.699
72.7600,0.592
72.8000,0.604
72.8400,0.610
72.8800,0.568
72.9200,0.564
72.9600,0.594
73.0000,0.534
73.0400,0.546
73.0800,0.573
73.1200,0.630
73.1600,0.628
73.2000,0.606
73.2400,0.589
73.2800,0.529
73.3200,0.515
73.3600,0.555
73.4000,0.572
73.4400,0.532
73.4800,0.491
73.5200,0.544
73.5600,0.519
73.6000,0.502
73.6400,0.471
73.6800,0.453
73.7200,0.434
73.7600,0.443
73.8000,0.480
73.8400,0.437
73.8800,0.465
73.9200,0.452
73.9600,0.427
74.0000,0.465
74.0400,0.480
74.0800,0.421
74.1200,0.440
74.1600,0.424
74.2000,0.478
74.2400,0.406
74.2800,0.389
74.3200,0.407
74.3600,0.416
74.4000,0.422
74.4400,0.395
74.4800,0.396
74.5200,0.370
74.5600,0.385
74.6000,0.435
74.6400,0.398
74.6800,0.397
74.7200,0.385
74.7600,0.402
74.8000,0.378
74.8400,0.414
74.8800,0.407
74.9200,0.392
74.9600,0.401
75.0000,0.394
75.0400,0.391
75.0800,0.398
75.1200,0.417
75.1600,0.395
75.2000,0.342
75.2400,0.371
75.2800,0.413
75.3200,0.394
75.3600,0.387
75.4000,0.348
75.4400,0.373
75.4800,0.362
75.5200,0.358
75.5600,0.349
75.6000,0.367
75.6400,0.366
75.6800,0.375
75.7200,0.365
75.7600,0.361
75.8000,0.371
75.8400,0.343
75.8800,0.370
75.9200,0.360
75.9600,0.356
76.0000,0.357
76.0400,0.369
76.0800,0.373
76.1200,0.364
76.1600,0.389
76.2000,0.354
76.2400,0.352
76.2800,0.391
76.3200,0.366
76.3600,0.368
76.4000,0.348
76.4400,0.357
76.4800,0.366
76.5200,0.341
76.5600,0.359
76.6000,0.375
76.6400,0.349
76.6800,0.355
76.7200,0.335
76.7600,0.342
76.8000,0.378
76.8400,0.350
76.8800,0.347
76.9200,0.352
76.9600,0.398
77.0000,0.377
77.0400,0.364
77.0800,0.355
77.1200,0.347
77.1600,0.341
77.2000,0.360
77.2400,0.332
77.2800,0.363
77.3200,0.361
77.3600,0.359
77.4000,0.359
77.4400,0.348
77.4800,0.346
77.5200,0.317
77.5600,0.342
77.6000,0.353
77.6400,0.315
77.6800,0.364
77.7200,0.355
77.7600,0.338
77.8000,0.376
77.8400,0.365
77.8800,0.342
77.9200,0.372
77.9600,0.347
78.0000,0.360
78.0400,0.362
78.0800,0.353
78.1200,0.305
78.1600,0.337
78.2000,0.348
78.2400,0.328
78.2800,0.319
78.3200,0.319
78.3600,0.330
78.4000,0.324
78.4400,0.353
78.4800,0.318
78.5200,0.317
78.5600,0.319
78.6000,0.334
78.6400,0.334
78.6800,0.341
78.7200,0.323
78.7600,0.323
78.8000,0.343
78.8400,0.336
78.8800,0.337
78.9200,0.336
78.9600,0.312
79.0000,0.347
79.0400,0.331
79.0800,0.339
79.1200,0.343
79.1600,0.319
79.2000,0.344
79.2400,0.338
79.2800,0.352
79.3200,0.361
79.3600,0.322
79.4000,0.361
79.4400,0.404
79.4800,0.416
79.5200,0.430
79.5600,0.411
79.6000,0.415
79.6400,0.403
79.6800,0.387
79.7200,0.407
79.7600,0.410
79.8000,0.383
79.8400,0.356
79.8800,0.382
79.9200,0.323
79.9600,0.320
80.0000,0.334
