theta,intensity
5.0000,6.678
5.0400,6.775
5.0800,6.742
5.1200,6.724
5.1600,6.706
5.2000,6.680
5.2400,6.616
5.2800,6.478
5.3200,6.412
5.3600,6.503
5.4000,6.327
5.4400,6.230
5.4800,6.094
5.5200,6.051
5.5600,6.034
5.6000,5.839
5.6400,5.697
5.6800,5.797
5.7200,5.645
5.7600,5.717
5.8000,5.509
5.8400,5.535
5.8800,5.415
5.9200,5.477
5.9600,5.381
6.0000,5.324
6.0400,5.289
6.0800,5.228
6.1200,5.219
6.1600,5.237
6.2000,5.037
6.2400,5.154
6.2800,5.068
6.3200,5.111
6.3600,4.807
6.4000,4.923
6.4400,4.878
6.4800,4.745
6.5200,4.745
6.5600,4.795
6.6000,4.691
6.6400,4.692
6.6800,4.756
6.7200,4.604
6.7600,4.605
6.8000,4.470
6.8400,4.614
6.8800,4.674
6.9200,4.592
6.9600,4.497
7.0000,4.596
7.0400,4.528
7.0800,4.421
7.1200,4.417
7.1600,4.381
7.2000,4.405
7.2400,4.282
7.2800,4.377
7.3200,4.202
7.3600,4.265
7.4000,4.335
7.4400,4.185
7.4800,4.204
7.5200,4.283
7.5600,4.115
7.6000,4.151
7.6400,4.090
7.6800,4.180
7.7200,4.151
7.7600,4.238
7.8000,4.067
7.8400,4.152
7.8800,4.041
7.9200,4.047
7.9600,4.043
8.0000,4.063
8.0400,4.071
8.0800,4.031
8.1200,3.989
8.1600,3.995
8.2000,4.081
8.2400,4.016
8.2800,3.960
8.3200,4.091
8.3600,3.922
8.4000,3.934
8.4400,3.756
8.4800,3.955
8.5200,3.872
8.5600,3.911
8.6000,3.891
8.6400,4.009
8.6800,3.812
8.7200,3.862
8.7600,3.887
8.8000,3.985
8.8400,3.894
8.8800,3.758
8.9200,3.812
8.9600,3.736
9.0000,3.854
9.0400,3.794
9.0800,3.852
9.1200,3.744
9.1600,3.812
9.2000,3.781
9.2400,3.811
9.2800,3.857
9.3200,3.853
9.3600,3.894
9.4000,3.819
9.4400,3.749
9.4800,3.798
9.5200,3.727
9.5600,3.683
9.6000,3.685
9.6400,3.742
9.6800,3.762
9.7200,3.741
9.7600,3.690
9.8000,3.702
9.8400,3.704
9.8800,3.711
9.9200,3.642
9.9600,3.695
10.0000,3.645
10.0400,3.747
10.0800,3.671
10.1200,3.602
10.1600,3.705
10.2000,3.557
10.2400,3.604
10.2800,3.666
10.3200,3.713
10.3600,3.711
10.4000,3.618
10.4400,3.595
10.4800,3.633
10.5200,3.621
10.5600,3.632
10.6000,3.673
10.6400,3.700
10.6800,3.650
10.7200,3.620
10.7600,3.678
10.8000,3.583
10.8400,3.568
10.8800,3.536
10.9200,3.536
10.9600,3.571
11.0000,3.549
11.0400,3.588
11.0800,3.571
11.1200,3.591
11.1600,3.540
11.2000,3.430
11.2400,3.460
11.2800,3.663
11.3200,3.495
11.3600,3.521
11.4000,3.617
11.4400,3.460
11.4800,3.552
11.5200,3.470
11.5600,3.455
11.6000,3.556
11.6400,3.602
11.6800,3.532
11.7200,3.478
11.7600,3.570
11.8000,3.488
11.8400,3.480
11.8800,3.534
11.9200,3.394
11.9600,3.450
12.0000,3.579
12.0400,3.394
12.0800,3.368
12.1200,3.465
12.1600,3.419
12.2000,3.437
12.2400,3.473
12.2800,3.421
12.3200,3.421
12.3600,3.512
12.4000,3.430
12.4400,3.439
12.4800,3.389
12.5200,3.381
12.5600,3.433
12.6000,3.333
12.6400,3.365
12.6800,3.431
12.7200,3.366
12.7600,3.316
12.8000,3.271
12.8400,3.417
12.8800,3.478
12.9200,3.342
12.9600,3.317
13.0000,3.355
13.0400,3.329
13.0800,3.293
13.1200,3.348
13.1600,3.318
13.2000,3.439
13.2400,3.354
13.2800,3.357
13.3200,3.333
13.3600,3.289
13.4000,3.335
13.4400,3.347
13.4800,3.261
13.5200,3.396
13.5600,3.372
13.6000,3.272
13.6400,3.358
13.6800,3.329
13.7200,3.260
13.7600,3.349
13.8000,3.238
13.8400,3.248
13.8800,3.224
13.9200,3.176
13.9600,3.243
14.0000,3.331
14.0400,3.239
14.0800,3.207
14.1200,3.293
14.1600,3.319
14.2000,3.298
14.2400,3.245
14.2800,3.268
14.3200,3.275
14.3600,3.206
14.4000,3.175
14.4400,3.125
14.4800,3.288
14.5200,3.233
14.5600,3.255
14.6000,3.143
14.6400,3.174
14.6800,3.175
14.7200,3.136
14.7600,3.172
14.8000,3.184
14.8400,3.203
14.8800,3.206
14.9200,3.132
14.9600,3.164
15.0000,3.186
15.0400,3.182
15.0800,3.252
15.1200,3.229
15.1600,3.177
15.2000,3.101
15.2400,3.171
15.2800,3.140
15.3200,3.093
15.3600,3.103
15.4000,3.147
15.4400,3.095
15.4800,3.068
15.5200,3.129
15.5600,3.081
15.6000,3.206
15.6400,3.302
15.6800,3.141
15.7200,3.175
15.7600,3.096
15.8000,3.141
15.8400,3.021
15.8800,3.115
15.9200,3.059
15.9600,3.087
16.0000,3.096
16.0400,2.996
16.0800,3.104
16.1200,3.165
16.1600,3.021
16.2000,3.119
16.2400,3.003
16.2800,3.009
16.3200,3.009
16.3600,3.053
16.4000,3.013
16.4400,3.056
16.4800,3.054
16.5200,2.981
16.5600,2.996
16.6000,3.066
16.6400,3.039
16.6800,3.076
16.7200,2.939
16.7600,2.994
16.8000,2.995
16.8400,3.034
16.8800,2.992
16.9200,3.022
16.9600,3.009
17.0000,3.004
17.0400,2.929
17.0800,2.969
17.1200,2.922
17.1600,2.975
17.2000,3.014
17.2400,2.944
17.2800,2.928
17.3200,2.830
17.3600,2.934
17.4000,2.890
17.4400,2.917
17.4800,3.021
17.5200,2.958
17.5600,2.957
17.6000,2.895
17.6400,2.981
17.6800,3.007
17.7200,2.963
17.7600,2.866
17.8000,2.898
17.8400,2.876
17.8800,2.830
17.9200,3.061
17.9600,2.929
18.0000,2.860
18.0400,2.989
18.0800,2.986
18.1200,2.859
18.1600,3.053
18.2000,2.990
18.2400,2.994
18.2800,3.119
18.3200,3.168
18.3600,2.994
18.4000,2.917
18.4400,2.858
18.4800,2.940
18.5200,2.950
18.5600,2.876
18.6000,2.768
18.6400,2.871
18.6800,2.776
18.7200,2.857
18.7600,2.814
18.8000,2.802
18.8400,2.838
18.8800,2.753
18.9200,2.815
18.9600,2.891
19.0000,2.706
19.0400,2.755
19.0800,2.815
19.1200,2.804
19.1600,2.757
19.2000,2.823
19.2400,2.872
19.2800,2.832
19.3200,2.822
19.3600,2.737
19.4000,2.786
19.4400,2.807
19.4800,2.816
19.5200,2.813
19.5600,2.707
19.6000,2.684
19.6400,2.657
19.6800,2.703
19.7200,2.651
19.7600,2.757
19.8000,2.779
19.8400,2.734
19.8800,2.770
19.9200,2.731
19.9600,2.647
20.0000,2.753
20.0400,2.749
20.0800,2.761
20.1200,2.705
20.1600,2.736
20.2000,2.748
20.2400,2.605
20.2800,2.739
20.3200,2.615
20.3600,2.580
20.4000,2.608
20.4400,2.690
20.4800,2.699
20.5200,2.676
20.5600,2.581
20.6000,2.614
20.6400,2.657
20.6800,2.705
20.7200,2.609
20.7600,2.605
20.8000,2.611
20.8400,2.618
20.8800,2.623
20.9200,2.658
20.9600,2.659
21.0000,2.738
21.0400,2.623
21.0800,2.616
21.1200,2.590
21.1600,2.569
21.2000,2.542
21.2400,2.549
21.2800,2.626
21.3200,2.600
21.3600,2.547
21.4000,2.563
21.4400,2.644
21.4800,2.564
21.5200,2.582
21.5600,2.494
21.6000,2.603
21.6400,2.524
21.6800,2.517
21.7200,2.518
21.7600,2.462
21.8000,2.485
21.8400,2.513
21.8800,2.536
21.9200,2.552
21.9600,2.628
22.0000,2.526
22.0400,2.513
22.0800,2.555
22.1200,2.450
22.1600,2.541
22.2000,2.466
22.2400,2.520
22.2800,2.543
22.3200,2.468
22.3600,2.489
22.4000,2.497
22.4400,2.372
22.4800,2.460
22.5200,2.449
22.5600,2.496
22.6000,2.430
22.6400,2.526
22.6800,2.459
22.7200,2.445
22.7600,2.442
22.8000,2.424
22.8400,2.454
22.8800,2.498
22.9200,2.456
22.9600,2.457
23.0000,2.377
23.0400,2.459
23.0800,2.481
23.1200,2.451
23.1600,2.465
23.2000,2.369
23.2400,2.421
23.2800,2.471
23.3200,2.395
23.3600,2.352
23.4000,2.396
23.4400,2.381
23.4800,2.455
23.5200,2.393
23.5600,2.343
23.6000,2.309
23.6400,2.352
23.6800,2.365
23.7200,2.343
23.7600,2.346
23.8000,2.353
23.8400,2.411
23.8800,2.401
23.9200,2.363
23.9600,2.434
24.0000,2.339
24.0400,2.313
24.0800,2.363
24.1200,2.345
24.1600,2.334
24.2000,2.377
24.2400,2.365
24.2800,2.361
24.3200,2.429
24.3600,2.294
24.4000,2.272
24.4400,2.295
24.4800,2.303
24.5200,2.347
24.5600,2.255
24.6000,2.336
24.6400,2.281
24.6800,2.287
24.7200,2.297
24.7600,2.218
24.8000,2.308
24.8400,2.228
24.8800,2.282
24.9200,2.284
24.9600,2.247
25.0000,2.249
25.0400,2.363
25.0800,2.240
25.1200,2.278
25.1600,2.278
25.2000,2.161
25.2400,2.230
25.2800,2.277
25.3200,2.205
25.3600,2.244
25.4000,2.270
25.4400,2.230
25.4800,2.144
25.5200,2.173
25.5600,2.266
25.6000,2.135
25.6400,2.247
25.6800,2.243
25.7200,2.135
25.7600,2.169
25.8000,2.228
25.8400,2.254
25.8800,2.238
25.9200,2.282
25.9600,2.243
26.0000,2.173
26.0400,2.131
26.0800,2.223
26.1200,2.196
26.1600,2.172
26.2000,2.138
26.2400,2.144
26.2800,2.201
26.3200,2.163
26.3600,2.235
26.4000,2.130
26.4400,2.166
26.4800,2.177
26.5200,2.216
26.5600,2.126
26.6000,2.248
26.6400,2.204
26.6800,2.184
26.7200,2.159
26.7600,2.177
26.8000,2.076
26.8400,2.117
26.8800,2.144
26.9200,2.074
26.9600,2.123
27.0000,2.092
27.0400,2.075
27.0800,2.166
27.1200,2.097
27.1600,2.172
27.2000,2.128
27.2400,2.058
27.2800,2.159
27.3200,2.168
27.3600,2.132
27.4000,2.134
27.4400,2.078
27.4800,2.151
27.5200,2.098
27.5600,2.110
27.6000,2.205
27.6400,2.097
27.6800,2.034
27.7200,2.101
27.7600,2.098
27.8000,2.104
27.8400,2.109
27.8800,2.095
27.9200,2.101
27.9600,2.017
28.0000,2.046
28.0400,2.073
28.0800,2.043
28.1200,2.159
28.1600,2.061
28.2000,2.053
28.2400,2.056
28.2800,2.012
28.3200,2.004
28.3600,2.038
28.4000,2.106
28.4400,2.084
28.4800,1.984
28.5200,2.070
28.5600,2.037
28.6000,2.041
28.6400,2.039
28.6800,2.006
28.7200,2.006
28.7600,1.995
28.8000,2.042
28.8400,1.994
28.8800,2.021
28.9200,2.039
28.9600,2.038
29.0000,1.968
29.0400,2.074
29.0800,2.032
29.1200,2.130
29.1600,2.064
29.2000,2.048
29.2400,2.096
29.2800,2.144
29.3200,2.081
29.3600,2.153
29.4000,2.135
29.4400,2.199
29.4800,2.164
29.5200,2.251
29.5600,2.367
29.6000,2.447
29.6400,2.535
29.6800,3.012
29.7200,3.382
29.7600,3.788
29.8000,4.267
29.8400,4.375
29.8800,4.235
29.9200,4.098
29.9600,3.711
30.0000,3.235
30.0400,2.930
30.0800,2.650
30.1200,2.577
30.1600,2.612
30.2000,2.521
30.2400,2.518
30.2800,2.619
30.3200,2.652
30.3600,2.854
30.4000,3.243
30.4400,3.806
30.4800,4.923
30.5200,6.992
30.5600,10.353
30.6000,14.905
30.6400,16.765
30.6800,15.972
30.7200,12.856
30.7600,9.323
30.8000,6.665
30.8400,4.917
30.8800,4.056
30.9200,3.539
30.9600,3.190
31.0000,2.734
31.0400,2.620
31.0800,2.541
31.1200,2.442
31.1600,2.400
31.2000,2.244
31.2400,2.238
31.2800,2.290
31.3200,2.334
31.3600,2.383
31.4000,2.345
31.4400,2.431
31.4800,2.358
31.5200,2.402
31.5600,2.429
31.6000,2.663
31.6400,2.791
31.6800,2.916
31.7200,3.093
31.7600,3.381
31.8000,3.560
31.8400,3.705
31.8800,3.977
31.9200,4.370
31.9600,5.103
32.0000,5.962
32.0400,6.260
32.0800,5.656
32.1200,4.921
32.1600,3.868
32.2000,3.098
32.2400,2.772
32.2800,2.477
32.3200,2.326
32.3600,2.311
32.4000,2.188
32.4400,2.095
32.4800,2.107
32.5200,1.975
32.5600,1.969
32.6000,1.974
32.6400,1.945
32.6800,1.941
32.7200,2.019
32.7600,1.924
32.8000,1.873
32.8400,1.922
32.8800,1.933
32.9200,1.827
32.9600,1.854
33.0000,1.861
33.0400,1.912
33.0800,1.890
33.1200,1.900
33.1600,1.853
33.2000,1.993
33.2400,2.192
33.2800,2.361
33.3200,2.693
33.3600,2.612
33.4000,2.355
33.4400,2.220
33.4800,2.086
33.5200,1.997
33.5600,1.965
33.6000,1.906
33.6400,1.882
33.6800,1.912
33.7200,1.874
33.7600,1.833
33.8000,1.915
33.8400,1.881
33.8800,1.882
33.9200,1.936
33.9600,1.874
34.0000,1.915
34.0400,1.982
34.0800,2.112
34.1200,2.120
34.1600,2.186
34.2000,2.045
34.2400,2.217
34.2800,2.233
34.3200,2.187
34.3600,2.419
34.4000,2.404
34.4400,2.406
34.4800,2.421
34.5200,2.323
34.5600,2.338
34.6000,2.271
34.6400,2.177
34.6800,2.120
34.7200,2.018
34.7600,2.072
34.8000,2.002
34.8400,1.965
34.8800,1.839
34.9200,1.873
34.9600,1.875
35.0000,1.866
35.0400,1.808
35.0800,1.783
35.1200,1.764
35.1600,1.758
35.2000,1.784
35.2400,1.792
35.2800,1.794
35.3200,1.727
35.3600,1.879
35.4000,1.778
35.4400,1.840
35.4800,1.760
35.5200,1.776
35.5600,1.819
35.6000,1.822
35.6400,1.879
35.6800,1.872
35.7200,1.980
35.7600,1.940
35.8000,2.007
35.8400,2.055
35.8800,2.188
35.9200,2.168
35.9600,2.213
36.0000,2.282
36.0400,2.399
36.0800,2.531
36.1200,2.605
36.1600,2.700
36.2000,2.930
36.2400,2.906
36.2800,2.981
36.3200,2.936
36.3600,2.942
36.4000,2.868
36.4400,2.726
36.4800,2.677
36.5200,2.420
36.5600,2.296
36.6000,2.343
36.6400,2.140
36.6800,2.080
36.7200,2.036
36.7600,2.029
36.8000,1.880
36.8400,1.829
36.8800,1.891
36.9200,1.894
36.9600,1.802
37.0000,1.830
37.0400,1.863
37.0800,1.678
37.1200,1.802
37.1600,1.752
37.2000,1.619
37.2400,1.611
37.2800,1.614
37.3200,1.641
37.3600,1.563
37.4000,1.502
37.4400,1.517
37.4800,1.446
37.5200,1.435
37.5600,1.424
37.6000,1.418
37.6400,1.446
37.6800,1.443
37.7200,1.435
37.7600,1.410
37.8000,1.398
37.8400,1.430
37.8800,1.362
37.9200,1.382
37.9600,1.343
38.0000,1.374
38.0400,1.390
38.0800,1.351
38.1200,1.352
38.1600,1.389
38.2000,1.394
38.2400,1.328
38.2800,1.383
38.3200,1.361
38.3600,1.355
38.4000,1.331
38.4400,1.301
38.4800,1.362
38.5200,1.358
38.5600,1.305
38.6000,1.335
38.6400,1.353
38.6800,1.299
38.7200,1.269
38.7600,1.281
38.8000,1.307
38.8400,1.326
38.8800,1.352
38.9200,1.299
38.9600,1.272
39.0000,1.285
39.0400,1.278
39.0800,1.308
39.1200,1.309
39.1600,1.294
39.2000,1.300
39.2400,1.270
39.2800,1.323
39.3200,1.265
39.3600,1.278
39.4000,1.291
39.4400,1.233
39.4800,1.258
39.5200,1.252
39.5600,1.244
39.6000,1.234
39.6400,1.231
39.6800,1.222
39.7200,1.242
39.7600,1.274
39.8000,1.200
39.8400,1.253
39.8800,1.238
39.9200,1.199
39.9600,1.200
40.0000,1.186
40.0400,1.205
40.0800,1.184
40.1200,1.201
40.1600,1.203
40.2000,1.196
40.2400,1.205
40.2800,1.190
40.3200,1.196
40.3600,1.196
40.4000,1.166
40.4400,1.141
40.4800,1.222
40.5200,1.242
40.5600,1.222
40.6000,1.185
40.6400,1.158
40.6800,1.117
40.7200,1.193
40.7600,1.120
40.8000,1.165
40.8400,1.197
40.8800,1.171
40.9200,1.261
40.9600,1.200
41.0000,1.239
41.0400,1.177
41.0800,1.129
41.1200,1.157
41.1600,1.150
41.2000,1.192
41.2400,1.083
41.2800,1.096
41.3200,1.140
41.3600,1.114
41.4000,1.162
41.4400,1.104
41.4800,1.107
41.5200,1.101
41.5600,1.142
41.6000,1.126
41.6400,1.153
41.6800,1.118
41.7200,1.158
41.7600,1.196
41.8000,1.137
41.8400,1.139
41.8800,1.154
41.9200,1.082
41.9600,1.185
42.0000,1.115
42.0400,1.082
42.0800,1.082
42.1200,1.079
42.1600,1.055
42.2000,1.113
42.2400,1.132
42.2800,1.104
42.3200,1.052
42.3600,1.118
42.4000,1.105
42.4400,1.123
42.4800,1.077
42.5200,1.113
42.5600,1.097
42.6000,1.122
42.6400,1.078
42.6800,1.019
42.7200,1.068
42.7600,1.077
42.8000,1.124
42.8400,1.060
42.8800,1.052
42.9200,1.003
42.9600,1.041
43.0000,1.164
43.0400,1.081
43.0800,1.163
43.1200,1.097
43.1600,1.062
43.2000,1.061
43.2400,1.091
43.2800,1.090
43.3200,1.062
43.3600,1.099
43.4000,1.082
43.4400,1.119
43.4800,1.051
43.5200,1.104
43.5600,1.092
43.6000,1.095
43.6400,1.163
43.6800,1.113
43.7200,1.179
43.7600,1.278
43.8000,1.410
43.8400,1.663
43.8800,1.859
43.9200,1.778
43.9600,1.666
44.0000,1.560
44.0400,1.496
44.0800,1.357
44.1200,1.223
44.1600,1.226
44.2000,1.137
44.2400,1.108
44.2800,1.138
44.3200,1.087
44.3600,1.074
44.4000,1.087
44.4400,1.142
44.4800,1.149
44.5200,1.154
44.5600,1.155
44.6000,1.165
44.6400,1.205
44.6800,1.185
44.7200,1.255
44.7600,1.466
44.8000,1.714
44.8400,1.954
44.8800,2.322
44.9200,2.585
44.9600,2.445
45.0000,2.145
45.0400,1.986
45.0800,1.733
45.1200,1.439
45.1600,1.318
45.2000,1.205
45.2400,1.188
45.2800,1.052
45.3200,1.028
45.3600,1.022
45.4000,1.051
45.4400,1.000
45.4800,1.055
45.5200,0.964
45.5600,1.046
45.6000,0.999
45.6400,1.030
45.6800,0.994
45.7200,0.967
45.7600,0.949
45.8000,0.983
45.8400,0.989
45.8800,0.933
45.9200,0.977
45.9600,0.950
46.0000,0.969
46.0400,0.924
46.0800,0.893
46.1200,0.938
46.1600,0.979
46.2000,0.936
46.2400,0.918
46.2800,0.935
46.3200,0.933
46.3600,0.984
46.4000,0.953
46.4400,1.025
46.4800,0.978
46.5200,0.980
46.5600,0.975
46.6000,0.954
46.6400,1.005
46.6800,0.934
46.7200,0.952
46.7600,0.992
46.8000,0.969
46.8400,0.979
46.8800,0.974
46.9200,0.962
46.9600,0.961
47.0000,1.000
47.0400,1.048
47.0800,0.993
47.1200,0.968
47.1600,1.030
47.2000,0.959
47.2400,1.010
47.2800,0.979
47.3200,1.116
47.3600,0.999
47.4000,1.025
47.4400,1.073
47.4800,1.049
47.5200,1.075
47.5600,1.101
47.6000,1.112
47.6400,1.094
47.6800,1.140
47.7200,1.153
47.7600,1.139
47.8000,1.166
47.8400,1.215
47.8800,1.150
47.9200,1.109
47.9600,1.088
48.0000,1.021
48.0400,0.980
48.0800,0.997
48.1200,1.041
48.1600,0.947
48.2000,0.966
48.2400,0.973
48.2800,0.942
48.3200,0.951
48.3600,0.947
48.4000,0.903
48.4400,0.942
48.4800,0.882
48.5200,0.909
48.5600,0.894
48.6000,0.883
48.6400,0.852
48.6800,0.857
48.7200,0.886
48.7600,0.896
48.8000,0.879
48.8400,0.907
48.8800,0.874
48.9200,0.822
48.9600,0.864
49.0000,0.861
49.0400,0.832
49.0800,0.830
49.1200,0.836
49.1600,0.884
49.2000,0.903
49.2400,0.859
49.2800,0.854
49.3200,0.853
49.3600,0.819
49.4000,0.827
49.4400,0.849
49.4800,0.829
49.5200,0.799
49.5600,0.829
49.6000,0.870
49.6400,0.794
49.6800,0.795
49.7200,0.808
49.7600,0.782
49.8000,0.802
49.8400,0.812
49.8800,0.774
49.9200,0.808
49.9600,0.846
50.0000,0.816
50.0400,0.823
50.0800,0.859
50.1200,0.878
50.1600,0.840
50.2000,0.854
50.2400,0.842
50.2800,0.810
50.3200,0.882
50.3600,0.901
50.4000,0.940
50.4400,0.924
50.4800,0.991
50.5200,1.063
50.5600,1.071
50.6000,1.157
50.6400,1.145
50.6800,1.113
50.7200,1.132
50.7600,1.071
50.8000,0.964
50.8400,1.004
50.8800,0.928
50.9200,0.896
50.9600,0.863
51.0000,0.792
51.0400,0.787
51.0800,0.798
51.1200,0.804
51.1600,0.800
51.2000,0.810
51.2400,0.771
51.2800,0.776
51.3200,0.805
51.3600,0.787
51.4000,0.798
51.4400,0.818
51.4800,0.761
51.5200,0.746
51.5600,0.786
51.6000,0.764
51.6400,0.781
51.6800,0.776
51.7200,0.782
51.7600,0.747
51.8000,0.757
51.8400,0.755
51.8800,0.811
51.9200,0.826
51.9600,0.771
52.0000,0.753
52.0400,0.756
52.0800,0.721
52.1200,0.744
52.1600,0.751
52.2000,0.738
52.2400,0.692
52.2800,0.708
52.3200,0.764
52.3600,0.715
52.4000,0.692
52.4400,0.726
52.4800,0.759
52.5200,0.723
52.5600,0.738
52.6000,0.737
52.6400,0.730
52.6800,0.755
52.7200,0.700
52.7600,0.729
52.8000,0.673
52.8400,0.716
52.8800,0.780
52.9200,0.700
52.9600,0.682
53.0000,0.731
53.0400,0.729
53.0800,0.659
53.1200,0.724
53.1600,0.678
53.2000,0.719
53.2400,0.701
53.2800,0.743
53.3200,0.714
53.3600,0.747
53.4000,0.684
53.4400,0.685
53.4800,0.717
53.5200,0.716
53.5600,0.722
53.6000,0.689
53.6400,0.705
53.6800,0.711
53.7200,0.692
53.7600,0.735
53.8000,0.722
53.8400,0.720
53.8800,0.740
53.9200,0.713
53.9600,0.683
54.0000,0.701
54.0400,0.730
54.0800,0.745
54.1200,0.707
54.1600,0.690
54.2000,0.679
54.2400,0.673
54.2800,0.702
54.3200,0.721
54.3600,0.671
54.4000,0.756
54.4400,0.678
54.4800,0.667
54.5200,0.677
54.5600,0.700
54.6000,0.670
54.6400,0.636
54.6800,0.706
54.7200,0.712
54.7600,0.695
54.8000,0.691
54.8400,0.711
54.8800,0.659
54.9200,0.687
54.9600,0.673
55.0000,0.673
55.0400,0.699
55.0800,0.724
55.1200,0.767
55.1600,0.725
55.2000,0.775
55.2400,0.780
55.2800,0.788
55.3200,0.900
55.3600,0.910
55.4000,0.888
55.4400,0.897
55.4800,0.889
55.5200,0.866
55.5600,0.817
55.6000,0.784
55.6400,0.731
55.6800,0.762
55.7200,0.763
55.7600,0.743
55.8000,0.744
55.8400,0.693
55.8800,0.723
55.9200,0.763
55.9600,0.737
56.0000,0.713
56.0400,0.732
56.0800,0.750
56.1200,0.749
56.1600,0.778
56.2000,0.758
56.2400,0.836
56.2800,0.839
56.3200,0.856
56.3600,0.850
56.4000,0.863
56.4400,0.905
56.4800,0.912
56.5200,0.947
56.5600,0.962
56.6000,0.972
56.6400,1.032
56.6800,1.013
56.7200,1.089
56.7600,1.083
56.8000,1.043
56.8400,0.961
56.8800,0.938
56.9200,0.940
56.9600,0.874
57.0000,0.844
57.0400,0.825
57.0800,0.833
57.1200,0.877
57.1600,0.891
57.2000,0.841
57.2400,0.886
57.2800,0.890
57.3200,0.912
57.3600,0.924
57.4000,0.927
57.4400,0.968
57.4800,0.937
57.5200,0.909
57.5600,0.872
57.6000,0.835
57.6400,0.819
57.6800,0.771
57.7200,0.738
57.7600,0.741
57.8000,0.683
57.8400,0.748
57.8800,0.675
57.9200,0.636
57.9600,0.677
58.0000,0.701
58.0400,0.668
58.0800,0.641
58.1200,0.667
58.1600,0.648
58.2000,0.657
58.2400,0.720
58.2800,0.700
58.3200,0.643
58.3600,0.672
58.4000,0.665
58.4400,0.625
58.4800,0.605
58.5200,0.620
58.5600,0.644
58.6000,0.615
58.6400,0.635
58.6800,0.611
58.7200,0.660
58.7600,0.654
58.8000,0.619
58.8400,0.626
58.8800,0.605
58.9200,0.600
58.9600,0.613
59.0000,0.627
59.0400,0.659
59.0800,0.604
59.1200,0.622
59.1600,0.568
59.2000,0.611
59.2400,0.610
59.2800,0.589
59.3200,0.589
59.3600,0.622
59.4000,0.622
59.4400,0.626
59.4800,0.582
59.5200,0.568
59.5600,0.632
59.6000,0.589
59.6400,0.637
59.6800,0.635
59.7200,0.622
59.7600,0.601
59.8000,0.581
59.8400,0.579
59.8800,0.604
59.9200,0.575
59.9600,0.601
60.0000,0.606
60.0400,0.597
60.0800,0.584
60.1200,0.636
60.1600,0.604
60.2000,0.596
60.2400,0.610
60.2800,0.607
60.3200,0.587
60.3600,0.595
60.4000,0.590
60.4400,0.616
60.4800,0.628
60.5200,0.598
60.5600,0.582
60.6000,0.583
60.6400,0.581
60.6800,0.603
60.7200,0.608
60.7600,0.604
60.8000,0.606
60.8400,0.525
60.8800,0.574
60.9200,0.579
60.9600,0.578
61.0000,0.586
61.0400,0.611
61.0800,0.578
61.1200,0.627
61.1600,0.607
61.2000,0.607
61.2400,0.615
61.2800,0.568
61.3200,0.605
61.3600,0.582
61.4000,0.623
61.4400,0.617
61.4800,0.619
61.5200,0.595
61.5600,0.640
61.6000,0.611
61.6400,0.644
61.6800,0.763
61.7200,0.708
61.7600,0.705
61.8000,0.666
61.8400,0.640
61.8800,0.717
61.9200,0.686
61.9600,0.763
62.0000,0.691
62.0400,0.688
62.0800,0.725
62.1200,0.744
62.1600,0.701
62.2000,0.708
62.2400,0.725
62.2800,0.786
62.3200,0.740
62.3600,0.812
62.4000,0.847
62.4400,0.848
62.4800,0.898
62.5200,0.931
62.5600,0.971
62.6000,0.902
62.6400,0.876
62.6800,0.847
62.7200,0.870
62.7600,0.827
62.8000,0.842
62.8400,0.803
62.8800,0.790
62.9200,0.806
62.9600,0.773
63.0000,0.750
63.0400,0.778
63.0800,0.701
63.1200,0.726
63.1600,0.730
63.2000,0.768
63.2400,0.684
63.2800,0.651
63.3200,0.682
63.3600,0.687
63.4000,0.700
63.4400,0.689
63.4800,0.648
63.5200,0.643
63.5600,0.677
63.6000,0.711
63.6400,0.688
63.6800,0.716
63.7200,0.734
63.7600,0.751
63.8000,0.819
63.8400,0.756
63.8800,0.749
63.9200,0.733
63.9600,0.734
64.0000,0.745
64.0400,0.726
64.0800,0.672
64.1200,0.713
64.1600,0.627
64.2000,0.633
64.2400,0.663
64.2800,0.642
64.3200,0.621
64.3600,0.649
64.4000,0.699
64.4400,0.669
64.4800,0.732
64.5200,0.691
64.5600,0.757
64.6000,0.774
64.6400,0.806
64.6800,0.785
64.7200,0.752
64.7600,0.759
64.8000,0.668
64.8400,0.732
64.8800,0.663
64.9200,0.656
64.9600,0.643
65.0000,0.634
65.0400,0.621
65.0800,0.650
65.1200,0.638
65.1600,0.585
65.2000,0.663
65.2400,0.649
65.2800,0.654
65.3200,0.645
65.3600,0.673
65.4000,0.664
65.4400,0.665
65.4800,0.652
65.5200,0.639
65.5600,0.659
65.6000,0.679
65.6400,0.659
65.6800,0.658
65.7200,0.673
65.7600,0.722
65.8000,0.660
65.8400,0.745
65.8800,0.779
65.9200,0.711
65.9600,0.757
66.0000,0.709
66.0400,0.746
66.0800,0.688
66.1200,0.759
66.1600,0.724
66.2000,0.784
66.2400,0.775
66.2800,0.843
66.3200,0.758
66.3600,0.825
66.4000,0.864
66.4400,0.881
66.4800,0.848
66.5200,0.872
66.5600,0.892
66.6000,0.863
66.6400,0.863
66.6800,0.891
66.7200,0.917
66.7600,0.915
66.8000,0.988
66.8400,0.960
66.8800,0.966
66.9200,1.019
66.9600,0.960
67.0000,1.013
67.0400,1.034
67.0800,1.014
67.1200,1.035
67.1600,1.134
67.2000,1.137
67.2400,1.085
67.2800,1.169
67.3200,1.190
67.3600,1.203
67.4000,1.245
67.4400,1.320
67.4800,1.290
67.5200,1.317
67.5600,1.247
67.6000,1.367
67.6400,1.423
67.6800,1.438
67.7200,1.481
67.7600,1.501
67.8000,1.460
67.8400,1.638
67.8800,1.665
67.9200,1.669
67.9600,1.760
68.0000,1.768
68.0400,1.802
68.0800,1.907
68.1200,1.925
68.1600,1.869
68.2000,1.916
68.2400,1.979
68.2800,2.044
68.3200,2.138
68.3600,2.148
68.4000,2.209
68.4400,2.411
68.4800,2.446
68.5200,2.510
68.5600,2.624
68.6000,2.711
68.6400,2.994
68.6800,3.387
68.7200,4.008
68.7600,5.209
68.8000,6.590
68.8400,7.269
68.8800,7.234
68.9200,7.579
68.9600,8.871
69.0000,12.371
69.0400,20.970
69.0800,58.403
69.1200,295.245
69.1600,522.709
69.2000,295.979
69.2400,71.641
69.2800,54.566
69.3200,172.207
69.3600,270.495
69.4000,146.163
69.4400,36.166
69.4800,15.060
69.5200,9.872
69.5600,7.494
69.6000,6.243
69.6400,5.278
69.6800,4.487
69.7200,4.183
69.7600,3.960
69.8000,3.544
69.8400,3.342
69.8800,3.077
69.9200,2.912
69.9600,2.733
70.0000,2.515
70.0400,2.512
70.0800,2.478
70.1200,2.378
70.1600,2.317
70.2000,2.120
70.2400,2.042
70.2800,2.004
70.3200,1.917
70.3600,1.845
70.4000,1.895
70.4400,1.747
70.4800,1.719
70.5200,1.688
70.5600,1.619
70.6000,1.589
70.6400,1.525
70.6800,1.509
70.7200,1.494
70.7600,1.428
70.8000,1.391
70.8400,1.332
70.8800,1.295
70.9200,1.234
70.9600,1.224
71.0000,1.230
71.0400,1.140
71.0800,1.103
71.1200,1.148
71.1600,1.110
71.2000,1.084
71.2400,1.089
71.2800,1.066
71.3200,1.093
71.3600,0.923
71.4000,1.004
71.4400,0.993
71.4800,0.891
71.5200,0.886
71.5600,0.864
71.6000,0.936
71.6400,0.930
71.6800,0.856
71.7200,0.827
71.7600,0.816
71.8000,0.805
71.8400,0.780
71.8800,0.821
71.9200,0.756
71.9600,0.744
72.0000,0.788
72.0400,0.777
72.0800,0.717
72.1200,0.723
72.1600,0.724
72.2000,0.775
72.2400,0.719
72.2800,0.787
72.3200,0.809
72.3600,0.799
72.4000,0.815
72.4400,0.831
72.4800,0.783
72.5200,0.767
72.5600,0.768
72.6000,0.744
72.6400,0.797
72.6800,0.659
72.7200,0.702
72.7600,0.621
72.8000,0.596
72.8400,0.620
72.8800,0.585
72.9200,0.584
72.9600,0.621
73.0000,0.578
73.0400,0.580
73.0800,0.574
73.1200,0.605
73.1600,0.642
73.2000,0.591
73.2400,0.593
73.2800,0.583
73.3200,0.548
73.3600,0.579
73.4000,0.585
73.4400,0.568
73.4800,0.510
73.5200,0.492
73.5600,0.492
73.6000,0.513
73.6400,0.495
73.6800,0.500
73.7200,0.506
73.7600,0.454
73.8000,0.451
73.8400,0.458
73.8800,0.485
73.9200,0.469
73.9600,0.453
74.0000,0.449
74.0400,0.401
74.0800,0.404
74.1200,0.443
74.1600,0.421
74.2000,0.435
74.2400,0.423
74.2800,0.420
74.3200,0.406
74.3600,0.382
74.4000,0.429
74.4400,0.430
74.4800,0.420
74.5200,0.440
74.5600,0.389
74.6000,0.433
74.6400,0.377
74.6800,0.401
74.7200,0.383
74.7600,0.407
74.8000,0.371
74.8400,0.377
74.8800,0.419
74.9200,0.400
74.9600,0.385
75.0000,0.368
75.0400,0.384
75.0800,0.377
75.1200,0.397
75.1600,0.417
75.2000,0.354
75.2400,0.367
75.2800,0.404
75.3200,0.399
75.3600,0.392
75.4000,0.381
75.4400,0.369
75.4800,0.360
75.5200,0.400
75.5600,0.353
75.6000,0.382
75.6400,0.352
75.6800,0.333
75.7200,0.375
75.7600,0.371
75.8000,0.381
75.8400,0.384
75.8800,0.362
75.9200,0.374
75.9600,0.378
76.0000,0.322
76.0400,0.360
76.0800,0.372
76.1200,0.361
76.1600,0.365
76.2000,0.377
76.2400,0.355
76.2800,0.362
76.3200,0.380
76.3600,0.342
76.4000,0.335
76.4400,0.362
76.4800,0.361
76.5200,0.352
76.5600,0.330
76.6000,0.351
76.6400,0.354
76.6800,0.358
76.7200,0.347
76.7600,0.367
76.8000,0.367
76.8400,0.333
76.8800,0.346
76.9200,0.364
76.9600,0.339
77.0000,0.339
77.0400,0.350
77.0800,0.354
77.1200,0.308
77.1600,0.370
77.2000,0.339
77.2400,0.341
77.2800,0.324
77.3200,0.335
77.3600,0.343
77.4000,0.373
77.4400,0.353
77.4800,0.331
77.5200,0.343
77.5600,0.342
77.6000,0.344
77.6400,0.340
77.6800,0.340
77.7200,0.333
77.7600,0.368
77.8000,0.326
77.8400,0.337
77.8800,0.338
77.9200,0.362
77.9600,0.340
78.0000,0.360
78.0400,0.327
78.0800,0.305
78.1200,0.327
78.1600,0.337
78.2000,0.336
78.2400,0.339
78.2800,0.317
78.3200,0.304
78.3600,0.341
78.4000,0.324
78.4400,0.321
78.4800,0.325
78.5200,0.368
78.5600,0.316
78.6000,0.332
78.6400,0.301
78.6800,0.268
78.7200,0.320
78.7600,0.307
78.8000,0.314
78.8400,0.314
78.8800,0.340
78.9200,0.294
78.9600,0.332
79.0000,0.337
79.0400,0.342
79.0800,0.339
79.1200,0.315
79.1600,0.327
79.2000,0.319
79.2400,0.329
79.2800,0.360
79.3200,0.368
79.3600,0.368
79.4000,0.391
79.4400,0.398
79.4800,0.436
79.5200,0.427
79.5600,0.382
79.6000,0.399
79.6400,0.407
79.6800,0.355
79.7200,0.387
79.7600,0.391
79.8000,0.375
79.8400,0.346
79.8800,0.354
79.9200,0.327
79.9600,0.316
80.0000,0.305
